sensorStatus,cap1,cap2,cap3,counter,microseconds_since_last_tick,accX,accY,accZ,gyroX,gyroY,gyroZ,magnetX,magnetY,magnetZ,day,hour,min,sec,msec,sync,battery_fuel,crc_good
1,30902,30290,31355,77289,21694,-4506,-201,-732,-14,-24,25,158,528,-170,1,0,51,33,40,0,53298,1
2,30901,30294,31359,77290,21704,-4515,-212,-733,0,-23,24,154,520,-172,1,0,51,33,80,0,53298,1
2,30902,30297,31357,77291,21714,-4518,-210,-746,-8,-26,20,154,520,-176,1,0,51,33,120,0,53298,1
2,30903,30294,31360,77292,21724,-4532,-218,-730,-9,-12,31,144,518,-178,1,0,51,33,160,0,53298,1
2,30902,30303,31357,77293,21735,-4515,-211,-719,-7,-13,33,156,518,-164,1,0,51,33,200,0,53298,1
2,30903,30299,31359,77294,21745,-4524,-212,-730,-6,-8,28,145,509,-167,1,0,51,33,240,0,53298,1
2,30903,30305,31355,77295,21755,-4521,-212,-737,-10,-9,22,152,518,-168,1,0,51,33,280,0,53298,1
2,30903,30303,31358,77296,21766,-4505,-214,-724,-15,-16,19,156,520,-170,1,0,51,33,320,0,53298,1
2,30901,30295,31359,77297,21776,-4520,-207,-741,-9,-26,23,150,524,-172,1,0,51,33,360,0,53298,1
2,30902,30298,31356,77298,21787,-4515,-206,-713,-13,-13,32,153,521,-173,1,0,51,33,400,0,53298,1
2,30904,30295,31358,77299,21798,-4523,-206,-722,-9,-13,20,148,518,-170,1,0,51,33,440,0,53298,1
2,30903,30310,31356,77300,21810,-4517,-212,-728,-6,-16,27,155,521,-171,1,0,51,33,480,0,53298,1
2,30904,30300,31358,77301,21821,-4511,-206,-733,-16,-19,27,148,522,-170,1,0,51,33,520,0,53298,1
2,30903,30293,31358,77302,21832,-4510,-208,-715,-8,-5,28,149,519,-173,1,0,51,33,560,0,53298,1
2,30905,30295,31362,77303,21843,-4519,-218,-739,-17,-3,23,158,520,-172,1,0,51,33,600,0,53298,1
2,30903,30296,31359,77304,21853,-4502,-205,-731,-11,-15,26,143,529,-167,1,0,51,33,640,0,53298,1
2,30905,30293,31360,77305,21864,-4516,-217,-727,-11,-20,26,151,525,-169,1,0,51,33,680,0,53298,1
2,30903,30289,31358,77306,21876,-4513,-213,-736,-12,-6,23,151,523,-177,1,0,51,33,720,0,53298,1
2,30903,30292,31360,77307,21887,-4522,-218,-735,-19,-12,20,152,524,-172,1,0,51,33,760,0,53298,1
2,30902,30296,31355,77308,21899,-4518,-222,-727,-11,-25,26,157,529,-169,1,0,51,33,800,0,53298,1
2,30904,30292,31359,77309,21909,-4525,-218,-713,-7,-13,20,151,525,-171,1,0,51,33,840,0,53298,1
2,30900,30297,31357,77310,21921,-4522,-214,-711,-15,-21,18,149,525,-177,1,0,51,33,880,0,53298,1
2,30901,30299,31356,77311,21931,-4514,-207,-722,-11,-8,26,150,530,-164,1,0,51,33,920,0,53298,1
2,30905,30295,31357,77312,21942,-4519,-213,-726,-4,-18,22,157,521,-171,1,0,51,33,960,0,53298,1
1,30900,30292,31355,77313,0,-4531,-216,-723,-16,-20,25,145,523,-169,1,0,51,34,0,0,53298,1
2,30898,30290,31361,77314,21235,-4519,-220,-727,-19,-19,16,149,517,-175,1,0,51,34,40,0,53298,1
2,30902,30289,31359,77315,21246,-4518,-221,-728,-14,-19,21,148,522,-176,1,0,51,34,80,0,53298,1
2,30901,30294,31357,77316,21256,-4510,-200,-721,-6,-17,21,145,529,-167,1,0,51,34,120,0,53298,1
2,30897,30288,31357,77317,21267,-4508,-200,-727,-11,-10,25,150,522,-164,1,0,51,34,160,0,53298,1
2,30898,30292,31357,77318,21277,-4526,-226,-717,-12,-8,24,156,512,-172,1,0,51,34,200,0,53298,1
2,30902,30288,31357,77319,21288,-4512,-212,-738,-7,-16,27,149,531,-169,1,0,51,34,240,0,53298,1
2,30901,30290,31356,77320,21298,-4522,-202,-722,-17,-24,21,149,519,-181,1,0,51,34,280,0,53298,1
2,30901,30292,31359,77321,21309,-4522,-217,-736,-20,-26,27,153,523,-181,1,0,51,34,320,0,53298,1
2,30899,30292,31358,77322,21320,-4504,-199,-713,-22,-24,26,143,525,-169,1,0,51,34,360,0,53298,1
2,30900,30287,31356,77323,21331,-4515,-219,-713,-16,-10,23,143,517,-157,1,0,51,34,400,0,53298,1
2,30902,30281,31362,77324,21342,-4518,-210,-712,-16,-15,24,152,514,-160,1,0,51,34,440,0,53298,1
2,30902,30297,31359,77325,21352,-4500,-204,-730,-19,-13,28,150,522,-180,1,0,51,34,480,0,53298,1
2,30901,30290,31359,77326,21362,-4514,-214,-732,-27,-18,26,142,518,-168,1,0,51,34,520,0,53298,1
2,30900,30290,31356,77327,21373,-4510,-212,-732,-12,-22,21,147,521,-165,1,0,51,34,560,0,53298,1
2,30902,30300,31361,77328,21384,-4525,-231,-715,-16,-27,17,146,524,-164,1,0,51,34,600,0,53298,1
2,30903,30292,31360,77329,21394,-4514,-203,-702,-24,-16,26,150,522,-170,1,0,51,34,640,0,53298,1
2,30898,30286,31359,77330,21405,-4506,-213,-717,-34,-18,17,151,521,-169,1,0,51,34,680,0,53298,1
2,30901,30292,31362,77331,21415,-4510,-216,-729,-34,-10,18,144,520,-170,1,0,51,34,720,0,53298,1
2,30900,30300,31359,77332,21426,-4519,-214,-744,-42,-11,10,155,519,-179,1,0,51,34,760,0,53298,1
2,30900,30298,31360,77333,21437,-4517,-214,-722,-48,-21,7,148,518,-168,1,0,51,34,800,0,53298,1
2,30899,30297,31359,77334,21447,-4512,-206,-724,-36,-27,2,148,522,-174,1,0,51,34,840,0,53298,1
2,30900,30298,31360,77335,21458,-4503,-209,-722,-42,-22,10,147,521,-173,1,0,51,34,880,0,53298,1
2,30899,30300,31357,77336,21469,-4512,-211,-718,-25,-9,26,160,520,-168,1,0,51,34,920,0,53298,1
2,30899,30300,31355,77337,21480,-4504,-211,-719,-20,-9,25,157,521,-181,1,0,51,34,960,0,53298,1
1,30900,30302,31360,77338,0,-4515,-217,-720,-26,-4,30,151,527,-175,1,0,51,35,0,0,53298,1
2,30901,30305,31361,77339,20776,-4525,-223,-723,-20,-8,15,152,518,-162,1,0,51,35,40,0,53298,1
2,30900,30302,31360,77340,20786,-4509,-206,-718,-27,-13,10,145,509,-167,1,0,51,35,80,0,53298,1
2,30899,30299,31361,77341,20797,-4517,-219,-728,-22,-11,25,151,525,-163,1,0,51,35,120,0,53298,1
2,30898,30299,31361,77342,20807,-4516,-222,-735,-5,-17,23,148,526,-170,1,0,51,35,160,0,53298,1
2,30901,30300,31357,77343,20818,-4531,-217,-727,-6,-6,33,158,524,-176,1,0,51,35,200,0,53298,1
2,30901,30308,31356,77344,20828,-4508,-206,-713,-18,-6,24,152,530,-172,1,0,51,35,240,0,53298,1
2,30902,30303,31359,77345,20838,-4527,-219,-725,-20,-11,25,150,516,-174,1,0,51,35,280,0,53298,1
2,30895,30308,31356,77346,20849,-4501,-208,-709,-15,-18,11,145,517,-181,1,0,51,35,320,0,53298,1
2,30895,30310,31360,77347,20861,-4513,-212,-722,-11,-17,18,145,523,-177,1,0,51,35,360,0,53298,1
2,30901,30308,31359,77348,20872,-4507,-204,-729,-26,-21,15,153,533,-177,1,0,51,35,400,0,53298,1
2,30899,30306,31359,77349,20884,-4515,-218,-743,-26,-20,25,150,520,-184,1,0,51,35,440,0,53298,1
2,30900,30306,31359,77350,20895,-4516,-213,-729,-17,-17,32,154,524,-172,1,0,51,35,480,0,53298,1
2,30899,30305,31358,77351,20907,-4508,-205,-715,-9,-15,32,147,519,-169,1,0,51,35,520,0,53298,1
2,30902,30305,31364,77352,20918,-4515,-220,-729,-16,-7,26,143,521,-167,1,0,51,35,560,0,53298,1
2,30898,30305,31360,77353,20929,-4522,-214,-729,-21,-14,23,143,525,-167,1,0,51,35,600,0,53298,1
2,30895,30307,31359,77354,20940,-4500,-206,-711,-22,-14,20,149,521,-173,1,0,51,35,640,0,53298,1
2,30893,30304,31360,77355,20952,-4519,-216,-734,-30,-17,15,155,521,-177,1,0,51,35,680,0,53298,1
2,30898,30302,31355,77356,20964,-4508,-211,-720,-20,-33,19,153,519,-171,1,0,51,35,720,0,53298,1
2,30900,30307,31356,77357,20975,-4535,-217,-720,-12,-24,31,146,522,-176,1,0,51,35,760,0,53298,1
2,30895,30310,31360,77358,20986,-4513,-199,-728,-21,-19,24,144,516,-172,1,0,51,35,800,0,53298,1
2,30896,30304,31355,77359,20996,-4531,-218,-718,-23,-5,22,147,523,-169,1,0,51,35,840,0,53298,1
2,30898,30308,31359,77360,21007,-4512,-218,-729,-13,-12,25,148,522,-178,1,0,51,35,880,0,53298,1
2,30898,30303,31359,77361,21018,-4504,-208,-739,-2,-15,27,151,523,-177,1,0,51,35,920,0,53298,1
2,30896,30310,31356,77362,21029,-4529,-219,-730,-20,-19,32,154,518,-176,1,0,51,35,960,0,53298,1
1,30895,30305,31361,77363,0,-4509,-209,-716,-15,-10,32,152,518,-172,1,0,51,36,0,0,53298,1
2,30897,30304,31357,77364,20317,-4518,-201,-727,-17,-20,25,144,516,-162,1,0,51,36,40,0,53298,1
2,30898,30306,31360,77365,20328,-4508,-203,-729,-13,-25,14,145,525,-169,1,0,51,36,80,0,53298,1
2,30896,30299,31359,77366,20339,-4504,-204,-721,-19,-24,16,159,523,-169,1,0,51,36,120,0,53298,1
2,30898,30301,31360,77367,20349,-4517,-212,-725,-12,-25,29,147,517,-175,1,0,51,36,160,0,53298,1
2,30897,30306,31357,77368,20360,-4523,-221,-724,-6,-12,22,151,519,-169,1,0,51,36,200,0,53298,1
2,30894,30305,31359,77369,20371,-4526,-221,-745,-13,-13,19,151,527,-165,1,0,51,36,240,0,53298,1
2,30897,30300,31355,77370,20382,-4510,-210,-725,-15,-8,19,147,529,-167,1,0,51,36,280,0,53298,1
2,30899,30301,31359,77371,20393,-4514,-211,-722,-15,-22,35,144,520,-168,1,0,51,36,320,0,53298,1
2,30900,30300,31356,77372,20405,-4517,-218,-725,-15,-26,25,153,517,-177,1,0,51,36,360,0,53298,1
2,30899,30300,31359,77373,20416,-4520,-212,-716,-7,-13,23,154,518,-172,1,0,51,36,400,0,53298,1
2,30898,30305,31355,77374,20427,-4507,-203,-743,-16,-13,17,154,522,-172,1,0,51,36,440,0,53298,1
2,30898,30303,31360,77375,20437,-4530,-219,-732,-15,-8,26,154,520,-172,1,0,51,36,480,0,53298,1
2,30900,30295,31359,77376,20447,-4517,-220,-732,-12,-8,21,143,529,-167,1,0,51,36,520,0,53298,1
2,30904,30299,31360,77377,20458,-4517,-214,-719,-9,-22,12,153,523,-165,1,0,51,36,560,0,53298,1
2,30901,30300,31358,77378,20468,-4513,-224,-732,-23,-21,27,157,519,-175,1,0,51,36,600,0,53298,1
2,30901,30299,31360,77379,20478,-4520,-216,-722,-19,-28,34,154,522,-168,1,0,51,36,640,0,53298,1
2,30902,30305,31360,77380,20489,-4525,-215,-726,0,-16,31,150,512,-176,1,0,51,36,680,0,53298,1
2,30899,30305,31360,77381,20499,-4513,-210,-731,11,4,24,149,517,-173,1,0,51,36,720,0,53298,1
2,30904,30306,31361,77382,20508,-4522,-223,-741,-25,-6,29,145,535,-167,1,0,51,36,760,0,53298,1
2,30905,30306,31362,77383,20518,-4503,-203,-737,-6,-25,27,152,520,-178,1,0,51,36,800,0,53298,1
2,30899,30297,31359,77384,20528,-4514,-211,-737,-16,-22,26,149,533,-163,1,0,51,36,840,0,53298,1
2,30899,30301,31355,77385,20538,-4521,-219,-729,-13,-19,31,152,528,-178,1,0,51,36,880,0,53298,1
2,30900,30298,31361,77386,20549,-4512,-207,-745,-25,-1,19,149,519,-169,1,0,51,36,920,0,53298,1
2,30905,30297,31358,77387,20559,-4529,-223,-739,-28,-9,17,151,515,-173,1,0,51,36,960,0,53298,1
1,30899,30296,31361,77388,0,-4504,-205,-725,-17,-26,12,155,511,-171,1,0,51,37,0,1,53298,1
2,30901,30297,31361,77389,19859,-4526,-223,-736,-25,-26,21,156,520,-180,1,0,51,37,40,1,53298,1
2,30901,30302,31362,77390,19869,-4524,-216,-731,-16,-21,25,155,533,-171,1,0,51,37,80,1,53298,1
2,30898,30305,31360,77391,19880,-4521,-216,-726,-18,-23,25,154,522,-172,1,0,51,37,120,1,53298,1
2,30899,30307,31358,77392,19891,-4518,-216,-725,-17,-18,22,152,518,-172,1,0,51,37,160,1,53298,1
2,30899,30305,31359,77393,19901,-4528,-221,-728,-19,-25,30,150,522,-174,1,0,51,37,200,1,53298,1
2,30897,30305,31364,77394,19910,-4508,-194,-721,-24,-23,32,146,524,-170,1,0,51,37,240,1,53298,1
2,30897,30323,31361,77395,19920,-4515,-216,-724,-6,-14,20,155,517,-173,1,0,51,37,280,1,53298,1
2,30895,30315,31360,77396,19930,-4514,-210,-734,-15,1,12,147,519,-159,1,0,51,37,320,1,53298,1
2,30896,30322,31363,77397,19941,-4516,-210,-736,-7,-4,20,153,523,-171,1,0,51,37,360,1,53298,1
2,30898,30319,31365,77398,19952,-4520,-208,-718,-15,5,18,148,534,-166,1,0,51,37,400,1,53298,1
2,30895,30317,31365,77399,19963,-4528,-184,-717,-59,-18,12,146,524,-174,1,0,51,37,440,1,53298,1
2,30892,30333,31361,77400,19974,-4556,-155,-697,-408,-71,-106,154,528,-178,1,0,51,37,480,1,53298,1
2,30889,30341,31360,77401,19984,-4580,-39,-527,-1132,-186,-249,153,515,-175,1,0,51,37,520,1,53298,1
2,30888,30345,31355,77402,19995,-4569,-202,-673,-2724,-506,-239,154,518,-176,1,0,51,37,560,1,53298,1
2,30887,30351,31352,77403,20005,-4444,-299,-779,-4334,-953,-219,160,518,-172,1,0,51,37,600,1,53298,1
2,30890,30344,31352,77404,20016,-4444,-294,-804,-3963,-855,-217,169,519,-167,1,0,51,37,640,1,53298,1
2,30888,30339,31352,77405,20026,-4510,-241,-673,-1623,-441,-41,165,519,-165,1,0,51,37,680,1,53298,1
2,30884,30345,31352,77406,20036,-4569,-147,-601,-362,-286,24,164,508,-162,1,0,51,37,720,1,53298,1
2,30883,30332,31345,77407,20046,-4599,-30,-494,-2035,-490,7,155,513,-149,1,0,51,37,760,1,53298,1
2,30875,30348,31342,77408,20056,-4555,-135,-607,-4170,-706,-53,160,518,-156,1,0,51,37,800,1,53298,1
2,30876,30332,31340,77409,20067,-4609,-81,-530,-4852,-561,-297,167,511,-161,1,0,51,37,840,1,53298,1
2,30870,30296,31339,77410,20077,-4416,-425,-459,-4181,-1041,-158,168,516,-164,1,0,51,37,880,1,53298,1
2,30874,30225,31338,77411,20087,-4378,-426,-788,-2310,-578,-19,176,504,-162,1,0,51,37,920,1,53298,1
2,30874,30152,31343,77412,20097,-4446,-327,-503,528,100,91,163,505,-161,1,0,51,37,960,1,53298,1
1,30880,30090,31343,77413,0,-4542,-163,-438,1668,167,292,177,513,-171,1,0,51,38,0,0,53298,1
2,30878,30072,31345,77414,19400,-4581,-68,-410,2855,190,506,157,517,-159,1,0,51,38,40,0,53298,1
2,30880,30103,31339,77415,19411,-4570,-82,-541,2522,65,438,158,514,-154,1,0,51,38,80,0,53298,1
2,30881,30111,31337,77416,19421,-4533,-154,-570,2082,194,415,157,517,-149,1,0,51,38,120,0,53298,1
2,30884,30090,31342,77417,19430,-4547,-57,-516,2027,220,292,166,508,-162,1,0,51,38,160,0,53298,1
2,30888,30083,31339,77418,19439,-4541,-157,-580,1117,188,155,153,513,-155,1,0,51,38,200,0,53298,1
2,30888,30050,31340,77419,19448,-4529,-113,-559,807,181,69,151,511,-149,1,0,51,38,240,0,53298,1
2,30889,30007,31339,77420,19458,-4529,-141,-560,654,224,31,157,519,-155,1,0,51,38,280,0,53298,1
2,30886,30016,31339,77421,19468,-4551,-152,-577,418,236,-20,154,518,-156,1,0,51,38,320,0,53298,1
2,30888,30014,31339,77422,19477,-4533,-136,-575,59,156,-110,169,517,-169,1,0,51,38,360,0,53298,1
2,30884,30005,31338,77423,19487,-4528,-145,-564,-174,86,-119,162,506,-150,1,0,51,38,400,0,53298,1
2,30884,30043,31340,77424,19497,-4553,-145,-597,-373,7,-151,171,513,-163,1,0,51,38,440,0,53298,1
2,30883,30046,31340,77425,19506,-4535,-184,-598,-438,-103,-93,165,519,-165,1,0,51,38,480,0,53298,1
2,30882,30045,31342,77426,19516,-4524,-171,-597,-275,-105,-63,154,514,-150,1,0,51,38,520,0,53298,1
2,30883,30042,31336,77427,19526,-4520,-196,-580,-190,-24,-36,166,516,-164,1,0,51,38,560,0,53298,1
2,30886,30045,31339,77428,19535,-4538,-168,-580,42,41,34,166,518,-172,1,0,51,38,600,0,53298,1
2,30887,30036,31338,77429,19545,-4525,-164,-583,112,46,55,163,513,-157,1,0,51,38,640,0,53298,1
2,30885,30062,31340,77430,19555,-4534,-145,-571,144,13,63,155,511,-167,1,0,51,38,680,0,53298,1
2,30889,30084,31337,77431,19566,-4534,-167,-566,81,-17,68,158,516,-162,1,0,51,38,720,0,53298,1
2,30889,30058,31340,77432,19575,-4546,-146,-583,149,-20,111,168,516,-166,1,0,51,38,760,0,53298,1
2,30887,30064,31339,77433,19585,-4533,-163,-586,93,-44,70,157,515,-167,1,0,51,38,800,0,53298,1
2,30881,29941,31340,77434,19595,-4539,-136,-571,57,-40,75,167,517,-169,1,0,51,38,840,0,53298,1
2,30883,30022,31339,77435,19605,-4535,-169,-583,-1,-33,64,166,518,-166,1,0,51,38,880,0,53298,1
2,30887,30032,31337,77436,19615,-4537,-145,-580,-11,-39,40,163,519,-163,1,0,51,38,920,0,53298,1
2,30878,29758,31339,77437,19626,-4510,-378,-450,-531,-127,51,167,511,-171,1,0,51,38,960,0,53298,1
1,30886,29921,31363,77438,0,-4654,-555,-95,-2216,-368,-30,166,516,-156,1,0,51,39,0,1,53298,1
2,30905,29914,31366,77439,18942,-4847,-285,-259,-2565,-234,-298,167,513,-161,1,0,51,39,40,1,53298,1
2,30925,29949,31378,77440,18954,-4731,-266,-775,-1666,-677,-629,167,513,-155,1,0,51,39,80,1,53298,1
2,30977,30068,31411,77441,18965,-4417,-82,-361,-585,-716,-672,172,516,-166,1,0,51,39,120,1,53298,1
2,31105,31880,31486,77442,18976,-4593,-291,-441,-852,-571,-217,173,513,-171,1,0,51,39,160,1,53298,1
2,31096,31349,31465,77443,18989,-4591,-71,-551,-710,-848,-358,190,512,-166,1,0,51,39,200,1,53298,1
2,31346,30454,31874,77444,19002,-4195,-101,-397,-785,-1435,-514,175,513,-165,1,0,51,39,240,1,53298,1
2,31133,30301,31446,77445,19016,-4371,11,-636,-1365,-1535,-896,185,517,-163,1,0,51,39,280,1,53298,1
2,31220,30642,31547,77446,19030,-4532,-50,-553,-535,-1280,-575,189,509,-163,1,0,51,39,320,1,53298,1
2,32209,31076,32481,77447,19046,-4533,-201,-447,-440,-915,-368,184,504,-160,1,0,51,39,360,1,53298,1
2,32111,30819,32495,77448,19062,-4480,-124,-438,-250,-677,-330,192,516,-154,1,0,51,39,400,1,53298,1
2,32038,30822,32430,77449,19077,-4528,-191,-435,19,-474,-193,188,520,-162,1,0,51,39,440,1,53298,1
2,32025,30808,32345,77450,19093,-4549,-163,-401,161,-230,-93,185,507,-143,1,0,51,39,480,1,53298,1
2,32261,30881,32550,77451,19109,-4565,-263,-295,44,-23,-44,187,519,-157,1,0,51,39,520,1,53298,1
2,32254,30876,32568,77452,19123,-4584,-224,-313,20,-87,49,192,512,-158,1,0,51,39,560,1,53298,1
2,32232,30838,32544,77453,19139,-4543,-210,-328,164,-88,60,184,514,-154,1,0,51,39,600,1,53298,1
2,32137,30780,32434,77454,19154,-4596,-234,-280,303,-23,55,189,517,-157,1,0,51,39,640,1,53298,1
2,32135,30757,32401,77455,19169,-4576,-257,-333,10,-12,57,192,514,-154,1,0,51,39,680,1,53298,1
2,32109,30753,32416,77456,19184,-4567,-244,-348,111,-12,61,187,517,-153,1,0,51,39,720,1,53298,1
2,32139,30771,32439,77457,19200,-4563,-217,-317,239,3,51,181,515,-147,1,0,51,39,760,1,53298,1
2,32117,30750,32406,77458,19216,-4578,-234,-349,13,0,17,188,508,-158,1,0,51,39,800,1,53298,1
2,31992,30658,32257,77459,19232,-4578,-308,-301,-44,-18,20,186,520,-152,1,0,51,39,840,1,53298,1
2,31899,30578,32197,77460,19248,-4563,-217,-343,3,-84,88,184,514,-146,1,0,51,39,880,1,53298,1
2,32000,30645,32285,77461,19263,-4577,-241,-334,-56,-50,48,185,517,-141,1,0,51,39,920,1,53298,1
2,32137,30770,32418,77462,19278,-4587,-257,-300,-92,-53,53,188,514,-156,1,0,51,39,960,1,53298,1
1,32122,30735,32383,77463,0,-4581,-257,-321,-21,-72,75,179,517,-151,1,0,51,40,0,1,53298,1
2,32140,30763,32416,77464,18487,-4566,-233,-325,-76,-38,53,194,510,-150,1,0,51,40,40,1,53298,1
2,32175,30789,32463,77465,18503,-4579,-260,-288,-13,-32,35,188,518,-154,1,0,51,40,80,1,53298,1
2,32189,30795,32458,77466,18519,-4551,-241,-355,-26,-65,70,194,514,-160,1,0,51,40,120,1,53298,1
2,32236,30843,32501,77467,18534,-4567,-233,-322,-48,-62,49,179,521,-153,1,0,51,40,160,1,53298,1
2,32192,30803,32435,77468,18549,-4583,-252,-326,-69,-84,54,185,513,-135,1,0,51,40,200,1,53298,1
2,32144,30755,32409,77469,18565,-4564,-257,-293,-85,-53,28,184,508,-146,1,0,51,40,240,1,53298,1
2,31930,30590,32200,77470,18580,-4577,-226,-331,-83,-62,60,186,504,-152,1,0,51,40,280,1,53298,1
2,31860,30531,32125,77471,18596,-4570,-254,-317,23,-12,15,194,508,-148,1,0,51,40,320,1,53298,1
2,31790,30481,32054,77472,18612,-4576,-231,-338,-29,17,19,180,512,-146,1,0,51,40,360,1,53298,1
2,31719,30420,31961,77473,18628,-4576,-245,-313,6,28,-11,192,512,-146,1,0,51,40,400,1,53298,1
2,31685,30414,31929,77474,18643,-4575,-259,-329,-6,13,13,194,510,-156,1,0,51,40,440,1,53298,1
2,31681,30389,31915,77475,18660,-4588,-270,-297,27,31,-6,195,517,-147,1,0,51,40,480,1,53298,1
2,31675,30381,31904,77476,18676,-4577,-278,-331,-33,7,11,191,517,-141,1,0,51,40,520,1,53298,1
2,31645,30358,31873,77477,18692,-4558,-250,-311,-68,-12,25,180,514,-142,1,0,51,40,560,1,53298,1
2,31628,30342,31861,77478,18708,-4577,-239,-344,-30,-49,87,202,508,-160,1,0,51,40,600,1,53298,1
2,31628,30348,31857,77479,18723,-4579,-259,-324,-28,-34,76,186,520,-150,1,0,51,40,640,1,53298,1
2,31615,30342,31849,77480,18740,-4590,-238,-316,-15,-32,69,178,500,-148,1,0,51,40,680,1,53298,1
2,31608,30339,31840,77481,18756,-4580,-243,-345,-21,-7,40,184,508,-140,1,0,51,40,720,1,53298,1
2,31603,30330,31832,77482,18772,-4591,-251,-338,-2,-21,58,192,510,-152,1,0,51,40,760,1,53298,1
2,31595,30318,31824,77483,18788,-4554,-204,-346,37,10,7,188,516,-148,1,0,51,40,800,1,53298,1
2,31602,30332,31823,77484,18804,-4600,-263,-311,35,26,-11,193,509,-161,1,0,51,40,840,1,53298,1
2,31576,30318,31807,77485,18820,-4570,-228,-350,37,26,4,198,510,-156,1,0,51,40,880,1,53298,1
2,31586,30318,31821,77486,18835,-4574,-245,-341,70,73,-32,194,514,-152,1,0,51,40,920,1,53298,1
2,31579,30312,31809,77487,18851,-4569,-211,-372,128,86,-25,191,507,-149,1,0,51,40,960,1,53298,1
1,31527,30317,31771,77488,0,-4497,-69,-467,399,295,-151,185,511,-145,1,0,51,41,0,0,53298,1
2,31468,30338,31700,77489,18029,-4637,-260,-399,585,355,-173,187,497,-147,1,0,51,41,40,0,53298,1
2,31655,33260,31901,77490,18043,-4227,424,-1058,448,732,-298,189,517,-151,1,0,51,41,80,0,53298,1
2,31974,34709,32392,77491,18055,-3703,733,-945,1481,1986,11,189,509,-147,1,0,51,41,120,0,53298,1
2,31862,32871,32197,77492,18065,-4421,-58,-783,2914,2151,1929,178,506,-152,1,0,51,41,160,0,53298,1
2,31812,30630,32246,77493,18075,-5083,-570,-685,5905,1306,2979,168,510,-158,1,0,51,41,200,0,53298,1
2,31296,32214,31813,77494,18086,-5635,-1676,435,4881,1011,2164,158,514,-150,1,0,51,41,240,0,53298,1
2,31036,30722,31559,77495,18097,-4648,-408,786,1883,-252,192,156,516,-156,1,0,51,41,280,0,53298,1
2,31593,31665,32209,77496,18108,-4253,290,-797,963,-652,338,157,515,-157,1,0,51,41,320,0,53298,1
2,31018,30416,31485,77497,18119,-4505,-114,-1046,399,1208,187,146,514,-148,1,0,51,41,360,0,53298,1
2,30975,29979,31437,77498,18129,-4653,-272,-420,-368,560,17,158,518,-164,1,0,51,41,400,0,53298,1
2,30956,29928,31418,77499,18139,-4526,-77,-479,-54,266,-120,154,524,-160,1,0,51,41,440,0,53298,1
2,30989,29976,31454,77500,18148,-4502,-256,-703,-127,634,-216,153,517,-159,1,0,51,41,480,0,53298,1
2,31039,30044,31504,77501,18158,-4567,-180,-709,361,214,-65,151,511,-171,1,0,51,41,520,0,53298,1
2,31138,30278,31597,77502,18169,-4508,-113,-551,364,-318,42,149,515,-161,1,0,51,41,560,0,53298,1
2,31328,30579,31834,77503,18180,-4509,-181,-540,-94,-187,37,154,512,-166,1,0,51,41,600,0,53298,1
2,31562,30953,32032,77504,18190,-4540,-166,-594,-110,-39,80,150,522,-158,1,0,51,41,640,0,53298,1
2,31741,31372,32237,77505,18201,-4526,-150,-570,18,20,48,147,519,-161,1,0,51,41,680,0,53298,1
2,31711,31305,32170,77506,18211,-4534,-181,-598,25,91,2,161,515,-165,1,0,51,41,720,0,53298,1
2,31681,31052,32159,77507,18222,-4529,-175,-612,66,58,19,160,516,-166,1,0,51,41,760,0,53298,1
2,31718,31140,32192,77508,18232,-4511,-147,-594,28,3,20,156,514,-158,1,0,51,41,800,0,53298,1
2,31698,30962,32185,77509,18242,-4530,-166,-620,-17,-15,18,159,515,-155,1,0,51,41,840,0,53298,1
2,31569,30765,32055,77510,18252,-4532,-177,-589,-6,-2,24,156,516,-162,1,0,51,41,880,0,53298,1
2,31498,30657,31987,77511,18263,-4535,-164,-605,-2,33,-3,152,516,-156,1,0,51,41,920,0,53298,1
2,31468,30623,31952,77512,18275,-4533,-181,-607,-25,38,-7,148,518,-154,1,0,51,41,960,0,53298,1
1,31454,30567,31946,77513,0,-4528,-169,-598,-51,1,11,148,522,-152,1,0,51,42,0,1,53298,1
2,31435,30552,31926,77514,17569,-4531,-176,-596,-41,-29,40,153,515,-153,1,0,51,42,40,1,53298,1
2,31453,30505,31941,77515,17580,-4532,-169,-600,-12,-38,40,157,521,-165,1,0,51,42,80,1,53298,1
2,31444,30454,31921,77516,17591,-4528,-160,-588,-2,-6,30,157,517,-163,1,0,51,42,120,1,53298,1
2,31467,30441,31951,77517,17601,-4533,-164,-600,-21,27,4,153,517,-155,1,0,51,42,160,1,53298,1
2,31456,30426,31935,77518,17612,-4523,-164,-605,-27,21,-5,158,512,-162,1,0,51,42,200,1,53298,1
2,31435,30410,31911,77519,17623,-4540,-183,-608,-24,-8,22,151,521,-159,1,0,51,42,240,1,53298,1
2,31420,30398,31906,77520,17633,-4541,-182,-596,-16,-37,35,161,515,-159,1,0,51,42,280,1,53298,1
2,31405,30378,31886,77521,17644,-4527,-162,-590,-12,-28,39,153,519,-159,1,0,51,42,320,1,53298,1
2,31382,30350,31842,77522,17654,-4525,-161,-591,-24,-7,25,151,515,-153,1,0,51,42,360,1,53298,1
2,31358,30340,31840,77523,17664,-4536,-163,-602,-19,11,14,152,508,-164,1,0,51,42,400,1,53298,1
2,31339,30347,31830,77524,17674,-4526,-167,-607,-17,-1,16,150,512,-154,1,0,51,42,440,1,53298,1
2,31341,30339,31817,77525,17684,-4524,-165,-594,-11,-10,22,153,513,-161,1,0,51,42,480,1,53298,1
2,31286,30296,31769,77526,17694,-4529,-163,-605,-14,-16,24,154,524,-160,1,0,51,42,520,1,53298,1
2,31245,30277,31721,77527,17703,-4521,-169,-613,-15,-7,27,165,517,-163,1,0,51,42,560,1,53298,1
2,31211,30234,31690,77528,17712,-4540,-181,-603,-18,4,28,144,510,-154,1,0,51,42,600,1,53298,1
2,31205,30223,31680,77529,17722,-4529,-172,-618,-23,5,24,149,517,-151,1,0,51,42,640,1,53298,1
2,31203,30225,31674,77530,17731,-4539,-172,-600,1,-1,16,149,513,-161,1,0,51,42,680,1,53298,1
2,31185,30217,31660,77531,17739,-4535,-171,-605,-22,-18,23,157,515,-165,1,0,51,42,720,1,53298,1
2,31177,30218,31655,77532,17749,-4535,-169,-615,-21,-16,30,152,516,-162,1,0,51,42,760,1,53298,1
2,31163,30185,31640,77533,17758,-4520,-167,-599,-11,-1,27,155,517,-169,1,0,51,42,800,1,53298,1
2,31149,30177,31625,77534,17767,-4540,-176,-597,-2,-1,27,163,521,-169,1,0,51,42,840,1,53298,1
2,31138,30163,31611,77535,17776,-4527,-178,-606,-18,1,22,152,510,-154,1,0,51,42,880,1,53298,1
2,31141,30188,31614,77536,17784,-4529,-183,-598,-15,-18,22,154,514,-166,1,0,51,42,920,1,53298,1
2,31136,30200,31612,77537,17794,-4541,-187,-601,-8,-12,18,147,509,-161,1,0,51,42,960,1,53298,1
1,31122,30174,31596,77538,0,-4531,-167,-599,-5,-20,27,141,505,-159,1,0,51,43,0,0,53298,1
2,31119,30149,31593,77539,17112,-4527,-170,-597,-13,-10,29,160,512,-166,1,0,51,43,40,0,53298,1
2,31116,30191,31595,77540,17121,-4530,-172,-597,-3,-8,33,154,514,-162,1,0,51,43,80,0,53298,1
2,31120,30194,31595,77541,17131,-4531,-170,-594,-14,-13,29,154,518,-166,1,0,51,43,120,0,53298,1
2,31115,30211,31595,77542,17142,-4519,-163,-606,-18,-28,23,155,515,-161,1,0,51,43,160,0,53298,1
2,31112,30212,31591,77543,17153,-4538,-168,-597,-8,-15,24,152,514,-160,1,0,51,43,200,0,53298,1
2,31119,30233,31591,77544,17162,-4539,-171,-607,-21,-14,19,161,513,-163,1,0,51,43,240,0,53298,1
2,31110,30251,31592,77545,17171,-4536,-181,-592,-24,-17,26,153,519,-165,1,0,51,43,280,0,53298,1
2,31109,30248,31590,77546,17181,-4539,-151,-602,-23,-13,21,150,522,-162,1,0,51,43,320,0,53298,1
2,31114,30257,31589,77547,17191,-4533,-171,-570,-246,-62,-14,152,510,-158,1,0,51,43,360,0,53298,1
2,31115,30255,31600,77548,17200,-4539,-133,-569,-485,-137,15,157,515,-165,1,0,51,43,400,0,53298,1
2,31131,30389,31620,77549,17210,-4655,-350,-209,-1866,-319,252,153,517,-161,1,0,51,43,440,0,53298,1
2,31150,30439,31614,77550,17220,-4704,-645,-289,-3520,-447,-168,153,515,-155,1,0,51,43,480,0,53298,1
2,31212,30485,31696,77551,17231,-4972,-658,-488,-4544,-562,-806,165,513,-159,1,0,51,43,520,0,53298,1
2,31393,30493,31795,77552,17242,-4696,60,-359,-2916,-898,-1020,167,505,-163,1,0,51,43,560,0,53298,1
2,31895,30685,32310,77553,17253,-4420,-200,-631,-1383,-813,-467,178,506,-172,1,0,51,43,600,0,53298,1
2,31227,30591,31542,77554,17266,-4223,73,-661,-798,-1047,-357,186,514,-162,1,0,51,43,640,0,53298,1
2,31053,31806,31414,77555,17279,-4360,123,-659,-922,-973,-559,169,523,-157,1,0,51,43,680,0,53298,1
2,31076,32007,31416,77556,17293,-4464,-59,-543,-621,-619,-448,189,515,-155,1,0,51,43,720,0,53298,1
2,31112,31701,31456,77557,17307,-4610,-180,-475,-108,-547,-217,182,516,-150,1,0,51,43,760,0,53298,1
2,31149,31566,31487,77558,17322,-4550,-197,-446,-199,-531,-209,189,513,-159,1,0,51,43,800,0,53298,1
2,31128,31619,31464,77559,17337,-4545,-159,-444,-452,-549,-133,187,517,-153,1,0,51,43,840,0,53298,1
2,31123,31380,31446,77560,17352,-4564,-177,-394,-312,-497,15,187,509,-153,1,0,51,43,880,0,53298,1
2,31138,31019,31450,77561,17367,-4536,-174,-442,-242,-349,66,182,510,-158,1,0,51,43,920,0,53298,1
2,31153,31164,31467,77562,17382,-4549,-195,-395,-91,-98,34,188,510,-154,1,0,51,43,960,0,53298,1
1,31161,30990,31474,77563,0,-4589,-220,-370,-16,4,23,180,514,-148,1,0,51,44,0,0,53298,1
2,31152,31636,31466,77564,16657,-4567,-202,-354,52,12,12,180,512,-148,1,0,51,44,40,0,53298,1
2,31147,31687,31454,77565,16672,-4553,-198,-370,32,49,-28,190,512,-160,1,0,51,44,80,0,53298,1
2,31139,31941,31456,77566,16686,-4593,-266,-372,-8,55,-23,191,513,-159,1,0,51,44,120,0,53298,1
2,31141,32019,31455,77567,16701,-4567,-241,-359,1,-26,47,180,516,-154,1,0,51,44,160,0,53298,1
2,31136,32022,31450,77568,16716,-4552,-189,-394,-19,-65,92,191,505,-159,1,0,51,44,200,0,53298,1
2,31136,31999,31451,77569,16731,-4558,-207,-399,-97,-21,27,192,514,-158,1,0,51,44,240,0,53298,1
2,31141,31760,31454,77570,16745,-4569,-237,-373,-79,-28,15,188,514,-152,1,0,51,44,280,0,53298,1
2,31140,31678,31459,77571,16760,-4560,-220,-377,-83,-41,27,190,518,-160,1,0,51,44,320,0,53298,1
2,31143,31811,31462,77572,16775,-4559,-208,-382,-50,-17,39,183,511,-153,1,0,51,44,360,0,53298,1
2,31145,31796,31464,77573,16790,-4571,-235,-375,42,5,34,181,507,-145,1,0,51,44,400,0,53298,1
2,31150,31790,31464,77574,16805,-4561,-213,-360,-11,16,20,186,508,-156,1,0,51,44,440,0,53298,1
2,31150,31745,31467,77575,16819,-4568,-217,-381,-14,9,24,178,510,-162,1,0,51,44,480,0,53298,1
2,31154,31742,31469,77576,16834,-4591,-243,-355,-24,-17,32,188,508,-160,1,0,51,44,520,0,53298,1
2,31152,31716,31470,77577,16849,-4557,-209,-373,-54,-35,42,192,520,-154,1,0,51,44,560,0,53298,1
2,31147,31768,31474,77578,16863,-4564,-224,-347,-11,-16,22,184,508,-146,1,0,51,44,600,0,53298,1
2,31153,31617,31474,77579,16877,-4565,-209,-362,0,-17,35,179,507,-159,1,0,51,44,640,0,53298,1
2,31155,31526,31474,77580,16892,-4556,-225,-380,-20,4,34,196,516,-156,1,0,51,44,680,0,53298,1
2,31163,31435,31476,77581,16906,-4562,-227,-345,4,12,21,185,507,-161,1,0,51,44,720,0,53298,1
2,31160,31419,31480,77582,16921,-4570,-245,-374,-13,-14,42,183,517,-149,1,0,51,44,760,0,53298,1
2,31165,31460,31484,77583,16935,-4577,-217,-371,28,-31,62,184,514,-152,1,0,51,44,800,0,53298,1
2,31169,31453,31487,77584,16949,-4573,-224,-366,-41,-48,68,186,514,-166,1,0,51,44,840,0,53298,1
2,31174,31275,31489,77585,16963,-4571,-233,-376,-56,-54,69,182,510,-146,1,0,51,44,880,0,53298,1
2,31174,31328,31492,77586,16977,-4579,-240,-363,38,-35,80,183,513,-161,1,0,51,44,920,0,53298,1
2,31178,31348,31490,77587,16992,-4551,-184,-366,22,-35,71,190,504,-158,1,0,51,44,960,0,53298,1
1,31180,31307,31495,77588,0,-4565,-212,-379,-39,-24,55,196,510,-158,1,0,51,45,0,0,53298,1
2,31186,31248,31495,77589,16199,-4574,-228,-380,6,-38,57,178,514,-144,1,0,51,45,40,0,53298,1
2,31186,31206,31495,77590,16213,-4575,-223,-365,-12,-42,54,185,513,-161,1,0,51,45,80,0,53298,1
2,31191,31180,31495,77591,16228,-4575,-222,-380,-70,-76,68,187,513,-163,1,0,51,45,120,0,53298,1
2,31193,31193,31498,77592,16242,-4552,-205,-351,-15,-63,66,190,510,-154,1,0,51,45,160,0,53298,1
2,31197,31124,31500,77593,16256,-4567,-216,-359,-27,-57,81,181,503,-155,1,0,51,45,200,0,53298,1
2,31204,31190,31505,77594,16269,-4578,-232,-366,-4,-62,79,180,516,-150,1,0,51,45,240,0,53298,1
2,31209,31146,31513,77595,16283,-4578,-231,-364,-19,-97,88,187,511,-155,1,0,51,45,280,0,53298,1
2,31212,31097,31519,77596,16296,-4552,-197,-384,-36,-99,67,182,514,-160,1,0,51,45,320,0,53298,1
2,31217,31130,31518,77597,16310,-4561,-192,-377,-17,-49,39,182,518,-154,1,0,51,45,360,0,53298,1
2,31220,31109,31528,77598,16323,-4553,-183,-380,56,34,-10,175,513,-155,1,0,51,45,400,0,53298,1
2,31209,30945,31522,77599,16336,-4551,-177,-424,34,128,-96,182,512,-144,1,0,51,45,440,0,53298,1
2,31164,31757,31481,77600,16348,-4349,186,-877,137,503,-343,185,515,-153,1,0,51,45,480,0,53298,1
2,31006,32136,31397,77601,16360,-3785,752,-1033,787,1709,-555,180,508,-150,1,0,51,45,520,0,53298,1
2,31021,31857,31436,77602,16370,-4337,336,-775,2290,2028,1051,177,509,-155,1,0,51,45,560,0,53298,1
2,31024,32170,31541,77603,16379,-4575,-450,-727,4956,1183,2463,165,515,-155,1,0,51,45,600,0,53298,1
2,31015,33060,31524,77604,16388,-5898,-853,166,4872,1026,2617,154,510,-152,1,0,51,45,640,0,53298,1
2,31654,34069,32255,77605,16399,-4766,-1318,1194,1280,10,121,154,524,-150,1,0,51,45,680,0,53298,1
2,31715,32796,32207,77606,16409,-4145,627,-725,-1254,-948,-292,156,520,-156,1,0,51,45,720,0,53298,1
2,31727,32472,32205,77607,16418,-4416,-55,-1074,-2430,1338,-143,159,505,-155,1,0,51,45,760,0,53298,1
2,31722,32416,32216,77608,16426,-4670,-476,-356,-1258,329,-100,154,508,-150,1,0,51,45,800,0,53298,1
2,31708,31374,32195,77609,16435,-4516,-72,-348,-555,323,-71,151,517,-161,1,0,51,45,840,0,53298,1
2,31710,31496,32185,77610,16444,-4461,-264,-748,1230,451,96,158,516,-166,1,0,51,45,880,0,53298,1
2,31717,31122,32191,77611,16453,-4589,-85,-723,1909,99,263,145,519,-167,1,0,51,45,920,0,53298,1
2,31723,30833,32218,77612,16462,-4544,-94,-426,1145,-244,145,156,510,-164,1,0,51,45,960,0,53298,1
1,31735,30703,32224,77613,0,-4516,-154,-594,224,-55,112,163,515,-161,1,0,51,46,0,1,53298,1
2,31761,30652,32252,77614,15740,-4533,-170,-617,157,61,151,144,520,-158,1,0,51,46,40,1,53298,1
2,31758,30654,32255,77615,15749,-4537,-91,-529,465,18,142,153,517,-159,1,0,51,46,80,1,53298,1
2,31765,30688,32250,77616,15759,-4531,-129,-587,218,50,50,159,517,-155,1,0,51,46,120,1,53298,1
2,31760,30696,32250,77617,15768,-4535,-136,-604,40,9,44,160,512,-158,1,0,51,46,160,1,53298,1
2,31765,30731,32259,77618,15776,-4532,-132,-574,5,-42,41,146,516,-150,1,0,51,46,200,1,53298,1
2,31421,30592,31866,77619,15785,-4527,-153,-588,43,-15,42,155,511,-157,1,0,51,46,240,1,53298,1
2,31270,30515,31758,77620,15794,-4522,-134,-588,153,-12,57,158,510,-164,1,0,51,46,280,1,53298,1
2,31227,30482,31691,77621,15803,-4539,-132,-569,124,29,42,154,514,-164,1,0,51,46,320,1,53298,1
2,31184,30460,31659,77622,15812,-4526,-132,-614,-11,37,14,157,513,-155,1,0,51,46,360,1,53298,1
2,31150,30471,31627,77623,15822,-4525,-145,-604,-31,-11,22,154,512,-158,1,0,51,46,400,1,53298,1
2,31135,30463,31615,77624,15831,-4541,-151,-581,-8,-51,36,159,511,-165,1,0,51,46,440,1,53298,1
2,31114,30459,31589,77625,15840,-4527,-138,-576,25,-44,41,154,512,-156,1,0,51,46,480,1,53298,1
2,31106,30449,31583,77626,15850,-4522,-132,-595,3,-10,32,151,517,-165,1,0,51,46,520,1,53298,1
2,31095,30433,31569,77627,15860,-4533,-146,-588,-15,15,10,153,517,-165,1,0,51,46,560,1,53298,1
2,31097,30445,31576,77628,15870,-4525,-144,-612,-15,7,12,154,518,-152,1,0,51,46,600,1,53298,1
2,31112,30475,31585,77629,15880,-4521,-138,-604,-7,-27,28,155,513,-165,1,0,51,46,640,1,53298,1
2,31111,30486,31583,77630,15890,-4522,-150,-588,-8,-38,30,156,528,-164,1,0,51,46,680,1,53298,1
2,31116,30488,31587,77631,15900,-4517,-128,-580,-15,-27,26,160,520,-156,1,0,51,46,720,1,53298,1
2,31120,30487,31596,77632,15911,-4530,-144,-597,-21,-10,19,156,516,-156,1,0,51,46,760,1,53298,1
2,31125,30484,31606,77633,15921,-4534,-148,-590,2,6,25,150,508,-160,1,0,51,46,800,1,53298,1
2,31127,30497,31606,77634,15931,-4524,-145,-591,-13,-12,19,157,513,-163,1,0,51,46,840,1,53298,1
2,31135,30510,31614,77635,15940,-4530,-136,-582,-18,-25,22,157,515,-159,1,0,51,46,880,1,53298,1
2,31121,30515,31596,77636,15949,-4542,-142,-574,-23,-14,15,156,508,-166,1,0,51,46,920,1,53298,1
2,31113,30511,31592,77637,15959,-4541,-137,-582,-24,-9,5,161,515,-161,1,0,51,46,960,1,53298,1
1,31112,30522,31594,77638,0,-4538,-139,-579,-19,-10,18,154,520,-160,1,0,51,47,0,1,53298,1
2,31110,30525,31587,77639,15284,-4522,-132,-593,-18,-24,18,160,510,-162,1,0,51,47,40,1,53298,1
2,31109,30524,31586,77640,15293,-4534,-146,-591,-13,-15,25,160,514,-156,1,0,51,47,80,1,53298,1
2,31108,30513,31588,77641,15303,-4531,-139,-593,-9,-10,34,160,506,-166,1,0,51,47,120,1,53298,1
2,31102,30525,31585,77642,15313,-4517,-130,-587,-14,-6,14,159,525,-167,1,0,51,47,160,1,53298,1
2,31099,30523,31581,77643,15323,-4535,-148,-581,-30,-12,13,153,509,-163,1,0,51,47,200,1,53298,1
2,31100,30525,31582,77644,15333,-4532,-152,-571,-53,-6,10,154,522,-162,1,0,51,47,240,1,53298,1
2,31096,30532,31582,77645,15343,-4543,-153,-586,-20,-1,27,162,518,-158,1,0,51,47,280,1,53298,1
2,31108,30533,31587,77646,15353,-4543,-145,-594,19,-19,22,155,519,-153,1,0,51,47,320,1,53298,1
2,31110,30518,31590,77647,15364,-4530,-146,-588,13,-15,33,147,513,-169,1,0,51,47,360,1,53298,1
2,31106,30532,31586,77648,15373,-4525,-139,-594,-19,-15,22,147,513,-159,1,0,51,47,400,1,53298,1
2,31110,30532,31588,77649,15383,-4529,-138,-580,-17,-9,15,160,512,-160,1,0,51,47,440,1,53298,1
2,31115,30551,31596,77650,15393,-4544,-145,-589,-8,-4,18,153,509,-167,1,0,51,47,480,1,53298,1
2,31117,30544,31592,77651,15402,-4536,-150,-567,-4,-8,23,157,509,-161,1,0,51,47,520,1,53298,1
2,31107,30546,31583,77652,15413,-4531,-135,-592,-7,-14,30,153,517,-171,1,0,51,47,560,1,53298,1
2,31098,30532,31581,77653,15422,-4524,-127,-594,-9,-12,32,152,514,-164,1,0,51,47,600,1,53298,1
2,31096,30530,31575,77654,15432,-4533,-139,-585,-13,-19,19,147,517,-157,1,0,51,47,640,1,53298,1
2,31091,30525,31573,77655,15442,-4538,-156,-587,-19,-12,22,155,515,-169,1,0,51,47,680,1,53298,1
2,31084,30513,31563,77656,15452,-4521,-141,-576,-6,-13,15,153,513,-159,1,0,51,47,720,1,53298,1
2,31073,30518,31554,77657,15462,-4526,-136,-594,-2,-12,26,144,514,-154,1,0,51,47,760,1,53298,1
2,31078,30527,31554,77658,15473,-4534,-138,-593,-10,-10,29,155,519,-159,1,0,51,47,800,1,53298,1
2,31074,30532,31551,77659,15483,-4537,-131,-581,-9,-9,30,153,515,-163,1,0,51,47,840,1,53298,1
2,31077,30529,31550,77660,15493,-4528,-137,-593,-20,-3,32,149,515,-157,1,0,51,47,880,1,53298,1
2,31070,30513,31549,77661,15503,-4539,-149,-588,-12,-13,14,158,512,-164,1,0,51,47,920,1,53298,1
2,31072,30527,31550,77662,15514,-4540,-159,-580,-15,-26,13,147,517,-163,1,0,51,47,960,1,53298,1
1,31056,30512,31550,77663,0,-4534,-132,-585,-59,-22,-14,156,514,-166,1,0,51,48,0,0,53298,1
2,31052,30504,31532,77664,14827,-4527,-157,-611,-134,-19,-36,147,507,-165,1,0,51,48,40,0,53298,1
2,31053,30512,31536,77665,14836,-4539,-155,-585,-103,3,-13,155,513,-163,1,0,51,48,80,0,53298,1
2,31048,30512,31530,77666,14845,-4523,-142,-601,-55,-15,-32,150,510,-162,1,0,51,48,120,0,53298,1
2,31047,30512,31526,77667,14855,-4540,-136,-584,-26,-5,-12,144,510,-152,1,0,51,48,160,0,53298,1
2,31034,30504,31516,77668,14864,-4531,-154,-589,-104,-28,-32,158,510,-172,1,0,51,48,200,0,53298,1
2,31031,30511,31518,77669,14873,-4531,-145,-580,-102,-5,-35,161,513,-165,1,0,51,48,240,0,53298,1
2,31026,30503,31510,77670,14883,-4530,-123,-571,-104,-21,-38,154,512,-160,1,0,51,48,280,0,53298,1
2,31018,30503,31494,77671,14893,-4519,-158,-585,-102,-23,-25,154,514,-170,1,0,51,48,320,0,53298,1
2,31004,30505,31487,77672,14903,-4545,-160,-597,-88,2,-2,164,510,-168,1,0,51,48,360,0,53298,1
2,30982,30456,31475,77673,14913,-4574,-200,-412,-999,-252,128,157,511,-159,1,0,51,48,400,0,53298,1
2,30970,29900,31460,77674,14924,-4614,-317,-504,-2460,-347,69,157,503,-153,1,0,51,48,440,0,53298,1
2,30981,29915,31459,77675,14934,-4616,-298,-484,-2497,-200,-220,163,503,-159,1,0,51,48,480,0,53298,1
2,31015,29940,31476,77676,14945,-4695,-340,-357,-2558,-443,-294,172,504,-156,1,0,51,48,520,0,53298,1
2,31091,30225,31541,77677,14955,-4690,-178,-396,-2158,-636,-491,167,507,-153,1,0,51,48,560,0,53298,1
2,31123,30254,31543,77678,14965,-4635,-161,-634,-1312,-637,-533,169,523,-155,1,0,51,48,600,0,53298,1
2,31127,30267,31525,77679,14976,-4287,27,-544,-670,-443,-330,173,521,-159,1,0,51,48,640,0,53298,1
2,31173,30077,31551,77680,14988,-4635,-184,-423,-596,-506,-83,180,512,-160,1,0,51,48,680,0,53298,1
2,31181,30153,31557,77681,15000,-4428,-122,-601,-622,-676,-181,171,505,-165,1,0,51,48,720,0,53298,1
2,31195,31945,31568,77682,15013,-4387,-63,-516,-117,-768,-311,179,511,-171,1,0,51,48,760,0,53298,1
2,31318,32825,31658,77683,15025,-4542,-113,-463,-148,-710,-244,166,506,-158,1,0,51,48,800,0,53298,1
2,31249,32567,31579,77684,15038,-4572,-88,-499,-314,-654,-302,170,512,-156,1,0,51,48,840,0,53298,1
2,31167,32203,31500,77685,15052,-4526,-208,-400,-269,-608,-234,188,518,-146,1,0,51,48,880,0,53298,1
2,31278,32037,31635,77686,15066,-4558,-117,-411,-153,-601,-110,186,512,-152,1,0,51,48,920,0,53298,1
2,31283,31854,31615,77687,15081,-4529,-167,-384,-155,-535,-91,194,510,-156,1,0,51,48,960,0,53298,1
1,31508,32748,31914,77688,0,-4501,-107,-461,-210,-437,-43,169,513,-155,1,0,51,49,0,0,53298,1
2,31581,33055,31915,77689,14372,-4510,-122,-415,121,-154,12,190,516,-158,1,0,51,49,40,0,53298,1
2,31527,32973,31875,77690,14386,-4583,-210,-344,149,7,24,180,520,-152,1,0,51,49,80,0,53298,1
2,31509,32967,31840,77691,14400,-4580,-168,-391,-97,-25,33,182,510,-152,1,0,51,49,120,0,53298,1
2,31500,33041,31837,77692,14414,-4555,-218,-372,14,-9,-9,189,509,-149,1,0,51,49,160,0,53298,1
2,31496,33323,31830,77693,14427,-4561,-174,-346,43,31,-18,186,510,-158,1,0,51,49,200,0,53298,1
2,31501,33561,31820,77694,14440,-4581,-200,-355,-16,-7,3,179,507,-155,1,0,51,49,240,0,53298,1
2,31449,33211,31788,77695,14453,-4562,-168,-365,-10,-13,32,173,513,-151,1,0,51,49,280,0,53298,1
2,31432,32989,31763,77696,14465,-4576,-200,-365,22,23,29,182,512,-148,1,0,51,49,320,0,53298,1
2,31423,32673,31762,77697,14477,-4579,-193,-355,8,1,42,182,506,-154,1,0,51,49,360,0,53298,1
2,31435,32215,31771,77698,14490,-4562,-197,-369,13,-21,37,184,520,-156,1,0,51,49,400,0,53298,1
2,31448,32278,31785,77699,14502,-4581,-209,-353,-31,-16,25,184,512,-154,1,0,51,49,440,0,53298,1
2,31455,32023,31790,77700,14514,-4564,-179,-374,-19,-22,50,183,507,-151,1,0,51,49,480,0,53298,1
2,31473,31880,31808,77701,14527,-4571,-175,-361,9,-6,38,179,503,-155,1,0,51,49,520,0,53298,1
2,31488,32093,31824,77702,14540,-4573,-201,-343,-11,-18,31,180,506,-142,1,0,51,49,560,0,53298,1
2,31525,31875,31859,77703,14553,-4555,-178,-374,-30,-33,54,187,503,-157,1,0,51,49,600,0,53298,1
2,31548,31599,31881,77704,14566,-4570,-186,-351,-18,-16,30,170,514,-150,1,0,51,49,640,0,53298,1
2,31583,31582,31910,77705,14579,-4583,-227,-320,-26,-37,70,181,517,-149,1,0,51,49,680,0,53298,1
2,31619,31628,31956,77706,14593,-4553,-172,-361,-62,-100,121,182,508,-156,1,0,51,49,720,0,53298,1
2,31628,31626,31965,77707,14606,-4560,-183,-358,-33,-70,83,172,518,-156,1,0,51,49,760,0,53298,1
2,31630,31546,31962,77708,14618,-4590,-216,-338,-27,-52,69,185,513,-149,1,0,51,49,800,0,53298,1
2,31644,31612,31977,77709,14631,-4559,-161,-363,-75,-91,70,182,510,-154,1,0,51,49,840,0,53298,1
2,31642,31622,31983,77710,14645,-4576,-206,-350,-14,-55,43,181,511,-157,1,0,51,49,880,0,53298,1
2,31657,31633,31992,77711,14658,-4589,-205,-332,-34,-61,66,181,511,-153,1,0,51,49,920,0,53298,1
2,31655,31521,32003,77712,14671,-4546,-183,-367,-36,-75,58,176,510,-144,1,0,51,49,960,0,53298,1
1,31594,31411,31919,77713,0,-4584,-207,-345,-7,-46,63,179,519,-153,1,0,51,50,0,0,53298,1
2,31545,31365,31882,77714,13918,-4562,-201,-351,-17,-42,47,172,506,-146,1,0,51,50,40,0,53298,1
2,31523,31294,31851,77715,13932,-4567,-184,-355,5,-24,36,185,509,-157,1,0,51,50,80,0,53298,1
2,31500,31184,31842,77716,13946,-4568,-180,-371,-24,-31,39,178,510,-146,1,0,51,50,120,0,53298,1
2,31479,31060,31815,77717,13959,-4572,-215,-327,-22,-28,44,174,520,-144,1,0,51,50,160,0,53298,1
2,31466,31059,31792,77718,13973,-4561,-169,-367,-7,-33,61,174,516,-150,1,0,51,50,200,0,53298,1
2,31446,31053,31781,77719,13987,-4564,-187,-363,11,-3,37,179,509,-157,1,0,51,50,240,0,53298,1
2,31422,30976,31761,77720,14000,-4569,-191,-331,8,0,31,186,514,-150,1,0,51,50,280,0,53298,1
2,31417,30971,31750,77721,14014,-4572,-185,-358,-1,-13,41,191,511,-143,1,0,51,50,320,0,53298,1
2,31401,30914,31738,77722,14028,-4564,-180,-339,-16,-20,40,184,506,-154,1,0,51,50,360,0,53298,1
2,31386,30892,31717,77723,14041,-4571,-192,-357,-36,-18,31,185,511,-157,1,0,51,50,400,0,53298,1
2,31379,30747,31713,77724,14055,-4575,-206,-352,0,-27,58,185,507,-155,1,0,51,50,440,0,53298,1
2,31367,30719,31705,77725,14069,-4565,-188,-333,-18,-29,58,177,511,-151,1,0,51,50,480,0,53298,1
2,31360,30683,31694,77726,14083,-4569,-182,-355,2,-30,58,169,517,-141,1,0,51,50,520,0,53298,1
2,31344,30703,31675,77727,14096,-4567,-175,-346,-46,-35,48,176,512,-148,1,0,51,50,560,0,53298,1
2,31339,30642,31673,77728,14111,-4574,-201,-344,-49,-45,57,180,520,-156,1,0,51,50,600,0,53298,1
2,31335,30630,31664,77729,14125,-4561,-159,-353,0,-50,51,179,507,-153,1,0,51,50,640,0,53298,1
2,31330,30609,31658,77730,14140,-4555,-178,-364,-42,-23,41,180,514,-152,1,0,51,50,680,0,53298,1
2,31320,30575,31650,77731,14154,-4557,-164,-351,2,-7,26,187,515,-159,1,0,51,50,720,0,53298,1
2,31310,30616,31634,77732,14170,-4557,-168,-357,38,48,-33,182,510,-152,1,0,51,50,760,0,53298,1
2,31302,30517,31630,77733,14184,-4554,-172,-377,1,115,-104,185,515,-151,1,0,51,50,800,0,53298,1
2,31298,30515,31622,77734,14197,-4603,-264,-323,10,92,-74,186,512,-158,1,0,51,50,840,0,53298,1
2,31290,30517,31620,77735,14210,-4567,-187,-353,-10,-5,23,174,512,-150,1,0,51,50,880,0,53298,1
2,31288,30460,31622,77736,14224,-4569,-197,-362,7,9,13,178,512,-164,1,0,51,50,920,0,53298,1
2,31281,30345,31616,77737,14238,-4542,-141,-396,15,69,-28,171,515,-149,1,0,51,50,960,0,53298,1
1,31238,30306,31599,77738,0,-4391,89,-804,200,390,-224,184,512,-146,1,0,51,51,0,0,53298,1
2,31549,31532,31889,77739,13461,-3885,618,-1019,890,1516,-609,179,511,-155,1,0,51,51,40,0,53298,1
2,31415,31018,31977,77740,13472,-4155,541,-711,2388,1875,635,180,512,-148,1,0,51,51,80,0,53298,1
2,31584,30954,32011,77741,13483,-4198,-210,-832,4582,1288,2016,155,519,-159,1,0,51,51,120,0,53298,1
2,31237,33658,31738,77742,13493,-5799,-380,-102,4983,1126,2619,159,513,-159,1,0,51,51,160,0,53298,1
2,31338,33416,31846,77743,13503,-5120,-2265,1089,1957,210,799,156,516,-162,1,0,51,51,200,0,53298,1
2,31333,32669,31794,77744,13513,-4447,417,-126,829,-930,106,151,511,-145,1,0,51,51,240,0,53298,1
2,31332,31945,31819,77745,13522,-4375,78,-1156,233,494,221,147,507,-155,1,0,51,51,280,0,53298,1
2,31132,30606,31615,77746,13533,-4577,-200,-655,-17,885,41,153,511,-157,1,0,51,51,320,0,53298,1
2,31124,30443,31606,77747,13543,-4578,-168,-374,-266,130,8,156,506,-152,1,0,51,51,360,0,53298,1
2,31115,30164,31598,77748,13553,-4483,-132,-614,62,319,-118,153,513,-159,1,0,51,51,400,0,53298,1
2,31197,30217,31673,77749,13564,-4538,-167,-708,291,358,-95,150,514,-154,1,0,51,51,440,0,53298,1
2,31329,30329,31840,77750,13573,-4546,-88,-582,320,-202,31,149,519,-159,1,0,51,51,480,0,53298,1
2,31417,30415,31916,77751,13583,-4519,-139,-508,-12,-215,43,153,521,-157,1,0,51,51,520,0,53298,1
2,31201,30266,31693,77752,13594,-4530,-157,-588,-102,-4,70,155,511,-171,1,0,51,51,560,0,53298,1
2,31148,30294,31625,77753,13604,-4528,-117,-586,80,22,100,147,511,-167,1,0,51,51,600,0,53298,1
2,31117,30326,31601,77754,13614,-4536,-121,-577,182,21,88,146,514,-156,1,0,51,51,640,0,53298,1
2,31102,30366,31582,77755,13625,-4548,-152,-581,74,22,52,148,510,-158,1,0,51,51,680,0,53298,1
2,31095,30413,31575,77756,13635,-4533,-153,-600,91,4,77,147,511,-171,1,0,51,51,720,0,53298,1
2,31090,30401,31565,77757,13645,-4523,-190,-634,427,28,229,146,504,-160,1,0,51,51,760,0,53298,1
2,31077,30403,31552,77758,13656,-4543,-114,-556,1092,15,373,146,518,-156,1,0,51,51,800,0,53298,1
2,31065,30402,31544,77759,13666,-4547,-68,-555,1062,-39,302,146,508,-166,1,0,51,51,840,0,53298,1
2,31062,30423,31534,77760,13676,-4529,-73,-574,690,-47,183,139,511,-161,1,0,51,51,880,0,53298,1
2,31055,30429,31527,77761,13686,-4515,-106,-570,122,-51,104,146,508,-160,1,0,51,51,920,0,53298,1
2,31060,30472,31531,77762,13698,-4533,-126,-578,-123,-34,59,148,518,-164,1,0,51,51,960,0,53298,1
1,31054,30475,31526,77763,0,-4526,-109,-590,-66,-10,21,144,512,-160,1,0,51,52,0,1,53298,1
2,31043,30473,31521,77764,13004,-4521,-115,-569,28,-14,6,154,514,-160,1,0,51,52,40,1,53298,1
2,31046,30484,31520,77765,13015,-4533,-115,-579,23,5,21,153,513,-169,1,0,51,52,80,1,53298,1
2,31041,30488,31518,77766,13025,-4521,-110,-594,-45,16,21,150,504,-162,1,0,51,52,120,1,53298,1
2,31036,30469,31513,77767,13036,-4535,-126,-598,-37,-6,12,134,512,-154,1,0,51,52,160,1,53298,1
2,31038,30476,31515,77768,13046,-4511,-104,-583,-38,-12,1,156,510,-156,1,0,51,52,200,1,53298,1
2,31031,30476,31507,77769,13056,-4521,-114,-577,-47,-21,5,153,511,-167,1,0,51,52,240,1,53298,1
2,31026,30472,31510,77770,13065,-4539,-109,-585,-31,-15,23,148,520,-160,1,0,51,52,280,1,53298,1
2,31023,30462,31500,77771,13075,-4519,-111,-597,-7,-5,34,144,514,-156,1,0,51,52,320,1,53298,1
2,31024,30464,31497,77772,13084,-4541,-116,-588,25,3,39,139,517,-155,1,0,51,52,360,1,53298,1
2,31020,30486,31496,77773,13094,-4519,-113,-583,34,0,28,143,517,-157,1,0,51,52,400,1,53298,1
2,31012,30485,31489,77774,13104,-4531,-110,-605,3,10,24,150,516,-162,1,0,51,52,440,1,53298,1
2,31012,30471,31490,77775,13113,-4521,-119,-585,20,-2,38,150,514,-158,1,0,51,52,480,1,53298,1
2,31015,30464,31490,77776,13123,-4518,-114,-588,49,-7,46,140,504,-158,1,0,51,52,520,1,53298,1
2,31004,30434,31483,77777,13133,-4524,-105,-583,62,-24,56,140,512,-162,1,0,51,52,560,1,53298,1
2,30999,30466,31479,77778,13143,-4517,-105,-598,26,-24,53,147,515,-157,1,0,51,52,600,1,53298,1
2,30995,30400,31472,77779,13154,-4527,-95,-592,10,-10,45,143,511,-155,1,0,51,52,640,1,53298,1
2,30994,30405,31473,77780,13164,-4534,-121,-586,8,0,35,147,515,-161,1,0,51,52,680,1,53298,1
2,30986,30449,31466,77781,13174,-4526,-105,-599,-2,-3,22,138,512,-156,1,0,51,52,720,1,53298,1
2,30986,30449,31460,77782,13184,-4542,-115,-585,-25,-14,11,154,512,-170,1,0,51,52,760,1,53298,1
2,30984,30447,31462,77783,13194,-4525,-113,-589,-19,-21,23,148,514,-160,1,0,51,52,800,1,53298,1
2,30990,30457,31461,77784,13204,-4533,-110,-599,-36,-19,22,145,515,-165,1,0,51,52,840,1,53298,1
2,30984,30446,31458,77785,13214,-4528,-114,-594,-22,-10,18,148,522,-152,1,0,51,52,880,1,53298,1
2,30978,30442,31457,77786,13224,-4532,-118,-596,-28,-6,14,152,518,-154,1,0,51,52,920,1,53298,1
2,30975,30436,31454,77787,13234,-4533,-106,-587,-27,-1,17,155,511,-157,1,0,51,52,960,1,53298,1
1,30975,30443,31452,77788,0,-4530,-118,-585,-18,-8,11,150,512,-166,1,0,51,53,0,0,53298,1
2,30967,30428,31443,77789,12548,-4532,-124,-587,-48,-5,1,150,508,-162,1,0,51,53,40,0,53298,1
2,30963,30440,31440,77790,12558,-4525,-119,-585,-25,-10,13,146,516,-148,1,0,51,53,80,0,53298,1
2,30965,30444,31441,77791,12567,-4527,-107,-580,-22,-5,20,141,523,-155,1,0,51,53,120,0,53298,1
2,30962,30441,31440,77792,12577,-4527,-115,-585,-13,-2,15,141,517,-157,1,0,51,53,160,0,53298,1
2,30959,30435,31437,77793,12587,-4531,-116,-593,-49,-17,11,153,515,-167,1,0,51,53,200,0,53298,1
2,30958,30436,31444,77794,12597,-4532,-124,-596,-59,-16,3,144,518,-156,1,0,51,53,240,0,53298,1
2,30955,30445,31440,77795,12608,-4532,-118,-587,-30,-9,9,146,514,-168,1,0,51,53,280,0,53298,1
2,30955,30430,31433,77796,12618,-4517,-97,-583,-26,-10,4,152,508,-160,1,0,51,53,320,0,53298,1
2,30951,30424,31431,77797,12629,-4530,-114,-587,-51,-8,-2,149,513,-161,1,0,51,53,360,0,53298,1
2,30954,30427,31426,77798,12639,-4527,-113,-595,-89,0,-6,142,520,-164,1,0,51,53,400,0,53298,1
2,30947,30423,31430,77799,12649,-4515,-112,-599,-40,-1,9,146,510,-152,1,0,51,53,440,0,53298,1
2,30952,30424,31429,77800,12660,-4525,-114,-612,-88,-5,-14,148,504,-154,1,0,51,53,480,0,53298,1
2,30944,30138,31427,77801,12671,-4535,-110,-577,-73,-16,-8,136,518,-162,1,0,51,53,520,0,53298,1
2,30941,29971,31425,77802,12682,-4611,-439,41,-1377,-177,145,147,513,-151,1,0,51,53,560,0,53298,1
2,30947,29970,31428,77803,12693,-4878,-540,-230,-3962,-420,-185,152,514,-160,1,0,51,53,600,0,53298,1
2,30987,29974,31447,77804,12704,-4685,-397,-575,-4304,-521,-848,167,511,-163,1,0,51,53,640,0,53298,1
2,31255,30134,31630,77805,12716,-4811,-157,-398,-3505,-836,-1031,169,507,-169,1,0,51,53,680,0,53298,1
2,31465,30422,31826,77806,12727,-4377,-71,-428,-1714,-715,-602,162,518,-138,1,0,51,53,720,0,53298,1
2,31432,30285,31805,77807,12740,-4360,-175,-563,-710,-1147,-277,166,518,-152,1,0,51,53,760,0,53298,1
2,31490,31268,31820,77808,12753,-4439,174,-698,-1266,-1295,-705,179,503,-159,1,0,51,53,800,0,53298,1
2,31766,32428,32059,77809,12767,-4591,-92,-541,-899,-1062,-648,169,507,-153,1,0,51,53,840,0,53298,1
2,31591,31827,31842,77810,12782,-4525,-118,-526,-559,-850,-381,176,512,-144,1,0,51,53,880,0,53298,1
2,32152,32994,32477,77811,12798,-4509,-42,-441,-214,-707,-192,178,518,-144,1,0,51,53,920,0,53298,1
2,32191,32977,32534,77812,12815,-4556,-147,-413,-318,-643,-141,181,517,-155,1,0,51,53,960,0,53298,1
1,31956,31622,32391,77813,0,-4541,-132,-352,-439,-594,-175,188,512,-162,1,0,51,54,0,1,53298,1
2,31588,30416,31869,77814,12095,-4522,-94,-386,-302,-463,-131,177,507,-151,1,0,51,54,40,1,53298,1
2,32229,31029,32582,77815,12110,-4533,-86,-380,-80,-255,-43,179,515,-155,1,0,51,54,80,1,53298,1
2,32270,31142,32569,77816,12126,-4588,-265,-238,-5,-3,-13,172,508,-150,1,0,51,54,120,1,53298,1
2,32294,31128,32592,77817,12141,-4562,-180,-306,-33,-30,63,180,508,-142,1,0,51,54,160,1,53298,1
2,32282,31048,32582,77818,12155,-4549,-139,-349,30,-10,34,182,506,-148,1,0,51,54,200,1,53298,1
2,32274,31074,32568,77819,12170,-4589,-228,-283,33,49,-19,175,509,-143,1,0,51,54,240,1,53298,1
2,32276,31079,32567,77820,12185,-4566,-188,-347,-71,-21,37,174,512,-148,1,0,51,54,280,1,53298,1
2,32255,31103,32559,77821,12201,-4559,-171,-326,4,-29,37,180,506,-146,1,0,51,54,320,1,53298,1
2,32117,31019,32437,77822,12215,-4580,-226,-300,-42,-11,22,176,510,-146,1,0,51,54,360,1,53298,1
2,31920,30809,32194,77823,12230,-4556,-185,-322,-84,-32,52,181,511,-153,1,0,51,54,400,1,53298,1
2,31831,30779,32107,77824,12245,-4589,-199,-310,48,-13,45,179,505,-151,1,0,51,54,440,1,53298,1
2,31785,30868,32073,77825,12260,-4555,-172,-332,37,-13,35,185,513,-149,1,0,51,54,480,1,53298,1
2,31823,30971,32120,77826,12275,-4581,-188,-320,-38,-10,33,181,513,-145,1,0,51,54,520,1,53298,1
2,31888,31141,32171,77827,12289,-4572,-176,-343,-14,-15,52,183,509,-151,1,0,51,54,560,1,53298,1
2,31946,31485,32247,77828,12303,-4568,-199,-318,0,12,32,178,514,-142,1,0,51,54,600,1,53298,1
2,31984,31928,32269,77829,12318,-4568,-197,-339,-28,-9,37,190,510,-158,1,0,51,54,640,1,53298,1
2,31973,32790,32269,77830,12332,-4576,-196,-329,-69,-9,26,180,508,-148,1,0,51,54,680,1,53298,1
2,31995,32582,32284,77831,12347,-4586,-207,-313,-4,-15,26,182,516,-148,1,0,51,54,720,1,53298,1
2,31947,32982,32230,77832,12361,-4560,-201,-319,-45,-40,49,192,506,-156,1,0,51,54,760,1,53298,1
2,31884,32937,32170,77833,12377,-4578,-211,-335,-43,-9,47,179,511,-147,1,0,51,54,800,1,53298,1
2,31862,33278,32138,77834,12392,-4570,-182,-310,44,1,28,187,513,-143,1,0,51,54,840,1,53298,1
2,31848,33069,32127,77835,12407,-4576,-198,-329,-45,-8,44,174,510,-162,1,0,51,54,880,1,53298,1
2,31812,33015,32118,77836,12422,-4572,-185,-330,-36,-9,32,175,509,-145,1,0,51,54,920,1,53298,1
2,31810,33105,32095,77837,12437,-4562,-177,-327,-22,-10,34,183,515,-153,1,0,51,54,960,1,53298,1
1,31769,33453,32070,77838,0,-4578,-199,-317,1,4,22,183,511,-155,1,0,51,55,0,0,53298,1
2,31743,33333,32021,77839,11640,-4567,-185,-330,-30,4,21,183,507,-143,1,0,51,55,40,0,53298,1
2,31724,33000,32009,77840,11654,-4576,-181,-325,-41,-11,39,186,502,-150,1,0,51,55,80,0,53298,1
2,31717,33485,32003,77841,11668,-4564,-196,-318,-61,-13,45,178,506,-142,1,0,51,55,120,0,53298,1
2,31716,33279,32003,77842,11682,-4566,-201,-322,-34,2,21,180,516,-156,1,0,51,55,160,0,53298,1
2,31712,33253,32000,77843,11697,-4564,-196,-320,-33,-29,45,192,502,-150,1,0,51,55,200,0,53298,1
2,31701,33329,31985,77844,11712,-4575,-196,-328,-54,-43,62,175,515,-149,1,0,51,55,240,0,53298,1
2,31694,33442,31983,77845,11727,-4580,-196,-330,-38,-33,64,179,507,-147,1,0,51,55,280,0,53298,1
2,31695,33258,31980,77846,11741,-4575,-192,-320,-20,-21,40,188,516,-154,1,0,51,55,320,0,53298,1
2,31689,33302,31975,77847,11756,-4577,-207,-300,-7,-6,25,188,508,-144,1,0,51,55,360,0,53298,1
2,31676,33373,31964,77848,11770,-4550,-156,-341,-33,-20,31,186,508,-146,1,0,51,55,400,0,53298,1
2,31670,33329,31957,77849,11785,-4580,-218,-324,33,25,-16,180,508,-150,1,0,51,55,440,0,53298,1
2,31679,33187,31963,77850,11799,-4587,-228,-292,22,3,15,182,512,-142,1,0,51,55,480,0,53298,1
2,31685,33537,31974,77851,11814,-4554,-175,-345,-82,-49,73,183,511,-157,1,0,51,55,520,0,53298,1
2,31686,33520,31975,77852,11829,-4582,-190,-317,-27,-30,47,180,512,-156,1,0,51,55,560,0,53298,1
2,31677,33391,31970,77853,11844,-4576,-197,-334,-50,-15,45,180,510,-146,1,0,51,55,600,0,53298,1
2,31682,33540,31966,77854,11859,-4570,-211,-332,-40,-12,31,176,516,-148,1,0,51,55,640,0,53298,1
2,31680,33531,31965,77855,11874,-4580,-193,-335,15,-12,39,185,515,-149,1,0,51,55,680,0,53298,1
2,31670,33444,31955,77856,11888,-4566,-200,-316,-78,-23,41,179,509,-153,1,0,51,55,720,0,53298,1
2,31669,33084,31952,77857,11902,-4570,-193,-320,-19,-4,28,185,509,-155,1,0,51,55,760,0,53298,1
2,31668,33148,31939,77858,11917,-4576,-206,-296,-17,1,28,171,515,-149,1,0,51,55,800,0,53298,1
2,31619,33080,31915,77859,11932,-4556,-177,-332,-74,-26,58,182,516,-148,1,0,51,55,840,0,53298,1
2,31618,33086,31908,77860,11946,-4561,-173,-352,-9,29,-17,186,506,-150,1,0,51,55,880,0,53298,1
2,31608,33350,31897,77861,11960,-4573,-183,-325,13,56,-35,179,509,-139,1,0,51,55,920,0,53298,1
2,31566,32939,31878,77862,11973,-4510,-80,-470,54,163,-114,180,516,-150,1,0,51,55,960,0,53298,1
1,31563,34690,31967,77863,0,-4139,484,-1163,361,957,-574,178,512,-146,1,0,51,56,0,0,53298,1
2,31782,34904,32165,77864,11183,-4243,164,-601,1343,1944,-232,180,516,-140,1,0,51,56,40,0,53298,1
2,31835,33582,32384,77865,11192,-4566,161,-496,1409,1807,988,163,513,-151,1,0,51,56,80,0,53298,1
2,31569,32839,32186,77866,11202,-4225,-114,-701,3440,1010,1596,154,508,-152,1,0,51,56,120,0,53298,1
2,31623,34145,32198,77867,11212,-5156,-347,-419,4435,613,2435,164,520,-150,1,0,51,56,160,0,53298,1
2,31546,34435,32233,77868,11222,-5219,-1123,298,2088,70,1545,157,511,-161,1,0,51,56,200,0,53298,1
2,31549,33536,32079,77869,11231,-4544,-647,353,703,-222,130,150,508,-152,1,0,51,56,240,0,53298,1
2,31808,33858,32288,77870,11241,-4408,275,-876,-540,-134,-164,151,517,-145,1,0,51,56,280,0,53298,1
2,31513,31825,31932,77871,11250,-4544,316,-1108,-2924,1476,-439,154,504,-150,1,0,51,56,320,0,53298,1
2,31381,30996,31875,77872,11259,-4604,-623,-303,-1758,426,-475,155,511,-149,1,0,51,56,360,0,53298,1
2,31365,30390,31851,77873,11269,-4572,-62,-151,-2443,521,-610,165,513,-155,1,0,51,56,400,0,53298,1
2,31384,30360,31871,77874,11278,-4447,-117,-667,-965,193,-254,156,506,-158,1,0,51,56,440,0,53298,1
2,31384,30418,31878,77875,11287,-4527,-199,-524,-921,-1,-157,161,513,-149,1,0,51,56,480,0,53298,1
2,31385,30431,31875,77876,11296,-4504,-159,-368,-683,-78,2,163,511,-163,1,0,51,56,520,0,53298,1
2,31379,30430,31863,77877,11306,-4471,-221,-512,368,34,312,156,508,-162,1,0,51,56,560,0,53298,1
2,31374,30431,31859,77878,11315,-4559,-95,-579,1121,51,436,167,509,-153,1,0,51,56,600,0,53298,1
2,31349,30417,31825,77879,11324,-4572,-91,-528,1174,92,344,164,506,-156,1,0,51,56,640,0,53298,1
2,31326,30415,31814,77880,11333,-4550,-59,-607,672,90,208,161,513,-161,1,0,51,56,680,0,53298,1
2,31320,30444,31800,77881,11342,-4550,-136,-616,-47,128,41,155,515,-145,1,0,51,56,720,0,53298,1
2,31315,30500,31797,77882,11352,-4539,-97,-540,-255,-7,-17,158,508,-166,1,0,51,56,760,0,53298,1
2,31315,30519,31797,77883,11361,-4524,-123,-557,-370,-3,-26,153,507,-157,1,0,51,56,800,0,53298,1
2,31302,30556,31791,77884,11369,-4512,-143,-542,-75,-32,34,157,515,-167,1,0,51,56,840,0,53298,1
2,31305,30549,31784,77885,11379,-4539,-133,-541,184,-64,104,155,519,-163,1,0,51,56,880,0,53298,1
2,31291,30555,31770,77886,11389,-4547,-112,-550,379,-16,143,156,512,-148,1,0,51,56,920,0,53298,1
2,31292,30560,31776,77887,11399,-4536,-142,-544,598,-9,159,149,511,-159,1,0,51,56,960,0,53298,1
1,31276,30556,31760,77888,0,-4548,-88,-544,533,45,144,149,513,-149,1,0,51,57,0,1,53298,1
2,31277,30559,31759,77889,10728,-4536,-107,-536,549,50,128,155,515,-163,1,0,51,57,40,1,53298,1
2,31272,30548,31759,77890,10738,-4536,-95,-576,406,53,86,163,509,-175,1,0,51,57,80,1,53298,1
2,31286,30559,31773,77891,10748,-4528,-119,-589,305,39,81,148,508,-148,1,0,51,57,120,1,53298,1
2,31294,30562,31786,77892,10759,-4527,-126,-586,392,3,115,158,508,-150,1,0,51,57,160,1,53298,1
2,31304,30565,31782,77893,10769,-4534,-112,-558,536,-30,122,150,510,-156,1,0,51,57,200,1,53298,1
2,31328,30588,31803,77894,10780,-4540,-96,-572,497,-36,118,148,508,-158,1,0,51,57,240,1,53298,1
2,31312,30578,31802,77895,10791,-4530,-89,-569,240,10,75,155,511,-165,1,0,51,57,280,1,53298,1
2,31300,30585,31780,77896,10802,-4524,-122,-576,110,29,42,152,516,-164,1,0,51,57,320,1,53298,1
2,31284,30577,31768,77897,10812,-4530,-105,-581,64,43,33,163,519,-161,1,0,51,57,360,1,53298,1
2,31290,30586,31792,77898,10823,-4534,-119,-586,85,7,31,158,510,-164,1,0,51,57,400,1,53298,1
2,31287,30596,31777,77899,10834,-4531,-109,-562,77,-17,43,152,508,-156,1,0,51,57,440,1,53298,1
2,31262,30570,31749,77900,10846,-4535,-105,-581,63,-39,42,152,516,-154,1,0,51,57,480,1,53298,1
2,31245,30562,31733,77901,10857,-4526,-94,-567,46,-23,36,151,515,-163,1,0,51,57,520,1,53298,1
2,31258,30586,31733,77902,10868,-4527,-110,-572,-4,0,4,144,526,-162,1,0,51,57,560,1,53298,1
2,31240,30575,31717,77903,10880,-4528,-120,-588,-40,4,2,157,511,-163,1,0,51,57,600,1,53298,1
2,31225,30577,31717,77904,10890,-4536,-117,-582,-24,-6,13,152,512,-160,1,0,51,57,640,1,53298,1
2,31236,30577,31723,77905,10901,-4538,-125,-578,-11,-24,21,153,521,-157,1,0,51,57,680,1,53298,1
2,31223,30574,31709,77906,10911,-4525,-108,-566,-45,-37,15,151,509,-159,1,0,51,57,720,1,53298,1
2,31224,30574,31703,77907,10920,-4524,-120,-579,-81,-42,16,157,507,-159,1,0,51,57,760,1,53298,1
2,31223,30576,31705,77908,10929,-4541,-110,-565,-90,-39,13,152,514,-156,1,0,51,57,800,1,53298,1
2,31225,30582,31711,77909,10939,-4536,-121,-570,-93,-26,2,152,508,-162,1,0,51,57,840,1,53298,1
2,31255,30593,31745,77910,10948,-4522,-99,-575,-62,-6,14,155,511,-155,1,0,51,57,880,1,53298,1
2,31257,30593,31744,77911,10958,-4543,-113,-572,-45,-10,10,154,520,-160,1,0,51,57,920,1,53298,1
2,31275,30609,31771,77912,10969,-4538,-118,-568,-36,2,12,157,511,-169,1,0,51,57,960,1,53298,1
1,31275,30609,31765,77913,0,-4528,-113,-568,-62,-3,9,157,521,-157,1,0,51,58,0,0,53298,1
2,31288,30614,31779,77914,10272,-4539,-125,-574,-45,-6,26,157,517,-155,1,0,51,58,40,0,53298,1
2,31299,30619,31791,77915,10283,-4535,-100,-566,-48,-16,25,155,513,-161,1,0,51,58,80,0,53298,1
2,31332,30645,31826,77916,10293,-4541,-104,-559,-81,-31,2,144,520,-154,1,0,51,58,120,0,53298,1
2,31308,30646,31818,77917,10304,-4539,-131,-539,-195,-47,-8,158,512,-164,1,0,51,58,160,0,53298,1
2,31288,30451,31799,77918,10314,-4539,-203,-447,-686,-174,32,158,512,-160,1,0,51,58,200,0,53298,1
2,31212,30383,31719,77919,10325,-4680,-378,-226,-3322,-643,24,162,506,-168,1,0,51,58,240,0,53298,1
2,31171,30335,31646,77920,10336,-4862,-114,-670,-2966,-289,-254,161,513,-149,1,0,51,58,280,0,53298,1
2,31158,30245,31643,77921,10346,-4401,-20,-444,-1931,-354,-694,164,512,-148,1,0,51,58,320,0,53298,1
2,31257,30341,31760,77922,10357,-4829,-211,-308,-1187,-556,-386,165,515,-161,1,0,51,58,360,0,53298,1
2,31508,30444,31942,77923,10369,-4750,-126,-600,-1281,-437,-285,178,514,-162,1,0,51,58,400,0,53298,1
2,31636,31209,32064,77924,10381,-4156,27,-537,-525,-724,-586,178,508,-166,1,0,51,58,440,0,53298,1
2,31508,30421,32030,77925,10394,-4481,-120,-420,-633,-879,-114,174,508,-158,1,0,51,58,480,0,53298,1
2,31613,30685,32033,77926,10408,-4772,-153,-411,-802,-1143,-398,177,507,-151,1,0,51,58,520,0,53298,1
2,31948,31201,32316,77927,10421,-4605,-21,-440,-595,-1191,-647,183,511,-157,1,0,51,58,560,0,53298,1
2,31977,34240,32444,77928,10435,-4384,-51,-460,-198,-1117,-282,177,519,-149,1,0,51,58,600,0,53298,1
2,32215,34161,32545,77929,10449,-4539,-144,-356,-216,-886,-128,177,511,-149,1,0,51,58,640,0,53298,1
2,31520,32839,31786,77930,10464,-4532,-80,-389,-230,-799,-123,184,502,-158,1,0,51,58,680,0,53298,1
2,32250,33640,32570,77931,10478,-4517,-131,-332,-91,-682,-156,176,506,-158,1,0,51,58,720,0,53298,1
2,32288,33728,32575,77932,10494,-4583,-115,-331,-84,-556,-106,186,504,-158,1,0,51,58,760,0,53298,1
2,32302,33545,32572,77933,10509,-4556,-154,-310,-125,-402,-103,180,512,-154,1,0,51,58,800,0,53298,1
2,31715,32573,31982,77934,10524,-4522,-93,-329,-17,-221,-69,184,510,-154,1,0,51,58,840,0,53298,1
2,31695,32778,31975,77935,10539,-4577,-167,-320,74,-70,-3,177,507,-145,1,0,51,58,880,0,53298,1
2,31656,32612,31903,77936,10554,-4571,-190,-294,-39,-11,8,179,503,-145,1,0,51,58,920,0,53298,1
2,31590,32734,31868,77937,10571,-4551,-137,-292,-4,-23,22,179,515,-145,1,0,51,58,960,0,53298,1
1,31576,32490,31829,77938,0,-4579,-203,-227,20,31,-9,184,508,-146,1,0,51,59,0,1,53298,1
2,31533,32668,31813,77939,9820,-4569,-173,-283,-57,-6,29,176,510,-146,1,0,51,59,40,1,53298,1
2,31522,32662,31786,77940,9835,-4573,-163,-310,-19,26,-2,182,508,-142,1,0,51,59,80,1,53298,1
2,31500,32855,31761,77941,9851,-4608,-232,-264,9,56,-21,178,510,-146,1,0,51,59,120,1,53298,1
2,31481,32717,31757,77942,9867,-4561,-150,-299,-33,-29,50,177,507,-143,1,0,51,59,160,1,53298,1
2,31496,33015,31766,77943,9882,-4572,-171,-285,24,0,20,181,517,-143,1,0,51,59,200,1,53298,1
2,31510,33002,31770,77944,9897,-4577,-186,-298,18,51,1,180,506,-154,1,0,51,59,240,1,53298,1
2,31499,32931,31771,77945,9912,-4567,-211,-267,77,52,-18,187,515,-143,1,0,51,59,280,1,53298,1
2,31507,33042,31781,77946,9927,-4584,-196,-291,66,34,7,183,505,-147,1,0,51,59,320,1,53298,1
2,31516,33116,31795,77947,9942,-4578,-196,-286,21,8,15,190,512,-144,1,0,51,59,360,1,53298,1
2,31532,33140,31806,77948,9958,-4569,-200,-301,-33,-5,30,189,509,-151,1,0,51,59,400,1,53298,1
2,31514,32999,31779,77949,9973,-4579,-184,-295,4,9,28,176,508,-148,1,0,51,59,440,1,53298,1
2,31491,33090,31768,77950,9988,-4590,-192,-294,24,31,10,179,503,-147,1,0,51,59,480,1,53298,1
2,31483,32980,31758,77951,10003,-4580,-182,-308,6,31,15,185,511,-147,1,0,51,59,520,1,53298,1
2,31478,32818,31758,77952,10018,-4581,-188,-294,9,25,-1,192,512,-150,1,0,51,59,560,1,53298,1
2,31478,33179,31754,77953,10032,-4581,-194,-288,-21,-7,18,187,507,-149,1,0,51,59,600,1,53298,1
2,31475,32906,31749,77954,10047,-4574,-186,-291,-18,6,28,183,507,-143,1,0,51,59,640,1,53298,1
2,31473,32641,31750,77955,10061,-4587,-207,-300,-19,7,29,179,517,-141,1,0,51,59,680,1,53298,1
2,31466,32772,31745,77956,10075,-4559,-187,-286,-6,-1,39,185,511,-137,1,0,51,59,720,1,53298,1
2,31459,32839,31738,77957,10089,-4565,-181,-308,21,7,34,180,516,-148,1,0,51,59,760,1,53298,1
2,31457,32818,31740,77958,10104,-4565,-171,-304,28,11,5,186,514,-150,1,0,51,59,800,1,53298,1
2,31460,32729,31740,77959,10119,-4575,-211,-289,65,21,-3,183,499,-143,1,0,51,59,840,1,53298,1
2,31460,32670,31738,77960,10134,-4585,-230,-301,52,-4,40,187,505,-155,1,0,51,59,880,1,53298,1
2,31458,32747,31742,77961,10149,-4556,-173,-300,43,-14,55,188,508,-150,1,0,51,59,920,1,53298,1
2,31458,32461,31738,77962,10164,-4591,-207,-299,24,-16,56,183,511,-151,1,0,51,59,960,1,53298,1
1,31455,32495,31738,77963,0,-4567,-197,-288,-48,-47,73,186,508,-146,1,0,52,0,0,0,53298,1
2,31454,32616,31740,77964,9366,-4562,-202,-291,-39,-62,85,186,510,-144,1,0,52,0,40,0,53298,1
2,31449,32389,31726,77965,9380,-4562,-205,-280,-23,-55,83,186,508,-146,1,0,52,0,80,0,53298,1
2,31448,32402,31726,77966,9394,-4585,-196,-282,21,-72,96,185,511,-149,1,0,52,0,120,0,53298,1
2,31451,32457,31730,77967,9409,-4585,-201,-284,-3,-109,134,186,516,-146,1,0,52,0,160,0,53298,1
2,31456,32480,31735,77968,9423,-4573,-184,-302,-31,-136,154,179,507,-145,1,0,52,0,200,0,53298,1
2,31453,32472,31734,77969,9438,-4562,-171,-312,-2,-79,118,175,507,-151,1,0,52,0,240,0,53298,1
2,31457,32471,31730,77970,9454,-4573,-178,-306,67,-8,55,177,513,-143,1,0,52,0,280,0,53298,1
2,31454,32444,31725,77971,9469,-4585,-200,-285,-26,-8,13,182,504,-144,1,0,52,0,320,0,53298,1
2,31450,32359,31727,77972,9484,-4549,-137,-344,4,7,1,186,510,-148,1,0,52,0,360,0,53298,1
2,31451,32329,31724,77973,9498,-4599,-214,-269,27,55,-33,185,507,-149,1,0,52,0,400,0,53298,1
2,31445,32338,31724,77974,9513,-4564,-178,-304,-43,16,25,182,506,-144,1,0,52,0,440,0,53298,1
2,31442,32146,31720,77975,9527,-4585,-246,-243,72,40,1,180,506,-152,1,0,52,0,480,0,53298,1
2,31440,32100,31710,77976,9542,-4560,-173,-326,-69,-3,35,180,512,-150,1,0,52,0,520,0,53298,1
2,31435,31651,31709,77977,9556,-4558,-180,-297,25,48,-33,187,515,-145,1,0,52,0,560,0,53298,1
2,31426,31900,31704,77978,9571,-4591,-203,-310,28,96,-57,175,509,-147,1,0,52,0,600,0,53298,1
2,31370,32925,31660,77979,9584,-4505,-16,-528,123,241,-142,179,511,-153,1,0,52,0,640,0,53298,1
2,31190,32155,31542,77980,9597,-4002,432,-851,858,1171,-614,191,509,-147,1,0,52,0,680,0,53298,1
2,31150,32146,31509,77981,9608,-4931,-619,-48,1400,1186,254,182,516,-144,1,0,52,0,720,0,53298,1
2,31323,32672,31677,77982,9619,-4485,-149,-569,-603,1007,328,176,506,-142,1,0,52,0,760,0,53298,1
2,31397,32725,31807,77983,9629,-4513,-70,-410,574,612,387,178,512,-144,1,0,52,0,800,0,53298,1
2,31929,33155,32374,77984,9640,-4457,245,-683,861,729,990,171,519,-153,1,0,52,0,840,0,53298,1
2,31892,33282,32364,77985,9650,-4246,57,-654,2869,543,1448,163,507,-145,1,0,52,0,880,0,53298,1
2,31886,33953,32380,77986,9660,-4917,-237,-506,4390,685,2042,149,511,-149,1,0,52,0,920,0,53298,1
2,31633,34866,32073,77987,9670,-5084,-758,114,2498,405,1406,144,512,-156,1,0,52,0,960,0,53298,1
1,31489,33844,31919,77988,0,-4627,-789,263,1619,8,265,151,515,-145,1,0,52,1,0,1,53298,1
2,31906,35072,32401,77989,8909,-4427,115,-581,332,42,84,152,518,-160,1,0,52,1,40,1,53298,1
2,31878,34919,32369,77990,8919,-4521,59,-696,371,752,71,147,515,-153,1,0,52,1,80,1,53298,1
2,31806,34386,32303,77991,8928,-4577,-186,-469,90,525,-48,151,517,-153,1,0,52,1,120,1,53298,1
2,31754,34000,32265,77992,8937,-4548,-128,-482,-29,369,-115,158,512,-160,1,0,52,1,160,1,53298,1
2,31756,33789,32241,77993,8946,-4517,-130,-611,91,382,-124,146,504,-152,1,0,52,1,200,1,53298,1
2,31769,33388,32261,77994,8955,-4543,-104,-594,179,92,-26,157,511,-157,1,0,52,1,240,1,53298,1
2,31857,33690,32335,77995,8964,-4540,-106,-522,137,-141,35,154,506,-158,1,0,52,1,280,1,53298,1
2,31711,33418,32204,77996,8975,-4529,-122,-516,-26,-91,41,154,510,-158,1,0,52,1,320,1,53298,1
2,31734,33265,32218,77997,8984,-4536,-93,-530,12,-34,73,149,513,-145,1,0,52,1,360,1,53298,1
2,31746,33253,32244,77998,8994,-4539,-101,-530,4,0,48,149,519,-157,1,0,52,1,400,1,53298,1
2,31694,33282,32198,77999,9005,-4540,-117,-544,42,52,15,151,501,-163,1,0,52,1,440,1,53298,1
2,31582,33009,32056,78000,9015,-4535,-109,-559,40,55,32,143,509,-155,1,0,52,1,480,1,53298,1
2,31446,32985,31943,78001,9026,-4537,-105,-551,15,32,23,148,518,-156,1,0,52,1,520,1,53298,1
2,31436,32894,31910,78002,9035,-4545,-113,-548,8,16,26,147,505,-149,1,0,52,1,560,1,53298,1
2,31463,33141,31945,78003,9046,-4528,-103,-564,-6,3,24,149,515,-157,1,0,52,1,600,1,53298,1
2,31527,32873,32004,78004,9056,-4528,-103,-543,-7,-21,31,161,505,-151,1,0,52,1,640,1,53298,1
2,31569,33100,32059,78005,9067,-4532,-108,-558,-21,-36,41,138,508,-156,1,0,52,1,680,1,53298,1
2,31565,33246,32057,78006,9077,-4535,-109,-533,3,-26,47,160,516,-158,1,0,52,1,720,1,53298,1
2,31554,32908,32042,78007,9087,-4536,-102,-552,0,-4,34,150,514,-152,1,0,52,1,760,1,53298,1
2,31550,33052,32026,78008,9098,-4523,-91,-546,-14,19,7,143,513,-155,1,0,52,1,800,1,53298,1
2,31574,33452,32075,78009,9108,-4537,-105,-556,-12,24,7,153,511,-157,1,0,52,1,840,1,53298,1
2,31575,33371,32079,78010,9119,-4530,-94,-550,-20,10,5,153,507,-147,1,0,52,1,880,1,53298,1
2,31556,33716,32045,78011,9129,-4529,-106,-546,-27,-29,25,140,516,-164,1,0,52,1,920,1,53298,1
2,31545,33290,32036,78012,9139,-4536,-114,-547,-20,-46,47,151,507,-147,1,0,52,1,960,1,53298,1
1,31534,33051,32016,78013,0,-4535,-106,-544,-17,-40,35,152,504,-156,1,0,52,2,0,1,53298,1
2,31487,32840,31974,78014,8455,-4536,-109,-543,-9,-3,24,154,506,-160,1,0,52,2,40,1,53298,1
2,31476,32956,31969,78015,8465,-4524,-90,-555,-17,8,22,152,506,-164,1,0,52,2,80,1,53298,1
2,31394,32759,31880,78016,8475,-4531,-100,-553,-14,3,12,153,513,-159,1,0,52,2,120,1,53298,1
2,31363,32582,31844,78017,8485,-4531,-110,-561,1,0,12,145,505,-157,1,0,52,2,160,1,53298,1
2,31353,32053,31844,78018,8494,-4535,-104,-560,-26,-16,19,158,510,-158,1,0,52,2,200,1,53298,1
2,31305,31685,31793,78019,8504,-4542,-107,-560,-29,-21,24,151,515,-143,1,0,52,2,240,1,53298,1
2,31256,31566,31748,78020,8512,-4535,-105,-550,-34,-16,24,152,498,-154,1,0,52,2,280,1,53298,1
2,31222,31370,31715,78021,8521,-4529,-110,-558,-24,-22,25,158,514,-166,1,0,52,2,320,1,53298,1
2,31177,31499,31661,78022,8530,-4535,-113,-544,-19,-12,15,151,511,-159,1,0,52,2,360,1,53298,1
2,31154,31405,31639,78023,8540,-4521,-100,-549,-18,-13,22,153,517,-157,1,0,52,2,400,1,53298,1
2,31138,30964,31614,78024,8550,-4533,-97,-553,-18,-6,16,156,500,-156,1,0,52,2,440,1,53298,1
2,31106,30896,31585,78025,8561,-4526,-91,-558,-21,-4,23,146,520,-162,1,0,52,2,480,1,53298,1
2,31090,30859,31574,78026,8571,-4526,-101,-544,-27,5,30,152,510,-162,1,0,52,2,520,1,53298,1
2,31075,30560,31552,78027,8582,-4534,-92,-550,-13,-8,19,151,513,-161,1,0,52,2,560,1,53298,1
2,31066,30546,31550,78028,8592,-4530,-99,-550,0,-10,24,160,512,-148,1,0,52,2,600,1,53298,1
2,31056,30364,31545,78029,8602,-4532,-111,-551,-20,-4,14,156,514,-158,1,0,52,2,640,1,53298,1
2,31048,30392,31530,78030,8612,-4540,-98,-559,-10,8,26,147,513,-163,1,0,52,2,680,1,53298,1
2,31050,30268,31530,78031,8622,-4526,-96,-536,-7,18,27,145,507,-151,1,0,52,2,720,1,53298,1
2,31034,30347,31514,78032,8633,-4533,-109,-557,17,20,35,151,517,-159,1,0,52,2,760,1,53298,1
2,31031,30298,31515,78033,8643,-4532,-97,-558,-10,9,18,155,511,-157,1,0,52,2,800,1,53298,1
2,31025,30318,31509,78034,8654,-4546,-106,-567,-5,7,24,154,520,-152,1,0,52,2,840,1,53298,1
2,31028,30189,31508,78035,8663,-4539,-110,-555,-6,8,16,149,507,-153,1,0,52,2,880,1,53298,1
2,31011,30216,31499,78036,8673,-4540,-116,-560,0,6,24,156,512,-154,1,0,52,2,920,1,53298,1
2,31009,30167,31494,78037,8683,-4537,-102,-565,-3,12,29,148,522,-148,1,0,52,2,960,1,53298,1
1,31011,30174,31491,78038,0,-4524,-96,-556,-12,2,29,147,519,-157,1,0,52,3,0,0,53298,1
2,31012,30140,31493,78039,8001,-4526,-111,-555,-22,2,24,155,515,-155,1,0,52,3,40,0,53298,1
2,31008,30148,31491,78040,8011,-4523,-102,-553,-13,-8,27,151,509,-155,1,0,52,3,80,0,53298,1
2,31003,30150,31487,78041,8021,-4531,-104,-565,-12,-19,27,150,510,-160,1,0,52,3,120,0,53298,1
2,31000,30158,31484,78042,8032,-4526,-87,-571,-19,-27,23,147,507,-161,1,0,52,3,160,0,53298,1
2,30997,30128,31479,78043,8043,-4529,-97,-548,-30,-22,9,148,514,-158,1,0,52,3,200,0,53298,1
2,31001,30106,31477,78044,8053,-4524,-107,-566,-38,-19,28,149,509,-161,1,0,52,3,240,0,53298,1
2,31000,30094,31481,78045,8064,-4534,-96,-564,-29,-26,36,149,505,-159,1,0,52,3,280,0,53298,1
2,30998,30069,31478,78046,8074,-4538,-108,-563,-9,-29,20,150,512,-140,1,0,52,3,320,0,53298,1
2,30994,30053,31478,78047,8085,-4548,-106,-554,-24,-14,26,152,516,-156,1,0,52,3,360,0,53298,1
2,30995,30080,31475,78048,8096,-4521,-97,-552,-27,-15,28,150,512,-158,1,0,52,3,400,0,53298,1
2,30994,30061,31475,78049,8107,-4530,-96,-566,-4,-28,25,150,510,-156,1,0,52,3,440,0,53298,1
2,30990,30077,31473,78050,8119,-4531,-86,-547,-8,-33,29,143,517,-153,1,0,52,3,480,0,53298,1
2,30985,30047,31467,78051,8129,-4542,-101,-540,-22,-29,19,151,511,-155,1,0,52,3,520,0,53298,1
2,30982,30050,31468,78052,8139,-4527,-100,-549,-21,-41,19,148,516,-158,1,0,52,3,560,0,53298,1
2,30982,30027,31470,78053,8149,-4534,-112,-552,-27,-33,25,147,503,-161,1,0,52,3,600,0,53298,1
2,30982,29996,31463,78054,8159,-4536,-104,-557,-35,-31,30,153,511,-157,1,0,52,3,640,0,53298,1
2,30980,29990,31464,78055,8169,-4537,-108,-571,-60,-33,28,149,515,-159,1,0,52,3,680,0,53298,1
2,30980,29974,31463,78056,8179,-4536,-116,-540,-52,-46,29,153,509,-165,1,0,52,3,720,0,53298,1
2,30973,30060,31463,78057,8189,-4557,-89,-471,-188,-72,35,154,502,-156,1,0,52,3,760,0,53298,1
2,30988,29975,31472,78058,8200,-4620,-377,-218,-1800,-337,145,145,511,-155,1,0,52,3,800,0,53298,1
2,31003,29958,31474,78059,8210,-4710,-585,-29,-4129,-280,-313,158,506,-150,1,0,52,3,840,0,53298,1
2,31223,30457,31714,78060,8221,-5495,-549,-231,-6364,-914,-622,171,495,-155,1,0,52,3,880,0,53298,1
2,31640,31004,32012,78061,8233,-4496,65,-737,-5534,-1141,-1344,178,506,-154,1,0,52,3,920,0,53298,1
2,31760,34320,32289,78062,8244,-3967,158,-708,-2529,-1004,-849,174,510,-166,1,0,52,3,960,0,53298,1
1,32033,34169,32406,78063,7547,-4403,-120,-467,-1890,-973,-156,177,503,-151,1,0,52,4,0,0,53298,1
2,31862,33053,32220,78064,7560,-4544,-18,-386,-1368,-942,-615,180,510,-146,1,0,52,4,40,0,53298,1
2,31607,33499,32162,78065,7575,-4356,39,-383,-165,-1046,-634,189,511,-151,1,0,52,4,80,0,53298,1
2,31928,34301,32464,78066,7589,-4589,-83,-456,-94,-972,-325,183,505,-153,1,0,52,4,120,0,53298,1
2,31705,31675,32015,78067,7604,-4531,-93,-384,136,-698,-197,188,508,-156,1,0,52,4,160,0,53298,1
2,31884,31491,32334,78068,7619,-4518,-66,-386,128,-486,-155,187,521,-145,1,0,52,4,200,0,53298,1
2,32268,31435,32586,78069,7619,-4498,-113,-312,340,-166,-61,184,502,-150,1,0,52,4,240,0,53298,1
2,32287,31408,32598,78070,7634,-4602,-119,-305,376,-78,40,181,507,-147,1,0,52,4,280,0,53298,1
2,32265,31320,32592,78071,7650,-4529,-91,-300,172,-36,-29,191,505,-153,1,0,52,4,320,0,53298,1
2,32247,31359,32574,78072,7664,-4604,-222,-283,53,27,-47,187,507,-135,1,0,52,4,360,0,53298,1
2,32253,31337,32561,78073,7679,-4581,-173,-257,41,18,-3,186,506,-144,1,0,52,4,400,0,53298,1
2,32249,31242,32567,78074,7695,-4557,-140,-294,225,30,1,185,507,-147,1,0,52,4,440,0,53298,1
2,32245,31206,32561,78075,7711,-4572,-157,-279,186,107,-30,177,513,-137,1,0,52,4,480,0,53298,1
2,32244,31249,32568,78076,7727,-4584,-190,-260,122,93,-36,177,505,-151,1,0,52,4,520,0,53298,1
2,32232,31230,32552,78077,7743,-4586,-179,-282,85,30,-2,187,507,-149,1,0,52,4,560,0,53298,1
2,32236,31206,32555,78078,7758,-4553,-168,-299,60,31,-4,188,512,-154,1,0,52,4,600,0,53298,1
2,32244,31260,32565,78079,7773,-4585,-179,-289,95,29,15,182,496,-138,1,0,52,4,640,0,53298,1
2,32237,31202,32560,78080,7789,-4567,-171,-317,92,13,17,185,509,-149,1,0,52,4,680,0,53298,1
2,32260,31204,32580,78081,7804,-4580,-176,-308,65,23,10,190,516,-158,1,0,52,4,720,0,53298,1
2,32244,31260,32574,78082,7819,-4585,-180,-293,145,2,35,178,504,-146,1,0,52,4,760,0,53298,1
2,32252,31235,32583,78083,7834,-4583,-205,-297,128,-6,37,195,513,-153,1,0,52,4,800,0,53298,1
2,32245,31146,32576,78084,7850,-4573,-182,-296,70,12,36,186,508,-150,1,0,52,4,840,0,53298,1
2,32250,31168,32572,78085,7866,-4586,-203,-283,161,16,42,188,500,-156,1,0,52,4,880,0,53298,1
2,32255,31168,32588,78086,7882,-4566,-168,-323,102,-16,69,193,499,-147,1,0,52,4,920,0,53298,1
2,32248,31136,32577,78087,7899,-4594,-188,-299,0,-16,36,189,511,-151,1,0,52,4,960,0,53298,1
1,32260,31129,32583,78088,7094,-4581,-208,-293,41,-10,44,176,504,-152,1,0,52,5,0,0,53298,1
2,32250,31141,32581,78089,7110,-4586,-210,-302,96,-17,53,175,515,-147,1,0,52,5,40,0,53298,1
2,32250,31163,32584,78090,7127,-4568,-186,-293,53,-27,56,180,514,-146,1,0,52,5,80,0,53298,1
2,32244,31183,32577,78091,7141,-4565,-183,-305,61,-21,59,183,505,-139,1,0,52,5,120,0,53298,1
2,32266,31229,32587,78092,7156,-4574,-180,-291,52,-8,43,177,507,-149,1,0,52,5,160,0,53298,1
2,32268,31202,32588,78093,7171,-4568,-182,-298,19,-14,46,187,511,-155,1,0,52,5,200,0,53298,1
2,32256,31215,32576,78094,7185,-4558,-153,-305,2,-31,60,182,506,-154,1,0,52,5,240,0,53298,1
2,32248,31232,32574,78095,7200,-4574,-178,-296,8,-10,35,180,510,-156,1,0,52,5,280,0,53298,1
2,32249,31206,32571,78096,7215,-4574,-182,-283,34,-10,31,183,511,-153,1,0,52,5,320,0,53298,1
2,32226,31203,32547,78097,7229,-4567,-169,-302,50,-16,52,186,506,-146,1,0,52,5,360,0,53298,1
2,32230,31189,32560,78098,7243,-4560,-159,-303,-18,-20,41,184,508,-134,1,0,52,5,400,0,53298,1
2,32244,31223,32569,78099,7258,-4569,-181,-302,-10,8,22,186,514,-152,1,0,52,5,440,0,53298,1
2,32247,31210,32547,78100,7273,-4594,-207,-281,26,-4,26,176,512,-142,1,0,52,5,480,0,53298,1
2,32230,31188,32558,78101,7287,-4569,-191,-301,-24,-39,71,178,514,-142,1,0,52,5,520,0,53298,1
2,32226,31194,32546,78102,7302,-4568,-169,-301,-4,-25,59,191,513,-151,1,0,52,5,560,0,53298,1
2,32222,31214,32542,78103,7317,-4587,-227,-299,-25,-38,71,180,508,-154,1,0,52,5,600,0,53298,1
2,32218,31250,32542,78104,7332,-4571,-187,-299,-83,-86,106,188,504,-154,1,0,52,5,640,0,53298,1
2,32231,31285,32565,78105,7347,-4567,-155,-295,-77,-96,104,179,513,-149,1,0,52,5,680,0,53298,1
2,32244,31284,32566,78106,7362,-4583,-177,-292,-51,-99,107,177,501,-149,1,0,52,5,720,0,53298,1
2,32246,31374,32566,78107,7377,-4565,-175,-278,-14,-83,107,181,515,-145,1,0,52,5,760,0,53298,1
2,32253,31353,32568,78108,7392,-4594,-214,-227,-55,-152,162,185,503,-145,1,0,52,5,800,0,53298,1
2,32262,31355,32587,78109,7408,-4555,-160,-287,-100,-239,187,189,509,-151,1,0,52,5,840,0,53298,1
2,32263,31348,32584,78110,7423,-4536,-127,-333,73,-170,127,188,504,-142,1,0,52,5,880,0,53298,1
2,32255,31332,32562,78111,7438,-4591,-176,-270,-9,-88,79,184,506,-140,1,0,52,5,920,0,53298,1
2,32245,31407,32558,78112,7438,-4516,-61,-333,-60,-5,5,188,508,-142,1,0,52,5,960,0,53298,1
1,32244,31335,32552,78113,6641,-4598,-136,-304,149,136,-111,181,515,-149,1,0,52,6,0,1,53298,1
2,32167,31260,32525,78114,6655,-4499,-12,-503,95,309,-222,181,519,-145,1,0,52,6,40,1,53298,1
2,32060,31203,32475,78115,6667,-3976,510,-1192,619,1290,-827,186,508,-146,1,0,52,6,80,1,53298,1
2,32001,34678,32472,78116,6678,-3947,797,-624,2366,2240,-44,172,514,-146,1,0,52,6,120,1,53298,1
2,31696,34351,32170,78117,6689,-4418,96,-346,5520,1611,2076,166,514,-150,1,0,52,6,160,1,53298,1
2,31510,34655,32134,78118,6700,-5382,-458,-771,6756,711,3374,145,507,-155,1,0,52,6,200,1,53298,1
2,31910,34791,32276,78119,6710,-5544,-2197,547,2688,806,1744,157,509,-153,1,0,52,6,240,1,53298,1
2,31478,34022,31981,78120,6721,-4607,-227,586,391,-781,-100,156,506,-156,1,0,52,6,280,1,53298,1
2,31431,33275,31914,78121,6731,-4070,942,-1197,-2486,-97,-645,157,509,-151,1,0,52,6,320,1,53298,1
2,31362,32926,31848,78122,6741,-4488,-294,-769,-2031,1240,69,159,503,-153,1,0,52,6,360,1,53298,1
2,31354,31920,31850,78123,6750,-4624,-795,-280,-1323,226,-65,151,507,-159,1,0,52,6,400,1,53298,1
2,31382,30752,31872,78124,6759,-4505,148,-388,-518,584,-197,161,511,-155,1,0,52,6,440,1,53298,1
2,31396,30503,31886,78125,6770,-4410,-247,-624,553,209,-41,155,509,-143,1,0,52,6,480,1,53298,1
2,31393,30397,31883,78126,6781,-4578,-133,-542,693,38,176,146,514,-156,1,0,52,6,520,1,53298,1
2,31435,30409,31945,78127,6791,-4554,-1,-368,960,-56,310,157,513,-157,1,0,52,6,560,1,53298,1
2,31517,30489,32010,78128,6802,-4547,-105,-571,646,-7,344,148,508,-154,1,0,52,6,600,1,53298,1
2,31572,30493,32081,78129,6813,-4560,-62,-595,796,73,278,153,511,-153,1,0,52,6,640,1,53298,1
2,31511,30446,31992,78130,6824,-4506,-90,-532,776,56,210,154,510,-156,1,0,52,6,680,1,53298,1
2,31447,30447,31947,78131,6836,-4525,-59,-539,683,118,242,153,501,-159,1,0,52,6,720,1,53298,1
2,31432,30441,31903,78132,6847,-4553,-51,-543,583,81,200,152,510,-162,1,0,52,6,760,1,53298,1
2,31420,30435,31895,78133,6858,-4533,-85,-548,429,11,138,144,512,-150,1,0,52,6,800,1,53298,1
2,31385,30412,31883,78134,6869,-4543,-25,-525,375,34,106,153,515,-153,1,0,52,6,840,1,53298,1
2,31374,30432,31871,78135,6880,-4537,-64,-539,66,42,-4,147,505,-161,1,0,52,6,880,1,53298,1
2,31359,30417,31842,78136,6891,-4538,-71,-546,-32,43,-41,148,514,-162,1,0,52,6,920,1,53298,1
2,31308,30378,31793,78137,6891,-4548,-94,-548,-85,22,-43,152,504,-154,1,0,52,6,960,1,53298,1
1,31283,30391,31770,78138,6187,-4531,-77,-552,-50,-3,-5,154,514,-160,1,0,52,7,0,1,53298,1
2,31272,30366,31756,78139,6198,-4533,-64,-555,-2,-42,28,146,508,-166,1,0,52,7,40,1,53298,1
2,31255,30376,31739,78140,6210,-4552,-70,-535,2,-40,20,150,510,-162,1,0,52,7,80,1,53298,1
2,31207,30346,31698,78141,6220,-4536,-72,-541,-30,4,-9,143,513,-145,1,0,52,7,120,1,53298,1
2,31180,30349,31673,78142,6231,-4535,-87,-558,-24,25,-4,154,512,-158,1,0,52,7,160,1,53298,1
2,31172,30360,31655,78143,6243,-4524,-63,-543,-21,4,8,148,514,-158,1,0,52,7,200,1,53298,1
2,31165,30374,31649,78144,6255,-4528,-72,-535,-12,-20,16,146,508,-146,1,0,52,7,240,1,53298,1
2,31160,30374,31647,78145,6266,-4529,-68,-533,-42,-31,15,156,508,-160,1,0,52,7,280,1,53298,1
2,31147,30380,31634,78146,6277,-4529,-82,-538,-8,-21,39,145,509,-153,1,0,52,7,320,1,53298,1
2,31145,30370,31628,78147,6289,-4531,-87,-550,47,-13,51,148,508,-158,1,0,52,7,360,1,53298,1
2,31129,30368,31617,78148,6300,-4538,-48,-531,110,-4,74,146,512,-162,1,0,52,7,400,1,53298,1
2,31121,30375,31611,78149,6311,-4523,-77,-540,10,-3,22,143,511,-151,1,0,52,7,440,1,53298,1
2,31115,30361,31603,78150,6321,-4539,-80,-555,-19,9,30,154,510,-154,1,0,52,7,480,1,53298,1
2,31115,30392,31603,78151,6332,-4527,-59,-567,-3,-2,34,158,508,-162,1,0,52,7,520,1,53298,1
2,31108,30385,31596,78152,6344,-4524,-60,-562,-8,-30,23,147,513,-165,1,0,52,7,560,1,53298,1
2,31109,30372,31596,78153,6355,-4525,-76,-547,-15,-28,11,145,513,-153,1,0,52,7,600,1,53298,1
2,31102,30375,31587,78154,6366,-4535,-77,-550,-32,-13,30,148,502,-156,1,0,52,7,640,1,53298,1
2,31094,30385,31580,78155,6377,-4536,-73,-550,-3,-4,38,149,507,-151,1,0,52,7,680,1,53298,1
2,31097,30367,31579,78156,6388,-4534,-65,-552,9,-9,37,151,511,-157,1,0,52,7,720,1,53298,1
2,31091,30383,31584,78157,6399,-4534,-72,-551,-5,2,28,148,502,-148,1,0,52,7,760,1,53298,1
2,31089,30382,31577,78158,6411,-4536,-69,-562,-11,-3,30,153,507,-157,1,0,52,7,800,1,53298,1
2,31089,30393,31573,78159,6422,-4529,-64,-554,-30,-22,14,149,513,-157,1,0,52,7,840,1,53298,1
2,31089,30406,31572,78160,6433,-4542,-64,-555,-56,-67,-10,142,506,-156,1,0,52,7,880,1,53298,1
2,31083,30387,31567,78161,6444,-4541,-79,-546,-53,-60,-16,147,515,-155,1,0,52,7,920,1,53298,1
2,31087,30383,31569,78162,6444,-4528,-75,-527,-45,-37,9,145,509,-155,1,0,52,7,960,1,53298,1
1,31082,30404,31565,78163,5733,-4537,-75,-535,-1,-8,31,154,510,-164,1,0,52,8,0,1,53298,1
2,31078,30390,31555,78164,5743,-4539,-88,-553,10,29,52,148,508,-158,1,0,52,8,40,1,53298,1
2,31074,30380,31554,78165,5754,-4544,-73,-560,4,16,56,148,512,-156,1,0,52,8,80,1,53298,1
2,31070,30388,31554,78166,5765,-4521,-51,-560,-26,-22,24,154,500,-166,1,0,52,8,120,1,53298,1
2,31070,30381,31551,78167,5776,-4532,-88,-547,-30,-47,6,142,510,-154,1,0,52,8,160,1,53298,1
2,31070,30390,31551,78168,5788,-4526,-78,-541,-41,-46,12,144,518,-152,1,0,52,8,200,1,53298,1
2,31070,30398,31554,78169,5800,-4540,-80,-539,-15,-37,19,148,514,-146,1,0,52,8,240,1,53298,1
2,31067,30410,31551,78170,5811,-4530,-70,-548,-18,-17,40,150,518,-158,1,0,52,8,280,1,53298,1
2,31067,30411,31554,78171,5822,-4524,-60,-540,-32,-10,34,152,504,-154,1,0,52,8,320,1,53298,1
2,31074,30409,31556,78172,5834,-4543,-76,-542,-16,-14,25,141,507,-153,1,0,52,8,360,1,53298,1
2,31068,30401,31546,78173,5845,-4519,-53,-536,-24,-23,15,158,500,-150,1,0,52,8,400,1,53298,1
2,31064,30410,31548,78174,5856,-4526,-88,-546,-23,-25,13,152,510,-154,1,0,52,8,440,1,53298,1
2,31060,30402,31545,78175,5867,-4539,-75,-525,-28,-18,27,153,507,-157,1,0,52,8,480,1,53298,1
2,31059,30403,31548,78176,5879,-4525,-76,-533,-22,-23,11,146,506,-144,1,0,52,8,520,1,53298,1
2,31057,30426,31550,78177,5890,-4528,-72,-546,-43,-10,1,147,513,-157,1,0,52,8,560,1,53298,1
2,31046,30173,31546,78178,5902,-4552,-279,-282,-675,-111,69,156,504,-164,1,0,52,8,600,1,53298,1
2,31076,30155,31555,78179,5913,-4766,-528,-145,-3589,-442,-86,155,509,-163,1,0,52,8,640,1,53298,1
2,31169,30161,31624,78180,5924,-5137,-208,-389,-3426,-455,-576,162,506,-160,1,0,52,8,680,1,53298,1
2,31529,30444,31968,78181,5934,-4896,-223,-361,-2879,-910,-944,175,507,-157,1,0,52,8,720,1,53298,1
2,31567,30441,31986,78182,5947,-4281,91,-505,-1344,-789,-766,174,510,-158,1,0,52,8,760,1,53298,1
2,31953,30729,32357,78183,5960,-3942,282,-756,-666,-1103,-519,174,512,-158,1,0,52,8,800,1,53298,1
2,32052,30750,32418,78184,5973,-4570,214,-538,-226,-852,-436,173,501,-159,1,0,52,8,840,1,53298,1
2,31569,30655,31929,78185,5987,-4586,-46,-438,-200,-636,-360,171,507,-159,1,0,52,8,880,1,53298,1
2,31699,30640,32140,78186,6000,-4557,-32,-499,-138,-551,-352,170,502,-152,1,0,52,8,920,1,53298,1
2,31955,30884,32318,78187,6000,-4476,-71,-428,-6,-470,-217,171,513,-155,1,0,52,8,960,1,53298,1
1,32030,31325,32364,78188,5281,-4654,-161,-330,-297,-464,-91,181,515,-155,1,0,52,9,0,0,53298,1
2,32196,31575,32556,78189,5295,-4470,-26,-367,-339,-429,-85,185,511,-145,1,0,52,9,40,0,53298,1
2,32169,33052,32528,78190,5309,-4528,-64,-389,-122,-299,44,179,501,-153,1,0,52,9,80,0,53298,1
2,32150,33306,32481,78191,5323,-4571,-161,-380,-122,-77,40,173,513,-153,1,0,52,9,120,0,53298,1
2,31849,33259,32202,78192,5337,-4584,-161,-311,33,-36,31,170,508,-150,1,0,52,9,160,0,53298,1
2,31755,32988,32099,78193,5352,-4559,-92,-361,53,-83,66,180,506,-164,1,0,52,9,200,0,53298,1
2,31743,33168,32074,78194,5367,-4558,-145,-330,-73,-21,-9,173,507,-141,1,0,52,9,240,0,53298,1
2,31717,33190,32053,78195,5382,-4594,-197,-264,-29,-63,46,179,497,-145,1,0,52,9,280,0,53298,1
2,31619,33033,31972,78196,5398,-4552,-112,-360,-88,-150,109,176,512,-162,1,0,52,9,320,0,53298,1
2,31555,33100,31857,78197,5412,-4560,-159,-289,-39,-96,50,173,517,-145,1,0,52,9,360,0,53298,1
2,31483,32939,31815,78198,5427,-4570,-139,-327,-137,-103,66,175,507,-153,1,0,52,9,400,0,53298,1
2,31459,32963,31796,78199,5442,-4564,-128,-336,-100,-105,40,182,508,-158,1,0,52,9,440,0,53298,1
2,31446,32905,31777,78200,5457,-4553,-132,-322,-72,-50,32,173,507,-153,1,0,52,9,480,0,53298,1
2,31440,33147,31778,78201,5472,-4579,-153,-285,-57,-20,18,185,511,-163,1,0,52,9,520,0,53298,1
2,31457,33303,31783,78202,5487,-4556,-129,-321,-84,-39,49,178,502,-146,1,0,52,9,560,0,53298,1
2,31483,33498,31812,78203,5501,-4552,-120,-353,-9,-13,15,172,506,-150,1,0,52,9,600,0,53298,1
2,31531,33523,31861,78204,5515,-4585,-159,-304,40,39,-4,186,502,-150,1,0,52,9,640,0,53298,1
2,31585,33550,31928,78205,5530,-4550,-141,-306,-57,-18,31,171,511,-149,1,0,52,9,680,0,53298,1
2,31623,33832,31962,78206,5544,-4568,-124,-326,-96,-22,35,169,521,-147,1,0,52,9,720,0,53298,1
2,31643,33926,31971,78207,5559,-4575,-161,-291,-55,-6,19,178,506,-150,1,0,52,9,760,0,53298,1
2,31640,33938,31972,78208,5573,-4559,-129,-317,-74,-29,57,176,516,-154,1,0,52,9,800,0,53298,1
2,31657,33923,31983,78209,5588,-4570,-133,-318,-33,-21,35,180,504,-144,1,0,52,9,840,0,53298,1
2,31675,33726,32003,78210,5603,-4578,-161,-306,-7,8,20,177,509,-151,1,0,52,9,880,0,53298,1
2,31695,33491,32022,78211,5617,-4558,-136,-314,-51,-27,51,184,512,-148,1,0,52,9,920,0,53298,1
2,31715,33484,32043,78212,5617,-4571,-145,-322,-37,-49,73,177,503,-141,1,0,52,9,960,0,53298,1
1,31709,33466,32049,78213,4829,-4562,-129,-331,-33,-34,57,177,511,-137,1,0,52,10,0,1,53298,1
2,31740,33653,32072,78214,4843,-4557,-116,-319,18,0,26,175,505,-159,1,0,52,10,40,1,53298,1
2,31724,33794,32049,78215,4857,-4567,-135,-306,78,36,-22,173,499,-149,1,0,52,10,80,1,53298,1
2,31728,33610,32065,78216,4872,-4586,-185,-290,-6,26,1,172,510,-148,1,0,52,10,120,1,53298,1
2,31738,33345,32071,78217,4885,-4575,-146,-334,-33,-52,71,176,498,-144,1,0,52,10,160,1,53298,1
2,31758,33460,32094,78218,4899,-4562,-141,-316,-45,-53,65,172,506,-162,1,0,52,10,200,1,53298,1
2,31783,33214,32117,78219,4913,-4568,-146,-289,-73,-49,77,181,511,-145,1,0,52,10,240,1,53298,1
2,31784,33199,32116,78220,4928,-4566,-143,-325,-23,-53,86,181,517,-151,1,0,52,10,280,1,53298,1
2,31771,33117,32110,78221,4943,-4548,-98,-355,4,-3,53,178,510,-148,1,0,52,10,320,1,53298,1
2,31788,33011,32120,78222,4958,-4561,-110,-319,108,89,-66,167,509,-143,1,0,52,10,360,1,53298,1
2,31807,33593,32142,78223,4973,-4562,-117,-356,50,101,-80,178,510,-144,1,0,52,10,400,1,53298,1
2,31803,33895,32144,78224,4986,-4586,-173,-311,100,118,-85,182,506,-164,1,0,52,10,440,1,53298,1
2,31794,34619,32147,78225,5000,-4523,-84,-400,147,125,-57,177,507,-141,1,0,52,10,480,1,53298,1
2,31610,34598,31923,78226,5012,-4221,419,-924,494,582,-256,178,510,-152,1,0,52,10,520,1,53298,1
2,31437,34036,31866,78227,5022,-3824,901,-901,1628,1700,16,168,506,-154,1,0,52,10,560,1,53298,1
2,31586,34254,32098,78228,5033,-4253,236,-648,4602,1748,2090,150,504,-152,1,0,52,10,600,1,53298,1
2,31549,34048,32019,78229,5044,-5178,-463,-1156,9018,1110,3716,147,513,-153,1,0,52,10,640,1,53298,1
2,31322,32961,31864,78230,5055,-5645,-2158,673,7757,1478,2077,140,516,-164,1,0,52,10,680,1,53298,1
2,31195,30290,31720,78231,5066,-4635,185,900,3001,-606,-56,137,507,-151,1,0,52,10,720,1,53298,1
2,31165,30273,31643,78232,5077,-4169,327,-775,697,-639,324,134,504,-164,1,0,52,10,760,1,53298,1
2,31114,30262,31624,78233,5088,-4542,52,-1043,404,1376,161,141,507,-165,1,0,52,10,800,1,53298,1
2,31067,30247,31568,78234,5099,-4641,-197,-476,-849,473,-40,136,510,-166,1,0,52,10,840,1,53298,1
2,31053,30283,31539,78235,5110,-4483,60,-431,-185,233,-213,137,505,-157,1,0,52,10,880,1,53298,1
2,31056,30323,31544,78236,5121,-4493,-148,-730,-113,754,-284,139,507,-169,1,0,52,10,920,1,53298,1
2,31071,30357,31563,78237,5121,-4570,-93,-737,425,240,-106,138,514,-162,1,0,52,10,960,1,53298,1
1,31072,30365,31567,78238,4375,-4504,-7,-542,268,-377,23,128,512,-152,1,0,52,11,0,1,53298,1
2,31062,30365,31559,78239,4385,-4517,-92,-550,-249,-197,80,135,509,-167,1,0,52,11,40,1,53298,1
2,31055,30378,31554,78240,4396,-4534,-53,-610,-193,-53,115,137,519,-159,1,0,52,11,80,1,53298,1
2,31053,30376,31550,78241,4406,-4508,-35,-584,-31,-60,48,137,503,-163,1,0,52,11,120,1,53298,1
2,31053,30373,31548,78242,4415,-4531,-68,-586,3,24,-18,139,507,-165,1,0,52,11,160,1,53298,1
2,31047,30373,31542,78243,4425,-4505,-52,-590,-17,37,-4,142,518,-166,1,0,52,11,200,1,53298,1
2,31047,30380,31538,78244,4434,-4520,-69,-609,-5,14,23,139,511,-165,1,0,52,11,240,1,53298,1
2,31048,30381,31545,78245,4444,-4531,-78,-606,24,29,24,138,512,-160,1,0,52,11,280,1,53298,1
2,31049,30396,31546,78246,4454,-4530,-52,-593,23,24,25,139,505,-165,1,0,52,11,320,1,53298,1
2,31043,30400,31542,78247,4464,-4521,-51,-619,-10,31,-8,146,514,-160,1,0,52,11,360,1,53298,1
2,31046,30402,31537,78248,4474,-4531,-82,-616,-46,3,-2,137,513,-163,1,0,52,11,400,1,53298,1
2,31043,30391,31532,78249,4485,-4522,-76,-615,-74,-48,21,142,510,-154,1,0,52,11,440,1,53298,1
2,31031,30380,31528,78250,4496,-4513,-61,-585,-24,-80,55,133,511,-147,1,0,52,11,480,1,53298,1
2,31035,30407,31520,78251,4507,-4513,-51,-601,0,-55,38,135,511,-165,1,0,52,11,520,1,53298,1
2,31027,30399,31518,78252,4517,-4519,-53,-613,-21,20,17,140,510,-166,1,0,52,11,560,1,53298,1
2,31026,30394,31520,78253,4529,-4522,-62,-602,-18,60,-3,142,508,-154,1,0,52,11,600,1,53298,1
2,31026,30378,31518,78254,4541,-4513,-67,-614,-14,40,9,134,518,-158,1,0,52,11,640,1,53298,1
2,31021,30386,31514,78255,4552,-4517,-62,-606,-18,-20,21,143,513,-159,1,0,52,11,680,1,53298,1
2,31020,30388,31509,78256,4564,-4515,-64,-590,-25,-53,33,126,506,-152,1,0,52,11,720,1,53298,1
2,31017,30391,31505,78257,4575,-4510,-50,-605,-31,-46,39,131,515,-157,1,0,52,11,760,1,53298,1
2,31009,30384,31502,78258,4585,-4519,-61,-596,1,-12,22,139,513,-165,1,0,52,11,800,1,53298,1
2,31010,30389,31501,78259,4595,-4516,-62,-609,12,10,15,139,507,-157,1,0,52,11,840,1,53298,1
2,31006,30400,31498,78260,4606,-4507,-50,-593,16,16,30,143,507,-167,1,0,52,11,880,1,53298,1
2,31001,30409,31496,78261,4617,-4511,-45,-603,15,6,34,133,501,-153,1,0,52,11,920,1,53298,1
2,30997,30410,31495,78262,4617,-4514,-53,-586,-6,-4,19,134,508,-154,1,0,52,11,960,1,53298,1
1,30999,30404,31495,78263,3923,-4529,-60,-600,-36,-4,22,141,509,-153,1,0,52,12,0,0,53298,1
2,30991,30399,31492,78264,3934,-4510,-59,-600,-73,-26,2,135,505,-163,1,0,52,12,40,0,53298,1
2,30998,30406,31487,78265,3946,-4527,-69,-595,-58,-26,5,135,507,-149,1,0,52,12,80,0,53298,1
2,30990,30381,31493,78266,3957,-4523,-44,-579,-69,-46,10,139,511,-159,1,0,52,12,120,0,53298,1
2,30985,30099,31487,78267,3968,-4565,-105,-336,-983,-235,139,134,516,-156,1,0,52,12,160,0,53298,1
2,30969,29930,31471,78268,3981,-4487,-53,-733,-1613,-162,110,136,508,-170,1,0,52,12,200,0,53298,1
2,30969,29949,31470,78269,3993,-4447,0,-735,-946,21,-18,134,510,-160,1,0,52,12,240,0,53298,1
2,30969,29934,31470,78270,4004,-4520,-59,-597,-280,-39,-7,146,500,-162,1,0,52,12,280,0,53298,1
2,30967,29981,31470,78271,4015,-4518,-58,-591,135,-25,-2,141,501,-159,1,0,52,12,320,0,53298,1
2,30975,30115,31479,78272,4026,-4499,-29,-632,326,-28,-2,146,510,-162,1,0,52,12,360,0,53298,1
2,30976,30198,31480,78273,4037,-4514,-40,-579,379,-26,-12,139,513,-163,1,0,52,12,400,0,53298,1
2,30978,30239,31480,78274,4049,-4542,-93,-557,272,11,-19,147,507,-155,1,0,52,12,440,0,53298,1
2,30977,30238,31474,78275,4060,-4523,-41,-566,264,13,-5,137,513,-157,1,0,52,12,480,0,53298,1
2,30978,30248,31471,78276,4071,-4520,-40,-596,195,37,2,138,516,-164,1,0,52,12,520,0,53298,1
2,30977,30259,31471,78277,4081,-4528,-58,-581,76,49,-1,131,513,-157,1,0,52,12,560,0,53298,1
2,30975,30252,31474,78278,4093,-4528,-74,-588,5,37,12,149,513,-157,1,0,52,12,600,0,53298,1
2,30970,30257,31472,78279,4104,-4518,-54,-606,3,18,15,143,509,-157,1,0,52,12,640,0,53298,1
2,30971,30264,31467,78280,4115,-4527,-55,-591,-28,-21,6,144,514,-162,1,0,52,12,680,0,53298,1
2,30966,30239,31472,78281,4125,-4525,-58,-605,-155,-32,-15,137,501,-163,1,0,52,12,720,0,53298,1
2,30962,30005,31464,78282,4137,-4595,-175,-279,-1170,-254,86,134,514,-144,1,0,52,12,760,0,53298,1
2,30976,30107,31471,78283,4148,-4716,-456,-509,-3279,-306,-217,144,514,-146,1,0,52,12,800,0,53298,1
2,30960,29929,31449,78284,4159,-4465,132,-613,-2816,-193,-620,154,514,-162,1,0,52,12,840,0,53298,1
2,30989,29949,31468,78285,4170,-4654,-344,-404,-2408,-280,-602,151,513,-159,1,0,52,12,880,0,53298,1
2,31030,29998,31501,78286,4181,-4937,-213,-159,-2667,-412,-592,156,500,-164,1,0,52,12,920,0,53298,1
2,31074,30010,31522,78287,4181,-4482,10,-729,-2357,-386,-809,165,509,-163,1,0,52,12,960,0,53298,1
1,31170,30062,31596,78288,3469,-4415,3,-537,-1199,-346,-451,155,503,-157,1,0,52,13,0,1,53298,1
2,31292,30358,31667,78289,3481,-4626,-76,-348,-1232,-556,-69,166,518,-160,1,0,52,13,40,1,53298,1
2,31445,30419,31860,78290,3493,-4413,-21,-595,-1251,-793,-300,164,512,-150,1,0,52,13,80,1,53298,1
2,31933,30762,32314,78291,3506,-4414,-65,-450,-771,-1012,-518,174,508,-152,1,0,52,13,120,1,53298,1
2,31815,30545,32179,78292,3520,-4526,-3,-529,-655,-939,-373,163,513,-143,1,0,52,13,160,1,53298,1
2,31612,30720,31971,78293,3534,-4469,-35,-490,-349,-761,-218,170,514,-144,1,0,52,13,200,1,53298,1
2,31703,30582,32157,78294,3549,-4554,-57,-416,-373,-666,-174,173,519,-151,1,0,52,13,240,1,53298,1
2,32006,32204,32320,78295,3564,-4495,-64,-404,-389,-533,-66,172,510,-144,1,0,52,13,280,1,53298,1
2,32204,32920,32545,78296,3578,-4527,-30,-422,-262,-373,22,172,508,-140,1,0,52,13,320,1,53298,1
2,31715,32801,32078,78297,3594,-4536,-96,-389,-201,-137,25,168,514,-150,1,0,52,13,360,1,53298,1
2,31601,32789,31950,78298,3608,-4570,-99,-338,-47,-40,26,174,506,-152,1,0,52,13,400,1,53298,1
2,31590,33291,31918,78299,3623,-4575,-122,-322,-76,-51,35,179,511,-153,1,0,52,13,440,1,53298,1
2,31577,33446,31921,78300,3639,-4538,-88,-345,-85,-36,26,175,511,-157,1,0,52,13,480,1,53298,1
2,31580,33577,31919,78301,3654,-4567,-122,-357,-19,58,-44,167,503,-149,1,0,52,13,520,1,53298,1
2,31578,33443,31912,78302,3668,-4580,-150,-310,19,20,-6,167,509,-141,1,0,52,13,560,1,53298,1
2,31614,33887,31950,78303,3682,-4556,-123,-368,-60,-23,38,167,511,-157,1,0,52,13,600,1,53298,1
2,31637,34137,31973,78304,3696,-4574,-121,-335,-69,-12,23,170,514,-150,1,0,52,13,640,1,53298,1
2,31646,34118,31976,78305,3710,-4564,-115,-321,-67,-34,37,172,506,-152,1,0,52,13,680,1,53298,1
2,31686,34042,32001,78306,3723,-4550,-119,-358,-68,-40,32,179,519,-155,1,0,52,13,720,1,53298,1
2,31689,34022,32012,78307,3738,-4573,-120,-325,-48,-11,32,170,498,-150,1,0,52,13,760,1,53298,1
2,31675,34351,32006,78308,3752,-4568,-126,-337,-30,-23,40,165,499,-139,1,0,52,13,800,1,53298,1
2,31680,34249,32019,78309,3766,-4549,-113,-359,-41,-20,42,171,511,-151,1,0,52,13,840,1,53298,1
2,31676,34227,32004,78310,3780,-4565,-126,-345,-25,12,9,176,510,-146,1,0,52,13,880,1,53298,1
2,31695,34295,32017,78311,3794,-4555,-122,-324,-15,11,13,175,509,-147,1,0,52,13,920,1,53298,1
2,31697,34351,32023,78312,3794,-4560,-124,-347,-8,-16,39,170,518,-142,1,0,52,13,960,1,53298,1
1,31706,34338,32030,78313,3018,-4557,-130,-351,-60,-13,31,170,512,-148,1,0,52,14,0,1,53298,1
2,31702,34169,32035,78314,3032,-4568,-131,-343,-37,-13,44,173,495,-153,1,0,52,14,40,1,53298,1
2,31705,34316,32039,78315,3045,-4544,-108,-339,-44,-25,26,170,506,-144,1,0,52,14,80,1,53298,1
2,31713,34484,32040,78316,3059,-4570,-140,-351,-21,-15,33,165,509,-155,1,0,52,14,120,1,53298,1
2,31714,34611,32044,78317,3074,-4573,-133,-344,-38,-21,67,171,505,-151,1,0,52,14,160,1,53298,1
2,31717,34568,32048,78318,3088,-4563,-130,-344,-90,-45,52,176,504,-152,1,0,52,14,200,1,53298,1
2,31710,34436,32036,78319,3102,-4568,-127,-373,-63,-17,7,176,510,-148,1,0,52,14,240,1,53298,1
2,31715,34447,32052,78320,3117,-4589,-139,-328,26,33,44,168,508,-152,1,0,52,14,280,1,53298,1
2,31722,34404,32056,78321,3131,-4562,-133,-350,-79,-14,39,174,514,-152,1,0,52,14,320,1,53298,1
2,31697,34127,32045,78322,3145,-4559,-121,-350,-40,-32,26,171,517,-147,1,0,52,14,360,1,53298,1
2,31678,34140,32004,78323,3159,-4565,-124,-328,-40,-31,62,177,509,-145,1,0,52,14,400,1,53298,1
2,31663,33935,31982,78324,3174,-4574,-144,-338,-134,-67,84,168,516,-150,1,0,52,14,440,1,53298,1
2,31657,33907,31988,78325,3188,-4552,-106,-338,-114,-71,99,179,509,-151,1,0,52,14,480,1,53298,1
2,31658,34007,31980,78326,3202,-4585,-128,-303,-42,-75,81,174,512,-150,1,0,52,14,520,1,53298,1
2,31656,33976,31987,78327,3217,-4535,-99,-358,-102,-62,67,167,517,-153,1,0,52,14,560,1,53298,1
2,31634,34092,31964,78328,3232,-4583,-144,-335,-39,-38,253,172,514,-150,1,0,52,14,600,1,53298,1
2,31632,33882,31956,78329,3246,-4523,-73,-378,-4,13,-137,173,507,-153,1,0,52,14,640,1,53298,1
2,31630,34450,31967,78330,3260,-4534,-81,-417,83,167,-224,167,509,-133,1,0,52,14,680,1,53298,1
2,31557,33933,31913,78331,3273,-4259,506,-959,352,768,-480,171,507,-153,1,0,52,14,720,1,53298,1
2,31558,33155,31994,78332,3285,-3933,821,-802,1047,1530,-341,171,513,-153,1,0,52,14,760,1,53298,1
2,31712,33012,32133,78333,3296,-4303,-15,-586,1350,1730,1160,155,505,-155,1,0,52,14,800,1,53298,1
2,31498,32575,31966,78334,3308,-5143,-855,252,2574,226,2314,152,500,-156,1,0,52,14,840,1,53298,1
2,31425,32591,31895,78335,3318,-5201,-1033,-139,-296,-303,1091,157,509,-153,1,0,52,14,880,1,53298,1
2,31518,32729,31939,78336,3328,-4344,127,-346,16,-415,-271,157,509,-149,1,0,52,14,920,1,53298,1
2,31417,32499,31863,78337,3328,-4180,299,-716,1561,74,247,149,511,-143,1,0,52,14,960,1,53298,1
1,31351,31255,31826,78338,2566,-4559,112,-602,1026,779,506,148,510,-152,1,0,52,15,0,1,53298,1
2,31337,31575,31824,78339,2575,-4787,-28,-363,721,813,-72,150,508,-156,1,0,52,15,40,1,53298,1
2,31317,33253,31806,78340,2586,-4602,-329,-492,-1863,865,-283,152,510,-154,1,0,52,15,80,1,53298,1
2,31251,33317,31735,78341,2596,-4539,-326,-441,-1314,342,-244,148,504,-148,1,0,52,15,120,1,53298,1
2,31226,33698,31700,78342,2607,-4507,-72,-318,-1005,41,-81,153,507,-157,1,0,52,15,160,1,53298,1
2,31180,32669,31660,78343,2618,-4517,27,-356,-601,64,102,154,502,-158,1,0,52,15,200,1,53298,1
2,31165,32205,31636,78344,2628,-4479,-151,-405,293,167,375,156,506,-146,1,0,52,15,240,1,53298,1
2,31150,31699,31610,78345,2639,-4528,-42,-498,966,177,331,159,513,-161,1,0,52,15,280,1,53298,1
2,31132,31654,31598,78346,2650,-4579,10,-569,1067,118,186,152,508,-170,1,0,52,15,320,1,53298,1
2,31110,31807,31575,78347,2661,-4541,-54,-561,915,65,113,147,507,-159,1,0,52,15,360,1,53298,1
2,31085,31597,31556,78348,2672,-4541,-52,-532,592,60,82,147,509,-145,1,0,52,15,400,1,53298,1
2,31070,31540,31537,78349,2682,-4546,-41,-544,295,0,59,149,507,-153,1,0,52,15,440,1,53298,1
2,31071,31397,31540,78350,2694,-4521,-36,-532,271,245,76,149,517,-155,1,0,52,15,480,1,53298,1
2,31061,31071,31532,78351,2706,-4524,-48,-533,255,-21,91,154,520,-154,1,0,52,15,520,1,53298,1
2,31051,30936,31519,78352,2716,-4530,-38,-548,260,-44,94,144,514,-162,1,0,52,15,560,1,53298,1
2,31048,30890,31509,78353,2727,-4526,-40,-538,311,-37,94,148,508,-164,1,0,52,15,600,1,53298,1
2,31024,30718,31493,78354,2738,-4530,-29,-522,317,-7,76,144,510,-152,1,0,52,15,640,1,53298,1
2,30998,30634,31462,78355,2748,-4522,-22,-528,227,-212,51,146,510,-158,1,0,52,15,680,1,53298,1
2,30993,30632,31454,78356,2759,-4518,-21,-539,210,45,53,144,520,-158,1,0,52,15,720,1,53298,1
2,31000,30582,31465,78357,2770,-4525,-34,-551,216,10,37,147,517,-155,1,0,52,15,760,1,53298,1
2,31001,30500,31470,78358,2781,-4533,-13,-545,150,226,26,150,512,-154,1,0,52,15,800,1,53298,1
2,31011,30498,31478,78359,2792,-4528,-47,-551,57,-30,45,148,506,-160,1,0,52,15,840,1,53298,1
2,31013,30511,31482,78360,2803,-4522,-31,-551,27,-53,31,136,516,-150,1,0,52,15,880,1,53298,1
2,31019,30458,31487,78361,2813,-4533,-37,-532,9,-43,7,146,512,-156,1,0,52,15,920,1,53298,1
2,31016,30423,31485,78362,2813,-4530,-37,-540,-8,-14,8,141,505,-155,1,0,52,15,960,1,53298,1
1,31012,30358,31487,78363,2113,-4527,-44,-540,-10,23,25,136,520,-152,1,0,52,16,0,1,53298,1
2,31009,30287,31474,78364,2123,-4523,-28,-549,-4,13,21,148,512,-156,1,0,52,16,40,1,53298,1
2,31006,30189,31475,78365,2134,-4525,-30,-547,-237,-25,27,149,505,-169,1,0,52,16,80,1,53298,1
2,31009,30169,31470,78366,2143,-4530,-32,-538,3,-35,16,147,505,-161,1,0,52,16,120,1,53298,1
2,31003,30112,31469,78367,2154,-4517,-30,-534,11,-34,28,144,506,-156,1,0,52,16,160,1,53298,1
2,31001,30027,31467,78368,2164,-4521,-35,-541,244,-34,35,146,504,-152,1,0,52,16,200,1,53298,1
2,30998,30006,31470,78369,2175,-4517,-21,-547,-24,-32,35,151,505,-157,1,0,52,16,240,1,53298,1
2,31000,29994,31469,78370,2186,-4519,-36,-542,-5,-19,41,144,516,-164,1,0,52,16,280,1,53298,1
2,31004,29970,31477,78371,2196,-4521,-25,-537,-12,-4,15,146,508,-162,1,0,52,16,320,1,53298,1
2,31007,29964,31475,78372,2207,-4534,-40,-532,-15,-7,17,155,511,-157,1,0,52,16,360,1,53298,1
2,31009,29962,31479,78373,2218,-4528,-28,-537,-9,-32,20,155,509,-151,1,0,52,16,400,1,53298,1
2,31006,29962,31474,78374,2230,-4524,-37,-548,-16,-24,34,151,503,-159,1,0,52,16,440,1,53298,1
2,31009,29949,31477,78375,2240,-4531,-43,-539,-17,-30,36,146,510,-164,1,0,52,16,480,1,53298,1
2,31003,29962,31470,78376,2251,-4546,-45,-534,-22,-29,36,149,505,-159,1,0,52,16,520,1,53298,1
2,31005,29943,31474,78377,2262,-4532,-40,-543,-14,-25,24,138,510,-154,1,0,52,16,560,1,53298,1
2,31005,29936,31473,78378,2273,-4524,-30,-551,-18,-27,34,148,512,-152,1,0,52,16,600,1,53298,1
2,31005,29944,31474,78379,2284,-4535,-40,-536,-19,-47,58,148,500,-160,1,0,52,16,640,1,53298,1
2,31003,29943,31476,78380,2295,-4525,-35,-524,-26,-50,54,150,512,-162,1,0,52,16,680,1,53298,1
2,31010,29950,31476,78381,2306,-4522,-27,-550,-13,-62,53,148,508,-160,1,0,52,16,720,1,53298,1
2,31006,29964,31474,78382,2317,-4524,-36,-539,-13,-46,26,147,507,-163,1,0,52,16,760,1,53298,1
2,31009,29970,31480,78383,2328,-4541,-37,-549,-22,-31,17,145,507,-159,1,0,52,16,800,1,53298,1
2,31007,29965,31481,78384,2339,-4538,-31,-532,-10,-18,4,150,516,-162,1,0,52,16,840,1,53298,1
2,31006,29974,31478,78385,2350,-4536,-35,-533,-17,-23,2,142,510,-160,1,0,52,16,880,1,53298,1
2,31007,29960,31480,78386,2362,-4527,-22,-521,-42,-39,20,144,496,-162,1,0,52,16,920,1,53298,1
2,31007,29977,31479,78387,2362,-4533,-48,-549,-139,-134,94,151,517,-151,1,0,52,16,960,1,53298,1
1,31007,29983,31485,78388,1661,-4533,-48,-489,-505,-271,169,144,508,-150,1,0,52,17,0,0,53298,1
2,30994,29970,31477,78389,1672,-4544,-56,-489,-1656,-507,209,148,502,-154,1,0,52,17,40,0,53298,1
2,30998,30004,31489,78390,1683,-4594,-286,-284,-2725,-548,-3,145,501,-147,1,0,52,17,80,0,53298,1
2,31025,30030,31500,78391,1694,-4745,-378,-138,-3448,-655,-358,152,512,-152,1,0,52,17,120,0,53298,1
2,31064,30056,31529,78392,1706,-4895,-262,-366,-2632,-710,-799,156,506,-156,1,0,52,17,160,0,53298,1
2,31054,30019,31494,78393,1718,-4669,19,-519,-1153,-552,-521,163,501,-159,1,0,52,17,200,0,53298,1
2,31112,30041,31524,78394,1731,-4558,-41,-373,-1191,-646,-346,167,511,-149,1,0,52,17,240,0,53298,1
2,31139,30076,31530,78395,1745,-4462,195,-524,-688,-868,-297,169,503,-157,1,0,52,17,280,0,53298,1
2,31183,30226,31611,78396,1759,-4235,154,-545,-458,-969,-332,166,512,-152,1,0,52,17,320,0,53298,1
2,31317,30265,31678,78397,1773,-4689,-32,-238,-607,-908,-433,166,514,-144,1,0,52,17,360,0,53298,1
2,31275,30358,31639,78398,1788,-4414,-11,-430,-262,-884,-377,170,510,-152,1,0,52,17,400,0,53298,1
2,31294,32818,31632,78399,1803,-4486,61,-378,-340,-824,-218,173,505,-139,1,0,52,17,440,0,53298,1
2,31587,34495,31896,78400,1818,-4553,-29,-372,-303,-672,-138,168,504,-146,1,0,52,17,480,0,53298,1
2,32195,35407,32518,78401,1834,-4516,-21,-273,-164,-644,-87,170,510,-140,1,0,52,17,520,0,53298,1
2,31980,33100,32297,78402,1850,-4580,-48,-288,-86,-568,-172,178,514,-148,1,0,52,17,560,0,53298,1
2,32293,33546,32588,78403,1865,-4511,-62,-275,-111,-428,-107,170,508,-150,1,0,52,17,600,0,53298,1
2,32233,34008,32541,78404,1881,-4530,16,-313,-88,-187,-43,174,510,-150,1,0,52,17,640,0,53298,1
2,32210,33860,32512,78405,1897,-4517,21,-354,72,22,-25,175,507,-149,1,0,52,17,680,0,53298,1
2,32208,33374,32513,78406,1912,-4599,-122,-191,-9,9,3,175,517,-141,1,0,52,17,720,0,53298,1
2,32210,33087,32484,78407,1927,-4554,-62,-265,15,34,-35,180,508,-146,1,0,52,17,760,0,53298,1
2,32171,32695,32473,78408,1942,-4570,-81,-254,-13,52,-37,171,509,-147,1,0,52,17,800,0,53298,1
2,32177,32608,32455,78409,1957,-4571,-105,-237,49,51,-19,179,517,-147,1,0,52,17,840,0,53298,1
2,32123,32791,32442,78410,1972,-4575,-87,-235,-28,27,0,174,504,-144,1,0,52,17,880,0,53298,1
2,32130,32587,32429,78411,1987,-4572,-81,-214,15,35,6,169,511,-153,1,0,52,17,920,0,53298,1
2,32097,32599,32397,78412,1987,-4556,-75,-249,68,63,-14,170,506,-144,1,0,52,17,960,0,53298,1
1,32065,33311,32361,78413,1209,-4575,-108,-231,-29,52,0,170,508,-144,1,0,52,18,0,0,53298,1
2,32089,33997,32392,78414,1225,-4564,-108,-245,-7,-12,30,168,506,-142,1,0,52,18,40,0,53298,1
2,32087,34112,32397,78415,1240,-4574,-94,-238,30,10,26,175,513,-145,1,0,52,18,80,0,53298,1
2,32094,34685,32382,78416,1256,-4559,-109,-238,-14,14,12,174,506,-136,1,0,52,18,120,0,53298,1
2,32097,34980,32410,78417,1272,-4573,-131,-243,-72,-28,44,169,507,-137,1,0,52,18,160,0,53298,1
2,32086,35250,32387,78418,1287,-4566,-105,-220,10,-30,55,175,517,-145,1,0,52,18,200,0,53298,1
2,32092,35088,32394,78419,1303,-4558,-91,-247,-15,-16,45,175,515,-145,1,0,52,18,240,0,53298,1
2,32085,35149,32404,78420,1318,-4568,-100,-223,-54,-39,71,170,516,-140,1,0,52,18,280,0,53298,1
2,32105,35330,32409,78421,1334,-4577,-105,-274,9,-47,87,178,504,-146,1,0,52,18,320,0,53298,1
2,32099,34964,32402,78422,1350,-4554,-78,-254,-35,-56,87,181,509,-153,1,0,52,18,360,0,53298,1
2,32087,34907,32401,78423,1366,-4564,-104,-244,-58,-75,93,163,507,-143,1,0,52,18,400,0,53298,1
2,32080,34711,32381,78424,1382,-4565,-78,-248,-18,-33,54,172,516,-146,1,0,52,18,440,0,53298,1
2,32093,35078,32408,78425,1397,-4549,-81,-227,-56,-51,77,174,512,-138,1,0,52,18,480,0,53298,1
2,32134,35039,32430,78426,1413,-4601,-115,-255,8,-45,82,171,505,-149,1,0,52,18,520,0,53298,1
2,32123,34990,32424,78427,1429,-4552,-57,-230,3,-12,43,180,512,-150,1,0,52,18,560,0,53298,1
2,32142,35132,32446,78428,1444,-4584,-104,-242,-97,-59,80,172,506,-148,1,0,52,18,600,0,53298,1
2,32170,35149,32480,78429,1460,-4570,-107,-19,-40,-77,77,166,506,-148,1,0,52,18,640,0,53298,1
2,32209,35204,32507,78430,1476,-4527,-51,-490,-40,-25,47,176,508,-144,1,0,52,18,680,0,53298,1
2,32208,35039,32509,78431,1492,-4570,-90,-5,-26,-35,67,176,514,-142,1,0,52,18,720,0,53298,1
2,32189,35055,32499,78432,1509,-4574,-80,-497,-2,-26,60,177,507,-151,1,0,52,18,760,0,53298,1
2,32184,35024,32486,78433,1525,-4582,-119,-229,-24,-5,43,180,506,-146,1,0,52,18,800,0,53298,1
2,32180,35075,32483,78434,1541,-4549,-66,-15,-62,-38,53,171,515,-139,1,0,52,18,840,0,53298,1
2,32200,35155,32507,78435,1557,-4572,-72,-503,-51,-46,59,180,518,-144,1,0,52,18,880,0,53298,1
2,32166,34979,32477,78436,1574,-4561,-92,-32,90,42,-6,178,506,-150,1,0,52,18,920,0,53298,1
2,32147,34776,32451,78437,1574,-4526,-42,-375,197,205,-129,180,500,-148,1,0,52,18,960,0,53298,1
1,32090,34974,32418,78438,758,-4377,574,-1077,685,1065,-659,174,504,-134,1,0,52,19,0,0,53298,1
2,32115,35519,32465,78439,771,-4121,901,-818,1898,2252,-344,170,500,-146,1,0,52,19,40,0,53298,1
2,32008,35092,32439,78440,783,-3814,167,-406,3648,1964,1890,175,503,-147,1,0,52,19,80,0,53298,1
2,31764,32996,32356,78441,795,-4331,-338,-832,7628,609,3509,156,514,-154,1,0,52,19,120,0,53298,1
2,31320,33410,31770,78442,805,-4988,-1680,281,5295,1561,1748,150,508,-142,1,0,52,19,160,0,53298,1
2,31464,34500,32005,78443,817,-5670,-466,1210,2281,296,-550,141,515,-151,1,0,52,19,200,0,53298,1
2,31230,30765,31687,78444,829,-4662,525,-474,991,-189,-245,143,507,-147,1,0,52,19,240,0,53298,1
2,31246,30268,31722,78445,840,-4177,83,-1231,257,1848,21,137,511,-143,1,0,52,19,280,0,53298,1
2,31161,30249,31651,78446,851,-4519,-199,-604,-345,1074,-119,138,514,-156,1,0,52,19,320,0,53298,1
2,31242,30320,31747,78447,863,-4634,-16,-371,-508,147,-184,140,498,-172,1,0,52,19,360,0,53298,1
2,31281,30369,31785,78448,874,-4495,-107,-683,310,449,-226,143,509,-161,1,0,52,19,400,0,53298,1
2,31248,30371,31735,78449,885,-4482,-96,-697,484,226,-77,148,512,-158,1,0,52,19,440,0,53298,1
2,31278,30383,31781,78450,897,-4571,27,-567,278,-432,85,146,508,-160,1,0,52,19,480,0,53298,1
2,31245,30375,31764,78451,908,-4516,-50,-497,-225,-332,83,138,514,-160,1,0,52,19,520,0,53298,1
2,31262,30388,31767,78452,920,-4506,-60,-562,-241,-57,115,142,514,-146,1,0,52,19,560,0,53298,1
2,31269,30385,31775,78453,931,-4526,-12,-564,32,-39,108,142,502,-152,1,0,52,19,600,0,53298,1
2,31298,30427,31795,78454,942,-4522,-47,-559,73,30,23,143,519,-151,1,0,52,19,640,0,53298,1
2,31311,30442,31813,78455,953,-4521,-61,-566,52,83,-2,147,501,-161,1,0,52,19,680,0,53298,1
2,31268,30443,31771,78456,965,-4523,-33,-577,19,41,22,142,512,-166,1,0,52,19,720,0,53298,1
2,31258,30407,31757,78457,977,-4513,-31,-566,42,43,35,141,507,-159,1,0,52,19,760,0,53298,1
2,31231,30385,31724,78458,988,-4528,-39,-595,24,8,35,139,509,-161,1,0,52,19,800,0,53298,1
2,31224,30401,31725,78459,999,-4518,-33,-564,19,-24,34,143,511,-155,1,0,52,19,840,0,53298,1
2,31209,30414,31704,78460,1010,-4518,-40,-584,-44,-31,22,137,511,-161,1,0,52,19,880,0,53298,1
2,31187,30395,31686,78461,1022,-4515,-39,-567,-58,-54,44,131,515,-149,1,0,52,19,920,0,53298,1
2,31185,30404,31684,78462,1022,-4512,-29,-567,-22,-53,37,143,509,-165,1,0,52,19,960,0,53298,1
1,31178,30385,31675,78463,306,-4521,-32,-554,15,-9,33,142,502,-158,1,0,52,20,0,0,53298,1
0,31186,30396,31673,78464,318,-4521,-32,-554,15,-9,33,136,510,-154,1,0,52,20,40,0,53298,1
2,31182,30396,31680,78465,330,-4526,-46,-579,8,41,16,144,516,-162,1,0,52,20,80,0,53298,1
2,31185,30411,31688,78466,342,-4515,-49,-581,-21,13,18,134,502,-154,1,0,52,20,120,0,53298,1
2,31190,30424,31683,78467,353,-4527,-42,-561,-17,-35,29,155,503,-157,1,0,52,20,160,0,53298,1
2,31196,30412,31703,78468,365,-4531,-43,-565,-39,-59,29,149,503,-163,1,0,52,20,200,0,53298,1
2,31206,30411,31707,78469,377,-4527,-50,-558,-23,-49,30,138,510,-160,1,0,52,20,240,0,53298,1
2,31208,30419,31709,78470,388,-4521,-42,-577,-15,-18,23,133,509,-153,1,0,52,20,280,0,53298,1
2,31206,30417,31706,78471,400,-4517,-44,-562,-7,11,24,143,509,-161,1,0,52,20,320,0,53298,1
2,31209,30416,31709,78472,412,-4518,-40,-576,0,20,31,142,508,-166,1,0,52,20,360,0,53298,1
2,31207,30429,31708,78473,424,-4513,-36,-582,-14,-1,33,134,516,-162,1,0,52,20,400,0,53298,1
2,31200,30422,31697,78474,435,-4525,-34,-564,-16,-39,26,139,517,-161,1,0,52,20,440,0,53298,1
2,31195,30420,31693,78475,447,-4530,-51,-569,-27,-45,26,138,510,-158,1,0,52,20,480,0,53298,1
2,31198,30423,31700,78476,458,-4519,-35,-552,-32,-38,22,145,507,-159,1,0,52,20,520,0,53298,1
2,31189,30416,31691,78477,468,-4522,-42,-552,-17,-20,28,143,511,-165,1,0,52,20,560,0,53298,1
2,31182,30421,31684,78478,479,-4532,-52,-557,-14,4,30,136,506,-152,1,0,52,20,600,0,53298,1
2,31182,30421,31683,78479,491,-4517,-38,-583,-7,5,32,141,507,-167,1,0,52,20,640,0,53298,1
2,31183,30425,31687,78480,501,-4521,-29,-565,-9,-12,15,141,517,-155,1,0,52,20,680,0,53298,1
2,31186,30440,31690,78481,513,-4519,-46,-571,-24,-20,31,135,515,-143,1,0,52,20,720,0,53298,1
2,31175,30423,31679,78482,523,-4506,-22,-574,-27,-37,44,140,502,-154,1,0,52,20,760,0,53298,1
2,31166,30422,31669,78483,534,-4529,-40,-564,-31,-45,50,135,505,-157,1,0,52,20,800,0,53298,1
2,31171,30428,31669,78484,544,-4514,-36,-557,-21,-39,42,143,521,-149,1,0,52,20,840,0,53298,1
2,31161,30418,31663,78485,554,-4530,-37,-573,-34,-31,38,132,502,-152,1,0,52,20,880,0,53298,1
2,31163,30411,31661,78486,564,-4532,-47,-561,-25,-19,31,137,509,-161,1,0,52,20,920,0,53298,1
2,31165,30420,31661,78487,564,-4520,-37,-551,-23,-34,34,133,505,-163,1,0,52,20,960,0,53298,1
1,31158,30422,31658,78488,0,-4539,-43,-549,-36,-40,42,138,512,-154,1,0,52,21,0,1,53298,1
2,31144,30419,31643,78489,39866,-4540,-35,-557,-47,-63,65,136,510,-162,1,0,52,21,40,1,53298,1
2,31147,30417,31645,78490,39878,-4525,-33,-560,-88,-98,78,141,515,-161,1,0,52,21,80,1,53298,1
2,31131,30414,31634,78491,39889,-4527,-25,-550,-89,-127,82,152,502,-160,1,0,52,21,120,1,53298,1
2,31131,30416,31630,78492,39901,-4541,-15,-545,-82,-130,55,141,509,-163,1,0,52,21,160,1,53298,1
2,31126,30407,31627,78493,39911,-4525,-22,-547,-110,-105,12,144,514,-156,1,0,52,21,200,1,53298,1
2,31128,30416,31627,78494,39923,-4537,-9,-538,-213,-67,-2,142,506,-160,1,0,52,21,240,1,53298,1
2,31120,30438,31627,78495,39934,-4746,-809,746,-2538,-467,542,151,503,-149,1,0,52,21,280,1,53298,1
2,31145,30431,31622,78496,39946,-5244,-463,-753,-6951,-726,-490,138,510,-150,1,0,52,21,320,1,53298,1
2,31358,30543,31818,78497,39958,-4662,144,-385,-5208,-735,-1356,148,500,-154,1,0,52,21,360,1,53298,1
2,31308,30435,31734,78498,39971,-4306,156,-477,-1611,-930,-702,152,508,-142,1,0,52,21,400,1,53298,1
2,31345,30651,31739,78499,39984,-4098,175,-723,-1227,-1083,-240,163,505,-155,1,0,52,21,440,1,53298,1
1,31637,32324,32031,78500,39999,-4615,167,-521,-596,-1051,-505,170,508,-156,1,0,52,21,480,1,53298,1
1,31679,32921,32091,78501,12,-4510,63,-343,-563,-955,-488,171,503,-153,1,0,52,21,520,1,53298,1
1,31570,32721,31926,78502,27,-4410,16,-497,-587,-858,-342,174,508,-156,1,0,52,21,560,1,53298,1
1,31665,33059,31982,78503,42,-4507,60,-394,-231,-653,-245,173,499,-153,1,0,52,21,600,1,53298,1
1,31651,32585,31958,78504,57,-4483,44,-426,-121,-414,-62,166,504,-146,1,0,52,21,640,1,53298,1
1,31739,32488,32081,78505,71,-4511,17,-295,-26,-88,-31,169,513,-153,1,0,52,21,680,1,53298,1
1,31689,32467,32026,78506,86,-4612,-163,-296,-39,-59,38,180,502,-150,1,0,52,21,720,1,53298,1
1,31819,32625,32156,78507,101,-4521,-19,-319,-122,-102,69,172,510,-152,1,0,52,21,760,1,53298,1
1,31964,32837,32265,78508,116,-4550,-83,-295,21,7,12,169,513,-141,1,0,52,21,800,1,53298,1
1,32026,33138,32368,78509,130,-4577,-90,-273,86,35,16,170,498,-150,1,0,52,21,840,1,53298,1
1,31985,32971,32324,78510,145,-4560,-69,-331,-5,-14,60,166,512,-158,1,0,52,21,880,1,53298,1
1,31868,32717,32203,78511,160,-4540,-47,-322,15,16,14,167,505,-143,1,0,52,21,920,1,53298,1
1,31848,32849,32182,78512,175,-4586,-94,-283,92,47,-14,175,513,-147,1,0,52,21,960,1,53298,1
1,31867,32906,32210,78513,0,-4570,-98,-291,34,3,24,173,513,-141,1,0,52,22,0,1,53298,1
2,31821,32820,32169,78514,39418,-4567,-65,-335,27,-15,36,164,514,-140,1,0,52,22,40,1,53298,1
2,31784,32858,32131,78515,39433,-4568,-88,-300,58,16,-3,172,508,-142,1,0,52,22,80,1,53298,1
2,31784,32872,32127,78516,39448,-4567,-91,-296,-15,5,25,163,513,-137,1,0,52,22,120,1,53298,1
2,31785,32766,32134,78517,39463,-4534,-68,-312,13,-14,36,170,512,-148,1,0,52,22,160,1,53298,1
2,31773,33035,32116,78518,39477,-4577,-83,-307,36,-3,39,173,507,-147,1,0,52,22,200,1,53298,1
2,31765,32816,32114,78519,39492,-4540,-71,-313,-50,-10,39,174,508,-152,1,0,52,22,240,1,53298,1
2,31755,33063,32090,78520,39508,-4562,-71,-309,-32,5,36,171,505,-157,1,0,52,22,280,1,53298,1
2,31738,33362,32080,78521,39524,-4565,-74,-298,50,-4,22,167,499,-151,1,0,52,22,320,1,53298,1
2,31744,33325,32088,78522,39540,-4580,-77,-314,3,-12,45,177,513,-147,1,0,52,22,360,1,53298,1
2,31737,33336,32064,78523,39555,-4571,-104,-292,-9,-8,25,175,507,-147,1,0,52,22,400,1,53298,1
2,31732,33431,32068,78524,39569,-4545,-86,-300,-8,-5,24,173,505,-145,1,0,52,22,440,1,53298,1
2,31715,33760,32037,78525,39585,-4555,-75,-317,27,-11,39,173,505,-147,1,0,52,22,480,1,53298,1
2,31706,33782,32045,78526,39601,-4566,-80,-309,45,21,21,163,503,-137,1,0,52,22,520,1,53298,1
2,31722,34115,32069,78527,39616,-4558,-91,-282,-8,11,31,170,516,-144,1,0,52,22,560,1,53298,1
2,31712,34049,32049,78528,39631,-4557,-71,-318,-14,-11,40,169,505,-143,1,0,52,22,600,1,53298,1
2,31695,33880,32039,78529,39647,-4568,-90,-304,25,4,35,181,507,-149,1,0,52,22,640,1,53298,1
2,31691,33105,32021,78530,39662,-4558,-72,-305,-43,-38,60,170,506,-158,1,0,52,22,680,1,53298,1
2,31665,33227,32007,78531,39677,-4568,-95,-297,-72,-60,77,171,511,-153,1,0,52,22,720,1,53298,1
2,31678,33245,32014,78532,39692,-4552,-76,-312,-43,-70,104,168,506,-150,1,0,52,22,760,1,53298,1
2,31654,32885,31990,78533,39707,-4569,-96,-297,-54,-68,98,172,504,-156,1,0,52,22,800,1,53298,1
2,31655,32893,31992,78534,39722,-4553,-58,-302,-45,-71,110,165,509,-151,1,0,52,22,840,1,53298,1
2,31652,32788,31996,78535,39737,-4555,-57,-316,27,-39,78,173,505,-143,1,0,52,22,880,1,53298,1
2,31655,32613,31987,78536,39752,-4575,-82,-304,-8,-4,30,169,495,-145,1,0,52,22,920,1,53298,1
2,31662,32473,31993,78537,39767,-4561,-65,-311,-60,-41,63,170,510,-150,1,0,52,22,960,1,53298,1
1,31650,32383,31991,78538,0,-4557,-71,-287,-18,-46,67,175,509,-147,1,0,52,23,0,0,53298,1
2,31655,32392,31993,78539,38967,-4560,-57,-297,-44,-42,76,177,517,-143,1,0,52,23,40,0,53298,1
2,31651,32442,31992,78540,38982,-4519,-28,-324,9,-7,51,164,512,-142,1,0,52,23,80,0,53298,1
2,31641,32133,31974,78541,38997,-4590,-113,-277,69,21,-14,169,507,-141,1,0,52,23,120,0,53298,1
2,31643,32102,31977,78542,39013,-4528,-33,-329,-70,-20,26,177,507,-143,1,0,52,23,160,0,53298,1
2,31647,32008,31976,78543,39028,-4523,-23,-350,61,57,-63,174,504,-146,1,0,52,23,200,0,53298,1
2,31625,32334,31963,78544,39043,-4382,290,-693,210,356,-261,168,506,-144,1,0,52,23,240,0,53298,1
2,31555,34499,31954,78545,39057,-3725,866,-1061,906,1470,-478,174,502,-138,1,0,52,23,280,0,53298,1
2,31414,33992,31837,78546,39069,-4110,480,-734,2579,1826,1128,169,503,-149,1,0,52,23,320,0,53298,1
2,31316,32723,31787,78547,39081,-4533,-329,-792,6215,1047,2836,155,509,-153,1,0,52,23,360,0,53298,1
2,31196,32512,31678,78548,39094,-5933,-511,180,7104,1456,2571,140,510,-148,1,0,52,23,400,0,53298,1
2,31467,34230,32045,78549,39106,-4784,-1524,1303,2928,230,-12,139,503,-155,1,0,52,23,440,0,53298,1
2,31518,32770,32015,78550,39117,-4291,507,-257,714,-909,24,141,511,-157,1,0,52,23,480,0,53298,1
