,sensorStatus,cap1,cap2,cap3,counter,microseconds_since_last_tick,accX,accY,accZ,gyroX,gyroY,gyroZ,magnetX,magnetY,magnetZ,day,hour,min,sec,msec,sync,battery_fuel,crc_good
0,2,31154,30639,31956,32589,24461,-3869,-8,-2076,-228,-161,132,126,442,-300,1,0,21,45,40,0,53298,1
1,2,31152,30640,31958,32590,24458,-3876,19,-2068,-86,-161,105,126,442,-300,1,0,21,45,80,0,53298,1
2,2,31158,30638,31955,32591,24455,-3864,31,-2058,85,-46,6,131,435,-301,1,0,21,45,120,0,53298,1
3,2,31154,30639,31953,32592,24452,-3864,16,-2063,226,83,-105,119,445,-293,1,0,21,45,160,0,53298,1
4,2,31155,30638,31954,32593,24449,-3863,-12,-2091,310,125,-139,115,449,-297,1,0,21,45,200,0,53298,1
5,2,31160,30640,31955,32594,24447,-3882,-22,-2074,205,97,-121,130,444,-302,1,0,21,45,240,0,53298,1
6,2,31156,30638,31954,32595,24444,-3859,-25,-2093,2,24,-54,125,435,-299,1,0,21,45,280,0,53298,1
7,2,31154,30640,31955,32596,24440,-3847,-35,-2083,-108,-33,35,135,435,-291,1,0,21,45,320,0,53298,1
8,2,31155,30639,31956,32597,24436,-3851,-18,-2091,-170,-55,124,131,445,-287,1,0,21,45,360,0,53298,1
9,2,31157,30640,31954,32598,24433,-3862,14,-2084,-91,-31,81,130,442,-294,1,0,21,45,400,0,53298,1
10,2,31153,30640,31958,32599,24429,-3847,21,-2075,155,-24,-8,121,449,-295,1,0,21,45,440,0,53298,1
11,2,31153,30640,31957,32600,24426,-3887,-11,-2071,240,42,-89,136,440,-300,1,0,21,45,480,0,53298,1
12,2,31155,30639,31953,32601,24423,-3880,-18,-2111,113,60,-100,127,447,-293,1,0,21,45,520,0,53298,1
13,2,31155,30641,31954,32602,24420,-3874,-18,-2078,53,40,-89,128,438,-292,1,0,21,45,560,0,53298,1
14,2,31153,30639,31956,32603,24417,-3863,-2,-2074,61,62,-65,134,444,-296,1,0,21,45,600,0,53298,1
15,2,31154,30638,31955,32604,24413,-3846,-31,-2097,48,107,-73,128,438,-286,1,0,21,45,640,0,53298,1
16,2,31159,30637,31953,32605,24410,-3865,-29,-2104,-11,54,-30,125,443,-303,1,0,21,45,680,0,53298,1
17,2,31155,30640,31956,32606,24407,-3844,-38,-2106,5,-17,30,131,441,-299,1,0,21,45,720,0,53298,1
18,2,31155,30641,31953,32607,24403,-3867,-20,-2101,-73,-77,97,124,442,-300,1,0,21,45,760,0,53298,1
19,2,31156,30640,31954,32608,24401,-3866,-1,-2079,-60,-88,69,124,438,-296,1,0,21,45,800,0,53298,1
20,2,31154,30640,31950,32609,24398,-3889,-16,-2077,9,-31,13,128,446,-298,1,0,21,45,840,0,53298,1
21,2,31154,30641,31949,32610,24395,-3870,-18,-2086,45,11,-38,127,443,-299,1,0,21,45,880,0,53298,1
22,2,31161,30641,31952,32611,24392,-3868,-48,-2090,65,41,-44,132,438,-296,1,0,21,45,920,0,53298,1
23,2,31154,30638,31951,32612,24389,-3851,-23,-2100,-2,40,-5,130,438,-288,1,0,21,45,960,0,53298,1
24,1,31156,30637,31952,32613,0,-3849,-19,-2093,-26,-10,25,121,437,-291,1,0,21,46,0,1,53298,1
25,2,31155,30639,31954,32614,23925,-3857,-16,-2095,17,-37,-3,130,450,-286,1,0,21,46,40,1,53298,1
26,2,31156,30638,31950,32615,23921,-3885,-29,-2073,76,-42,-8,126,444,-296,1,0,21,46,80,1,53298,1
27,2,31152,30638,31951,32616,23918,-3873,-32,-2096,2,-32,-1,129,441,-293,1,0,21,46,120,1,53298,1
28,2,31151,30637,31950,32617,23915,-3864,-41,-2091,-69,-28,43,127,443,-295,1,0,21,46,160,1,53298,1
29,2,31156,30639,31949,32618,23912,-3865,-19,-2098,-67,-30,74,127,441,-291,1,0,21,46,200,1,53298,1
30,2,31151,30637,31950,32619,23908,-3854,-17,-2086,-59,-17,40,131,441,-307,1,0,21,46,240,1,53298,1
31,2,31158,30640,31951,32620,23905,-3855,-10,-2106,-39,-1,8,125,445,-299,1,0,21,46,280,1,53298,1
32,2,31152,30638,31951,32621,23903,-3861,-4,-2094,77,-46,-36,136,442,-306,1,0,21,46,320,1,53298,1
33,2,31155,30637,31954,32622,23900,-3869,-32,-2070,152,-28,-83,127,437,-299,1,0,21,46,360,1,53298,1
34,2,31155,30638,31957,32623,23895,-3873,-35,-2077,83,35,-44,136,438,-292,1,0,21,46,400,1,53298,1
35,2,31154,30637,31950,32624,23892,-3856,-32,-2089,-30,40,-8,125,443,-297,1,0,21,46,440,1,53298,1
36,2,31153,30636,31951,32625,23888,-3842,-20,-2118,-108,-25,62,132,438,-292,1,0,21,46,480,1,53298,1
37,2,31153,30638,31952,32626,23885,-3862,-23,-2090,-71,-95,60,128,450,-292,1,0,21,46,520,1,53298,1
38,2,31150,30635,31954,32627,23882,-3883,-11,-2038,-15,-80,45,122,436,-296,1,0,21,46,560,1,53298,1
39,2,31155,30635,31956,32628,23879,-3879,-9,-2095,48,14,11,131,443,-293,1,0,21,46,600,1,53298,1
40,2,31150,30639,31949,32629,23875,-3840,-20,-2094,91,52,-62,136,440,-300,1,0,21,46,640,1,53298,1
41,2,31154,30636,31948,32630,23872,-3852,-44,-2118,-11,30,-45,126,446,-292,1,0,21,46,680,1,53298,1
42,2,31153,30636,31950,32631,23868,-3873,-36,-2091,-102,-71,10,131,443,-299,1,0,21,46,720,1,53298,1
43,2,31155,30637,31951,32632,23865,-3871,-29,-2080,-121,-85,69,123,439,-293,1,0,21,46,760,1,53298,1
44,2,31154,30638,31953,32633,23863,-3853,10,-2079,-28,-24,79,128,446,-294,1,0,21,46,800,1,53298,1
45,2,31152,30638,31952,32634,23860,-3867,-19,-2074,59,17,0,123,433,-287,1,0,21,46,840,1,53298,1
46,2,31155,30635,31951,32635,23858,-3884,-18,-2099,131,67,-49,121,447,-293,1,0,21,46,880,1,53298,1
47,2,31152,30633,31952,32636,23854,-3846,-31,-2132,115,0,-73,133,445,-299,1,0,21,46,920,1,53298,1
48,2,31150,30633,31949,32637,23851,-3852,-59,-2097,-48,-70,-30,131,449,-287,1,0,21,46,960,1,53298,1
49,1,31153,30633,31953,32638,0,-3872,-29,-2084,-159,-85,68,131,443,-295,1,0,21,47,0,1,53298,1
50,2,31150,30630,31950,32639,23390,-3887,-14,-2079,-78,-80,85,125,441,-295,1,0,21,47,40,1,53298,1
51,2,31151,30636,31951,32640,23388,-3865,-18,-2055,-40,-29,59,119,431,-301,1,0,21,47,80,1,53298,1
52,2,31157,30634,31949,32641,23384,-3847,-14,-2107,-16,50,36,132,428,-304,1,0,21,47,120,1,53298,1
53,2,31153,30635,31953,32642,23381,-3854,-8,-2110,72,13,-15,134,438,-294,1,0,21,47,160,1,53298,1
54,2,31151,30636,31949,32643,23378,-3857,-19,-2075,44,-58,-63,120,442,-294,1,0,21,47,200,1,53298,1
55,2,31151,30634,31953,32644,23375,-3890,-53,-2068,54,-21,-25,131,443,-299,1,0,21,47,240,1,53298,1
56,2,31147,30635,31952,32645,23372,-3871,-30,-2087,51,4,31,135,437,-295,1,0,21,47,280,1,53298,1
57,2,31150,30634,31949,32646,23370,-3858,-14,-2084,-67,1,28,124,442,-302,1,0,21,47,320,1,53298,1
58,2,31155,30634,31949,32647,23367,-3857,-22,-2081,-45,8,27,130,442,-300,1,0,21,47,360,1,53298,1
59,2,31149,30635,31948,32648,23363,-3849,-22,-2120,26,18,3,131,443,-297,1,0,21,47,400,1,53298,1
60,2,31151,30634,31948,32649,23360,-3847,-39,-2097,-11,-51,-20,127,433,-297,1,0,21,47,440,1,53298,1
61,2,31148,30633,31945,32650,23357,-3871,-26,-2074,-59,-61,33,120,440,-288,1,0,21,47,480,1,53298,1
62,2,31150,30634,31948,32651,23354,-3869,14,-2084,-21,-40,35,123,445,-293,1,0,21,47,520,1,53298,1
63,2,31149,30634,31949,32652,23350,-3866,-27,-2073,64,12,-74,130,440,-296,1,0,21,47,560,1,53298,1
64,2,31149,30632,31947,32653,23346,-3864,-27,-2103,110,51,-77,132,442,-288,1,0,21,47,600,1,53298,1
65,2,31150,30633,31949,32654,23342,-3872,-46,-2098,82,-14,-13,131,441,-299,1,0,21,47,640,1,53298,1
66,2,31156,30635,31952,32655,23339,-3861,-31,-2072,-34,-6,51,120,448,-296,1,0,21,47,680,1,53298,1
67,2,31153,30633,31952,32656,23337,-3862,-20,-2122,-79,-22,85,125,437,-295,1,0,21,47,720,1,53298,1
68,2,31153,30634,31950,32657,23334,-3847,-18,-2093,-77,-58,52,132,428,-298,1,0,21,47,760,1,53298,1
69,2,31155,30632,31949,32658,23331,-3842,-21,-2092,-65,-63,21,128,444,-292,1,0,21,47,800,1,53298,1
70,2,31152,30631,31947,32659,23327,-3861,-7,-2082,44,-44,-26,128,436,-290,1,0,21,47,840,1,53298,1
71,2,31148,30633,31950,32660,23324,-3884,-29,-2080,124,-5,-73,130,444,-298,1,0,21,47,880,1,53298,1
72,2,31150,30634,31947,32661,23320,-3929,-33,-2058,78,16,-48,129,439,-299,1,0,21,47,920,1,53298,1
73,2,31148,30632,31944,32662,23316,-3959,-16,-2121,-467,-241,175,126,442,-292,1,0,21,47,960,1,53298,1
74,1,31146,30633,31944,32663,0,-3814,-121,-2145,-1708,-619,686,122,440,-300,1,0,21,48,0,0,53298,1
75,2,31147,30634,31945,32664,22854,-3779,-73,-2110,-2146,-1019,1262,127,437,-289,1,0,21,48,40,0,53298,1
76,2,31143,30632,31950,32665,22850,-3853,169,-1975,-1587,-936,1211,126,442,-286,1,0,21,48,80,0,53298,1
77,2,31150,30628,31954,32666,22846,-3927,340,-1871,-492,-410,332,126,440,-300,1,0,21,48,120,0,53298,1
78,2,31153,30625,31947,32667,22842,-3922,253,-1844,908,494,-837,124,440,-292,1,0,21,48,160,0,53298,1
79,2,31146,30625,31945,32668,22839,-3912,128,-1995,2244,1094,-1525,127,433,-301,1,0,21,48,200,0,53298,1
80,2,31151,30622,31940,32669,22834,-3836,-194,-2200,2717,1071,-1326,134,442,-294,1,0,21,48,240,0,53298,1
81,2,31150,30621,31945,32670,22831,-3818,-362,-2301,1291,658,-514,131,443,-285,1,0,21,48,280,0,53298,1
82,2,31146,30623,31942,32671,22827,-3832,-223,-2213,-474,-308,369,129,443,-295,1,0,21,48,320,0,53298,1
83,2,31142,30622,31948,32672,22823,-3885,101,-2030,-1188,-701,842,125,443,-297,1,0,21,48,360,0,53298,1
84,2,31144,30623,31945,32673,22819,-3899,151,-1940,-752,-531,569,137,443,-293,1,0,21,48,400,0,53298,1
85,2,31144,30622,31946,32674,22815,-3895,129,-1955,-110,-39,-21,128,438,-300,1,0,21,48,440,0,53298,1
86,2,31145,30622,31945,32675,22810,-3883,12,-2050,550,380,-547,117,441,-293,1,0,21,48,480,0,53298,1
87,2,31149,30620,31948,32676,22806,-3875,-111,-2154,843,393,-492,129,445,-289,1,0,21,48,520,0,53298,1
88,2,31148,30623,31954,32677,22803,-3827,-153,-2082,385,171,-195,128,446,-282,1,0,21,48,560,0,53298,1
89,2,31156,30544,31965,32678,22798,-3986,-56,-2138,-1429,167,517,122,446,-300,1,0,21,48,600,0,53298,1
90,2,31159,30557,31980,32679,22794,-4065,83,-2212,-3403,-84,1027,126,436,-302,1,0,21,48,640,0,53298,1
91,2,31186,30625,32016,32680,22790,-3781,-259,-2104,-3383,52,941,129,437,-293,1,0,21,48,680,0,53298,1
92,2,31226,30628,32055,32681,22787,-4419,-212,-1501,-4058,2461,1287,119,447,-293,1,0,21,48,720,0,53298,1
93,2,31953,31047,32791,32682,22786,-4740,160,-1886,-3290,4479,1456,115,437,-299,1,0,21,48,760,0,53298,1
94,2,32413,31561,42606,32683,22786,-2698,279,-2414,-2304,3408,454,121,435,-309,1,0,21,48,800,0,53298,1
95,2,41879,35686,42890,32684,22786,-3006,780,-2531,-992,2800,686,121,443,-311,1,0,21,48,840,0,53298,1
96,2,42727,36004,43530,32685,22787,-3476,243,-2453,1014,1964,1166,116,436,-308,1,0,21,48,880,0,53298,1
97,2,42806,36000,43673,32686,22788,-4104,349,-2422,1977,1553,1148,122,436,-316,1,0,21,48,920,0,53298,1
98,2,41409,35455,43571,32687,22790,-3741,285,-2333,1822,608,582,118,444,-320,1,0,21,48,960,0,53298,1
99,1,42893,35995,43568,32688,0,-3386,418,-2541,1753,-103,224,113,437,-327,1,0,21,49,0,0,53298,1
100,2,42662,35884,43422,32689,22325,-3351,404,-2641,594,-78,38,120,440,-308,1,0,21,49,40,0,53298,1
101,2,42275,35713,42991,32690,22326,-3732,292,-2219,-349,185,107,115,429,-321,1,0,21,49,80,0,53298,1
102,2,42306,35638,42851,32691,22328,-3743,259,-2489,-151,49,12,118,440,-314,1,0,21,49,120,0,53298,1
103,2,41864,35548,42721,32692,22329,-3351,567,-2716,-1517,-517,-368,120,444,-310,1,0,21,49,160,0,53298,1
104,2,40772,35012,42007,32693,22330,-3491,397,-2237,-1333,-850,-293,112,428,-304,1,0,21,49,200,0,53298,1
105,2,41494,35137,41683,32694,22329,-3922,-25,-2364,-1489,-1182,-735,118,442,-314,1,0,21,49,240,0,53298,1
106,2,41363,35209,42048,32695,22327,-3610,342,-2114,-1956,-2076,-1200,120,442,-306,1,0,21,49,280,0,53298,1
107,2,37790,31575,38377,32696,22325,-3974,388,-2077,-323,-1345,-416,121,445,-307,1,0,21,49,320,0,53298,1
108,2,31610,30638,32389,32697,22322,-3400,474,-2666,-46,-2176,-1299,122,430,-300,1,0,21,49,360,0,53298,1
109,2,31595,30736,32397,32698,22319,-3433,145,-2105,1695,-2455,-1566,127,433,-297,1,0,21,49,400,0,53298,1
110,2,31392,30578,31997,32699,22315,-4235,-124,-1875,4301,-1482,-627,127,435,-299,1,0,21,49,440,0,53298,1
111,2,39855,33562,40521,32700,22312,-4231,-120,-1792,4606,-1707,-736,131,439,-293,1,0,21,49,480,0,53298,1
112,2,39118,31233,40652,32701,22308,-4081,-86,-2077,2097,-1857,-657,131,443,-297,1,0,21,49,520,0,53298,1
113,2,31231,30701,31990,32702,22303,-3741,-7,-2001,-688,-837,-414,129,439,-291,1,0,21,49,560,0,53298,1
114,2,31385,30735,32177,32703,22299,-3754,170,-2024,-325,-389,329,134,440,-286,1,0,21,49,600,0,53298,1
115,2,31604,30840,32518,32704,22293,-3838,114,-2128,748,-10,-104,127,437,-299,1,0,21,49,640,0,53298,1
116,2,31285,30685,32072,32705,22289,-3898,13,-2105,485,-28,-311,129,441,-293,1,0,21,49,680,0,53298,1
117,2,31242,30698,32020,32706,22284,-3883,-15,-2042,-214,-120,-166,127,431,-297,1,0,21,49,720,0,53298,1
118,2,31400,30613,32270,32707,22280,-3703,-134,-1446,-1034,113,645,128,440,-292,1,0,21,49,760,0,53298,1
119,2,31285,30705,32123,32708,22277,-4099,-352,-2422,-5640,1411,1431,114,444,-290,1,0,21,49,800,0,53298,1
120,2,31319,30715,32190,32709,22274,-4188,263,-1412,-210,2115,1368,119,443,-291,1,0,21,49,840,0,53298,1
121,2,31310,30234,32153,32710,22271,-3703,279,-2431,232,2436,580,118,442,-294,1,0,21,49,880,0,53298,1
122,2,31433,30643,32255,32711,22270,-3205,318,-2479,33,1896,355,124,436,-300,1,0,21,49,920,0,53298,1
123,2,31630,30777,32470,32712,22269,-3605,194,-2216,-742,1844,354,117,433,-303,1,0,21,49,960,0,53298,1
124,1,31672,30767,32495,32713,0,-3772,166,-2126,96,1499,547,125,439,-305,1,0,21,50,0,1,53298,1
125,2,31695,30719,32515,32714,21789,-3761,310,-2275,1304,1738,827,119,435,-305,1,0,21,50,40,1,53298,1
126,2,31684,30743,32735,32715,21789,-3406,219,-2431,713,1296,561,119,437,-307,1,0,21,50,80,1,53298,1
127,2,41687,30508,37135,32716,21791,-3454,261,-2409,93,1030,338,114,448,-302,1,0,21,50,120,1,53298,1
128,2,31818,30650,32657,32717,21792,-3659,245,-2367,672,856,420,125,433,-311,1,0,21,50,160,1,53298,1
129,2,33471,33096,33379,32718,21794,-3732,179,-2339,1137,633,373,119,435,-325,1,0,21,50,200,1,53298,1
130,2,32622,30640,32730,32719,21796,-3509,255,-2455,929,426,298,113,433,-321,1,0,21,50,240,1,53298,1
131,2,32264,30895,33145,32720,21796,-3667,154,-2318,550,421,243,115,435,-317,1,0,21,50,280,1,53298,1
132,2,41696,35728,42609,32721,21797,-3611,285,-2454,475,272,146,115,437,-321,1,0,21,50,320,1,53298,1
133,2,41947,35768,42658,32722,21800,-3510,325,-2533,107,43,17,116,438,-312,1,0,21,50,360,1,53298,1
134,2,41910,35545,42693,32723,21801,-3548,246,-2495,-492,-104,-228,114,434,-312,1,0,21,50,400,1,53298,1
135,2,41088,44140,41913,32724,21801,-3546,558,-2485,-1074,-381,-323,118,450,-310,1,0,21,50,440,1,53298,1
136,2,32031,30929,37795,32725,21800,-3271,73,-2678,-2641,-1420,-1211,121,435,-303,1,0,21,50,480,1,53298,1
137,2,33260,35205,34869,32726,21798,-3893,-12,-2097,-2343,-1734,-795,114,432,-302,1,0,21,50,520,1,53298,1
138,2,31664,30833,32950,32727,21795,-3616,816,-2579,-707,-1957,-562,123,435,-309,1,0,21,50,560,1,53298,1
139,2,31576,30757,32318,32728,21791,-3071,422,-2658,-805,-3357,-2060,121,443,-297,1,0,21,50,600,1,53298,1
140,2,31530,30722,32247,32729,21786,-3712,-124,-1881,2010,-2358,-1617,123,439,-299,1,0,21,50,640,1,53298,1
141,2,40521,32763,38652,32730,21781,-4416,-435,-1721,5016,-2401,-561,131,445,-303,1,0,21,50,680,1,53298,1
142,2,32247,31011,32788,32731,21775,-4321,-141,-1848,3096,-2089,-926,130,438,-298,1,0,21,50,720,1,53298,1
143,2,31367,30539,32070,32732,21769,-3946,-215,-2152,-186,-902,-341,124,444,-284,1,0,21,50,760,1,53298,1
144,2,31364,30338,32088,32733,21764,-3643,106,-2017,-1283,-188,324,127,449,-297,1,0,21,50,800,1,53298,1
145,2,31374,30331,32112,32734,21759,-3656,210,-2062,94,-66,323,124,434,-292,1,0,21,50,840,1,53298,1
146,2,31380,30707,32132,32735,21754,-3956,-18,-2198,728,266,-43,123,445,-301,1,0,21,50,880,1,53298,1
147,2,31411,30387,32200,32736,21749,-3874,-45,-1881,-1959,364,840,129,439,-299,1,0,21,50,920,1,53298,1
148,2,31471,29969,32309,32737,21744,-4512,12,-2276,-3948,1990,1688,132,448,-294,1,0,21,50,960,1,53298,1
149,1,31544,30673,32367,32738,0,-3972,195,-1745,591,2328,1126,127,441,-307,1,0,21,51,0,0,53298,1
150,2,31572,30630,32416,32739,21254,-3504,475,-2407,-192,3616,859,120,440,-298,1,0,21,51,40,0,53298,1
151,2,31656,30665,32548,32740,21252,-3087,476,-2726,170,2790,693,121,435,-315,1,0,21,51,80,0,53298,1
152,2,31769,30794,32695,32741,21252,-3593,162,-2430,865,2228,861,126,440,-316,1,0,21,51,120,0,53298,1
153,2,31959,30750,32520,32742,21252,-3859,215,-2418,1793,1460,811,116,436,-324,1,0,21,51,160,0,53298,1
154,2,41399,36796,41155,32743,21252,-3679,185,-2450,1260,934,493,118,438,-324,1,0,21,51,200,0,53298,1
155,2,33313,31615,33149,32744,21253,-3461,195,-2427,-5,587,323,111,443,-325,1,0,21,51,240,0,53298,1
156,2,41956,35477,42882,32745,21254,-3535,197,-2377,561,418,362,120,442,-332,1,0,21,51,280,0,53298,1
157,2,41960,36137,42641,32746,21257,-3644,194,-2448,1096,221,266,114,436,-316,1,0,21,51,320,0,53298,1
158,2,41673,36107,42248,32747,21259,-3527,252,-2481,737,78,92,115,439,-323,1,0,21,51,360,0,53298,1
159,2,40923,35978,41664,32748,21260,-3517,234,-2552,-44,48,-87,126,442,-322,1,0,21,51,400,0,53298,1
160,2,40908,35230,41665,32749,21262,-3637,127,-2392,-617,32,-153,115,439,-313,1,0,21,51,440,0,53298,1
161,2,40704,35133,41424,32750,21263,-3610,187,-2486,-273,-59,-23,118,442,-322,1,0,21,51,480,0,53298,1
162,2,40546,35080,41337,32751,21262,-3538,189,-2507,-618,-228,-146,125,439,-321,1,0,21,51,520,0,53298,1
163,2,40484,35131,41185,32752,21262,-3687,157,-2325,-514,-199,-2,113,439,-325,1,0,21,51,560,0,53298,1
164,2,40161,33204,36123,32753,21263,-3626,256,-2443,-363,-181,-98,118,442,-322,1,0,21,51,600,0,53298,1
165,2,40337,34793,40968,32754,21262,-3393,140,-2516,-967,-414,-388,120,440,-318,1,0,21,51,640,0,53298,1
166,2,40209,34770,40801,32755,21262,-3708,306,-2372,-702,-469,-107,120,428,-314,1,0,21,51,680,0,53298,1
167,2,38760,33226,39887,32756,21259,-3100,457,-2531,-1401,-1686,-841,128,440,-304,1,0,21,51,720,0,53298,1
168,2,31359,30566,32108,32757,21257,-3511,326,-2618,-2516,-2542,-1528,123,437,-307,1,0,21,51,760,0,53298,1
169,2,31640,30670,32415,32758,21253,-3364,464,-2324,-2223,-3762,-1906,124,440,-300,1,0,21,51,800,0,53298,1
170,2,31530,30581,32236,32759,21248,-4055,-307,-1724,2408,-2518,-1365,128,444,-290,1,0,21,51,840,0,53298,1
171,2,31563,30696,32316,32760,21244,-4236,-654,-1939,5389,-1883,-698,121,437,-307,1,0,21,51,880,0,53298,1
172,2,31493,30760,32291,32761,21239,-4204,138,-1902,-312,-1557,212,117,439,-297,1,0,21,51,920,0,53298,1
173,2,32504,31149,33223,32762,21235,-3735,131,-1953,-452,-712,427,127,435,-295,1,0,21,51,960,0,53298,1
174,1,32549,31200,33294,32763,0,-3606,168,-2196,-418,340,-284,122,438,-296,1,0,21,52,0,1,53298,1
175,2,32221,31024,32994,32764,20719,-3661,-19,-1768,-729,112,137,125,445,-301,1,0,21,52,40,1,53298,1
176,2,31814,30938,32605,32765,20714,-4454,-287,-2261,-3224,1469,967,125,439,-301,1,0,21,52,80,1,53298,1
177,2,31844,30790,32687,32766,20711,-4212,-14,-1898,627,1901,1324,115,437,-295,1,0,21,52,120,1,53298,1
178,2,31797,30603,32601,32767,20707,-3412,453,-2416,1052,2495,814,122,438,-304,1,0,21,52,160,1,53298,1
179,2,31438,30719,32247,32768,20705,-3143,482,-2702,531,2476,611,119,443,-305,1,0,21,52,200,1,53298,1
180,2,31851,30721,32655,32769,20705,-3668,231,-2378,-446,2243,664,118,446,-316,1,0,21,52,240,1,53298,1
181,2,32475,30557,32746,32770,20704,-3805,123,-2275,374,1717,806,120,446,-314,1,0,21,52,280,1,53298,1
182,2,32501,30889,40836,32771,20704,-3570,200,-2392,1645,1255,710,114,442,-322,1,0,21,52,320,1,53298,1
183,2,32221,35187,42924,32772,20706,-3560,255,-2433,1335,1012,637,112,436,-324,1,0,21,52,360,1,53298,1
184,2,42268,35759,42981,32773,20707,-3450,315,-2449,559,506,301,118,438,-328,1,0,21,52,400,1,53298,1
185,2,41760,35748,42521,32774,20710,-3605,220,-2431,-7,317,83,118,432,-320,1,0,21,52,440,1,53298,1
186,2,41173,35553,42053,32775,20710,-3593,165,-2431,336,76,88,119,439,-329,1,0,21,52,480,1,53298,1
187,2,41264,35465,42109,32776,20712,-3529,238,-2540,298,6,28,123,441,-323,1,0,21,52,520,1,53298,1
188,2,41016,35358,41892,32777,20713,-3526,195,-2516,-425,-94,-113,112,438,-314,1,0,21,52,560,1,53298,1
189,2,40929,35367,41700,32778,20713,-3685,200,-2359,-343,-67,-5,121,443,-317,1,0,21,52,600,1,53298,1
190,2,40954,35551,41733,32779,20713,-3495,319,-2560,-682,-293,-235,122,430,-320,1,0,21,52,640,1,53298,1
191,2,40924,35067,41621,32780,20714,-3773,205,-2315,-1140,-304,-222,117,439,-311,1,0,21,52,680,1,53298,1
192,2,39851,33361,40804,32781,20713,-3465,838,-2866,-1780,-1164,-615,123,435,-315,1,0,21,52,720,1,53298,1
193,2,31671,30430,32604,32782,20709,-2781,-88,-2881,-3159,-3876,-2161,118,438,-314,1,0,21,52,760,1,53298,1
194,2,31765,30825,32552,32783,20705,-3788,259,-2121,-2531,-2835,-1520,117,437,-299,1,0,21,52,800,1,53298,1
195,2,31725,30884,32471,32784,20700,-3876,82,-1848,1049,-3309,-1304,119,445,-289,1,0,21,52,840,1,53298,1
196,2,31673,30871,32407,32785,20694,-4323,-354,-1738,5806,-2131,-466,125,441,-309,1,0,21,52,880,1,53298,1
197,2,32629,31223,33248,32786,20689,-4113,-161,-1946,2543,-1972,-604,124,440,-298,1,0,21,52,920,1,53298,1
198,2,32347,31120,33091,32787,20684,-3793,-90,-1746,-1424,-1045,-51,128,444,-282,1,0,21,52,960,1,53298,1
199,1,31995,30995,32658,32788,0,-3889,-2,-2090,-3885,622,435,124,438,-288,1,0,21,53,0,1,53298,1
200,2,31726,30892,32354,32789,20187,-3782,-149,-2134,-2700,929,1092,124,436,-304,1,0,21,53,40,1,53298,1
201,2,31782,30378,32633,32790,20183,-4073,355,-1594,1609,2542,1701,119,439,-299,1,0,21,53,80,1,53298,1
202,2,31770,30329,32589,32791,20180,-3861,151,-2513,2017,2857,1044,117,435,-297,1,0,21,53,120,1,53298,1
203,2,31929,30850,32776,32792,20178,-3140,283,-2656,363,2494,462,116,438,-304,1,0,21,53,160,1,53298,1
204,2,31931,30946,32792,32793,20177,-3393,322,-2398,-765,2330,635,111,435,-317,1,0,21,53,200,1,53298,1
205,2,32392,30955,33031,32794,20177,-3607,280,-2314,344,1479,638,114,438,-318,1,0,21,53,240,1,53298,1
206,2,40356,31225,33577,32795,20177,-3683,249,-2343,1743,1074,747,115,439,-321,1,0,21,53,280,1,53298,1
207,2,35251,31101,33457,32796,20179,-3500,179,-2430,977,779,451,122,444,-312,1,0,21,53,320,1,53298,1
208,2,32796,35322,33534,32797,20181,-3506,281,-2469,-12,561,237,111,435,-317,1,0,21,53,360,1,53298,1
209,2,35362,31312,33114,32798,20183,-3633,253,-2398,416,395,236,122,432,-320,1,0,21,53,400,1,53298,1
210,2,32385,31019,33021,32799,20185,-3582,239,-2532,563,177,132,119,441,-323,1,0,21,53,440,1,53298,1
211,2,32850,31183,34404,32800,20186,-3436,433,-2623,-455,-282,-221,116,444,-324,1,0,21,53,480,1,53298,1
212,2,32924,33533,41900,32801,20187,-3468,328,-2444,-1373,-880,-605,126,438,-318,1,0,21,53,520,1,53298,1
213,2,32050,31007,32888,32802,20187,-3872,203,-2403,-1884,-978,-738,118,434,-312,1,0,21,53,560,1,53298,1
214,2,31886,30393,32758,32803,20185,-3066,1010,-2846,-3499,-3688,-1908,113,447,-293,1,0,21,53,600,1,53298,1
215,2,31875,30535,32593,32804,20181,-3184,235,-2420,-1128,-4310,-2347,123,443,-289,1,0,21,53,640,1,53298,1
216,2,31740,30914,32478,32805,20177,-4355,-684,-1507,4456,-2301,-1272,129,445,-299,1,0,21,53,680,1,53298,1
217,2,31765,30847,32475,32806,20172,-4473,-157,-1673,5317,-3283,-557,125,443,-301,1,0,21,53,720,1,53298,1
218,2,31629,30685,32367,32807,20167,-4192,-55,-1920,1054,-1719,-354,130,442,-290,1,0,21,53,760,1,53298,1
219,2,31665,30583,32395,32808,20161,-3701,-114,-1788,-1903,109,245,130,438,-290,1,0,21,53,800,1,53298,1
220,2,31703,30723,32495,32809,20156,-3750,-33,-2166,-4661,930,628,124,434,-292,1,0,21,53,840,1,53298,1
221,2,31725,30803,32559,32810,20151,-3934,93,-2424,-1805,1230,1090,130,440,-296,1,0,21,53,880,1,53298,1
222,2,31739,30659,32585,32811,20148,-4069,276,-1610,1664,2352,1473,121,439,-293,1,0,21,53,920,1,53298,1
223,2,31513,30468,32373,32812,20144,-3703,-14,-2220,1803,2635,1030,120,442,-308,1,0,21,53,960,1,53298,1
224,1,31689,30547,32489,32813,0,-3346,265,-2498,83,2949,587,116,438,-306,1,0,21,54,0,0,53298,1
225,2,32017,30737,32875,32814,19656,-3428,482,-2423,-1040,2450,540,124,440,-312,1,0,21,54,40,0,53298,1
226,2,31963,30774,33085,32815,19655,-3726,145,-2425,814,2118,770,127,437,-321,1,0,21,54,80,0,53298,1
227,2,41419,35094,40470,32816,19655,-3669,243,-2488,1888,1290,796,125,445,-323,1,0,21,54,120,0,53298,1
228,2,41263,35314,41872,32817,19656,-3472,191,-2461,1219,709,655,121,439,-323,1,0,21,54,160,0,53298,1
229,2,41429,34967,42146,32818,19656,-3569,283,-2453,420,394,418,114,450,-318,1,0,21,54,200,0,53298,1
230,2,32663,30800,33320,32819,19656,-3585,272,-2524,-370,83,49,116,432,-326,1,0,21,54,240,0,53298,1
231,2,41440,35349,41729,32820,19657,-3635,259,-2420,-213,-34,-94,113,443,-323,1,0,21,54,280,0,53298,1
232,2,40889,35266,41890,32821,19658,-3565,194,-2456,-47,-132,-185,125,435,-321,1,0,21,54,320,0,53298,1
233,2,41259,35062,42050,32822,19658,-3632,355,-2543,-533,-291,-291,118,434,-312,1,0,21,54,360,0,53298,1
234,2,32205,30948,32919,32823,19658,-2918,1062,-3001,-2804,-2306,-1561,119,439,-307,1,0,21,54,400,0,53298,1
235,2,31825,30791,32605,32824,19654,-2971,476,-2689,-3822,-5300,-2978,128,432,-294,1,0,21,54,440,0,53298,1
236,2,31749,30687,32497,32825,19649,-4033,-998,-1491,259,-2829,-1864,124,436,-302,1,0,21,54,480,0,53298,1
237,2,31688,30404,32442,32826,19644,-4978,-564,-1459,-884,-909,-150,121,447,-295,1,0,21,54,520,0,53298,1
238,2,31730,30411,32488,32827,19640,-4363,120,-2131,-659,-1843,473,131,451,-299,1,0,21,54,560,0,53298,1
239,2,31731,30481,32530,32828,19636,-3321,360,-2069,-758,-44,-162,131,439,-303,1,0,21,54,600,0,53298,1
240,2,31779,30510,32563,32829,19632,-3348,313,-2228,-389,796,330,125,437,-295,1,0,21,54,640,0,53298,1
241,2,31828,30493,32621,32830,19629,-4186,208,-2141,149,1699,632,119,447,-303,1,0,21,54,680,0,53298,1
242,2,31878,30730,32676,32831,19626,-4318,-162,-2047,1142,1961,826,115,443,-297,1,0,21,54,720,0,53298,1
243,2,31982,30834,32785,32832,19624,-3643,225,-2188,1468,2291,927,124,440,-314,1,0,21,54,760,0,53298,1
244,2,32148,31066,32931,32833,19622,-3339,361,-2515,970,2468,913,117,431,-309,1,0,21,54,800,0,53298,1
245,2,35340,31188,35927,32834,19623,-3311,482,-2470,712,1900,922,116,440,-310,1,0,21,54,840,0,53298,1
246,2,32121,30980,32901,32835,19623,-3731,158,-2373,967,1218,722,115,431,-317,1,0,21,54,880,0,53298,1
247,2,32232,31743,33660,32836,19624,-3633,247,-2447,771,476,346,116,438,-316,1,0,21,54,920,0,53298,1
248,2,34798,32837,37936,32837,19626,-3509,137,-2434,22,217,80,110,440,-322,1,0,21,54,960,0,53298,1
249,1,34520,31955,33207,32838,0,-3688,241,-2356,-42,168,194,115,443,-321,1,0,21,55,0,0,53298,1
250,2,40920,35405,33475,32839,19124,-3626,169,-2340,473,108,192,117,439,-327,1,0,21,55,40,0,53298,1
251,2,41302,35564,42238,32840,19125,-3619,170,-2430,618,108,146,118,438,-326,1,0,21,55,80,0,53298,1
252,2,41476,35619,42085,32841,19127,-3584,198,-2415,266,47,118,118,444,-324,1,0,21,55,120,0,53298,1
253,2,41358,35543,42069,32842,19129,-3583,230,-2415,355,64,101,120,438,-326,1,0,21,55,160,0,53298,1
254,2,41303,35580,41940,32843,19131,-3608,189,-2419,374,48,78,116,432,-332,1,0,21,55,200,0,53298,1
255,2,39992,34916,41265,32844,19133,-3530,297,-2580,94,-74,6,112,438,-324,1,0,21,55,240,0,53298,1
256,2,40929,35406,41704,32845,19136,-3662,127,-2274,-212,-49,-45,109,439,-329,1,0,21,55,280,0,53298,1
257,2,40409,35079,41205,32846,19138,-3590,233,-2447,-191,-83,-51,119,441,-315,1,0,21,55,320,0,53298,1
258,2,40609,35195,41380,32847,19139,-3539,221,-2449,-422,-114,-139,116,442,-322,1,0,21,55,360,0,53298,1
259,2,40934,35215,41534,32848,19140,-3602,276,-2619,-647,-156,-121,125,435,-315,1,0,21,55,400,0,53298,1
260,2,36822,31004,34043,32849,19140,-2979,859,-2962,-2666,-1756,-1067,114,438,-302,1,0,21,55,440,0,53298,1
261,2,31347,30747,32149,32850,19137,-2957,584,-2668,-3587,-5286,-2540,117,437,-299,1,0,21,55,480,0,53298,1
262,2,31633,30818,32395,32851,19132,-3836,-110,-1671,863,-3668,-2185,129,435,-299,1,0,21,55,520,0,53298,1
263,2,31209,30688,31914,32852,19127,-4635,-743,-1547,6404,-3125,-698,125,445,-299,1,0,21,55,560,0,53298,1
264,2,31266,30757,32041,32853,19121,-4390,-120,-1735,2855,-2862,-635,133,437,-287,1,0,21,55,600,0,53298,1
265,2,31233,30679,31986,32854,19116,-3926,25,-2021,-1360,-1141,-145,125,443,-287,1,0,21,55,640,0,53298,1
266,2,31220,30665,31973,32855,19111,-3646,133,-2063,-2180,386,-125,125,443,-293,1,0,21,55,680,0,53298,1
267,2,31199,30615,31956,32856,19106,-3637,223,-2166,-331,279,-176,134,450,-296,1,0,21,55,720,0,53298,1
268,2,31145,30593,31896,32857,19102,-3906,97,-2170,1596,54,-406,125,439,-293,1,0,21,55,760,0,53298,1
269,2,31139,30655,31905,32858,19097,-3794,-244,-1701,1031,57,-351,120,440,-290,1,0,21,55,800,0,53298,1
270,2,31169,30603,31961,32859,19093,-4239,-318,-2213,-5069,424,1295,134,436,-286,1,0,21,55,840,0,53298,1
271,2,31197,30685,32060,32860,19089,-4714,-408,-1038,-4093,2936,2045,121,441,-289,1,0,21,55,880,0,53298,1
272,2,31305,30705,32160,32861,19086,-4089,378,-2118,2167,2547,1679,117,439,-309,1,0,21,55,920,0,53298,1
273,2,31449,30692,32229,32862,19086,-3453,597,-2519,2118,4282,1320,123,443,-307,1,0,21,55,960,0,53298,1
274,1,31707,32040,38511,32863,0,-3051,526,-2588,698,2916,760,113,435,-317,1,0,21,56,0,0,53298,1
275,2,37271,32543,32924,32864,18592,-3684,231,-2394,526,2555,878,114,438,-314,1,0,21,56,40,0,53298,1
276,2,40965,35576,42669,32865,18594,-3814,169,-2354,1029,1222,505,114,430,-320,1,0,21,56,80,0,53298,1
277,2,42101,35484,42801,32866,18596,-3366,305,-2564,1445,202,477,122,434,-330,1,0,21,56,120,0,53298,1
278,2,42184,35779,42977,32867,18598,-3446,195,-2402,575,-30,244,123,447,-325,1,0,21,56,160,0,53298,1
279,2,41589,35804,42317,32868,18600,-3671,282,-2385,260,50,152,118,428,-322,1,0,21,56,200,0,53298,1
280,2,41728,35743,42429,32869,18603,-3568,251,-2499,95,-73,-55,121,437,-321,1,0,21,56,240,0,53298,1
281,2,41340,35487,42110,32870,18605,-3596,137,-2407,237,7,27,117,445,-325,1,0,21,56,280,0,53298,1
282,2,41105,35456,41879,32871,18607,-3577,244,-2502,-124,-15,-23,122,424,-312,1,0,21,56,320,0,53298,1
283,2,41087,35528,41755,32872,18609,-3631,133,-2352,-447,-43,-59,119,437,-309,1,0,21,56,360,0,53298,1
284,2,41059,35371,41842,32873,18610,-3577,226,-2448,-208,-119,10,120,436,-318,1,0,21,56,400,0,53298,1
285,2,41318,35534,42029,32874,18612,-3623,174,-2381,-384,-94,-46,112,438,-318,1,0,21,56,440,0,53298,1
286,2,41451,35588,42104,32875,18612,-3600,233,-2500,-461,-86,-76,116,436,-318,1,0,21,56,480,0,53298,1
287,2,41435,35414,42146,32876,18612,-3519,358,-2639,-977,-261,-205,109,445,-317,1,0,21,56,520,0,53298,1
288,2,35537,34653,39583,32877,18612,-3433,731,-2720,-1866,-957,-489,123,423,-305,1,0,21,56,560,0,53298,1
289,2,31378,30625,32224,32878,18610,-2819,530,-2538,-3950,-4298,-2276,121,441,-301,1,0,21,56,600,0,53298,1
290,2,31432,30256,32259,32879,18606,-3941,-253,-1841,-2678,-3162,-1716,124,444,-300,1,0,21,56,640,0,53298,1
291,2,31320,30092,32106,32880,18602,-4704,-543,-2019,-902,-1662,-1104,130,448,-292,1,0,21,56,680,0,53298,1
292,2,31289,30565,32038,32881,18597,-3962,479,-1926,585,-1926,-343,126,446,-298,1,0,21,56,720,0,53298,1
293,2,31271,30180,32028,32882,18591,-3642,331,-2025,2832,-1588,-313,130,440,-294,1,0,21,56,760,0,53298,1
294,2,31246,30423,31966,32883,18586,-3640,-16,-1905,1857,-610,-574,132,434,-292,1,0,21,56,800,0,53298,1
295,2,31267,30298,31985,32884,18581,-4132,57,-2213,-1290,371,-203,131,439,-291,1,0,21,56,840,0,53298,1
296,2,31253,30331,31980,32885,18576,-3862,221,-2028,24,-146,-98,120,436,-290,1,0,21,56,880,0,53298,1
297,2,31218,30494,31949,32886,18572,-3675,106,-2242,1146,-139,-311,128,436,-290,1,0,21,56,920,0,53298,1
298,2,31180,30574,31903,32887,18567,-3672,170,-2224,1321,-460,-40,130,438,-296,1,0,21,56,960,0,53298,1
299,1,31170,30594,31894,32888,0,-3878,91,-2086,809,-539,-96,125,441,-293,1,0,21,57,0,0,53298,1
300,2,31171,30504,31889,32889,18058,-3895,57,-2051,595,-496,-236,130,438,-298,1,0,21,57,40,0,53298,1
301,2,31212,30650,31930,32890,18053,-3868,26,-2047,245,-398,-99,129,449,-297,1,0,21,57,80,0,53298,1
302,2,31172,30642,31894,32891,18048,-3824,129,-2082,0,-253,71,124,440,-300,1,0,21,57,120,0,53298,1
303,2,31173,30629,31891,32892,18044,-3820,81,-2123,-40,1,-78,125,443,-295,1,0,21,57,160,0,53298,1
304,2,31149,30616,31868,32893,18039,-3846,83,-2107,76,-19,-120,131,439,-285,1,0,21,57,200,0,53298,1
305,2,31137,30615,31860,32894,18034,-3850,45,-2114,157,-88,-57,128,438,-300,1,0,21,57,240,0,53298,1
306,2,31136,30600,31860,32895,18030,-3836,62,-2090,175,-176,5,128,448,-296,1,0,21,57,280,0,53298,1
307,2,31137,30591,31859,32896,18026,-3854,87,-2096,117,-158,40,128,446,-294,1,0,21,57,320,0,53298,1
308,2,31132,30562,31856,32897,18021,-3837,93,-2084,12,-101,-22,126,444,-296,1,0,21,57,360,0,53298,1
309,2,31132,30541,31859,32898,18017,-3863,44,-2094,13,-60,-64,128,440,-288,1,0,21,57,400,0,53298,1
310,2,31132,30528,31856,32899,18012,-3855,77,-2069,221,-88,-20,124,444,-300,1,0,21,57,440,0,53298,1
311,2,31131,30586,31860,32900,18009,-3850,81,-2085,242,-50,-24,130,438,-296,1,0,21,57,480,0,53298,1
312,2,31132,30590,31861,32901,18006,-3821,-4,-2006,93,14,-47,118,440,-292,1,0,21,57,520,0,53298,1
313,2,31144,30511,31892,32902,18003,-3913,77,-1751,-900,129,266,122,436,-296,1,0,21,57,560,0,53298,1
314,2,31165,30530,31958,32903,18000,-4053,-37,-2576,-3814,318,1016,121,439,-293,1,0,21,57,600,0,53298,1
315,2,31168,30315,32000,32904,17996,-4271,141,-1587,-1469,2110,1291,120,434,-302,1,0,21,57,640,0,53298,1
316,2,31210,30345,32033,32905,17995,-3814,315,-2406,1750,1579,1190,122,444,-306,1,0,21,57,680,0,53298,1
317,2,31235,30481,32044,32906,17993,-3394,490,-2372,614,2097,226,119,441,-303,1,0,21,57,720,0,53298,1
318,2,31267,30514,32077,32907,17991,-3596,123,-2431,-426,1405,230,120,440,-302,1,0,21,57,760,0,53298,1
319,2,31290,30472,32095,32908,17989,-3860,167,-2190,-873,1406,340,130,434,-296,1,0,21,57,800,0,53298,1
320,2,31320,30612,32124,32909,17987,-3874,274,-2242,313,1064,453,131,443,-301,1,0,21,57,840,0,53298,1
321,2,31335,30097,32126,32910,17986,-3587,259,-2270,984,959,563,126,438,-302,1,0,21,57,880,0,53298,1
322,2,31387,30218,32177,32911,17985,-3602,201,-2267,519,1167,602,121,439,-317,1,0,21,57,920,0,53298,1
323,2,31390,30107,32174,32912,17984,-3560,228,-2351,129,1122,452,113,435,-301,1,0,21,57,960,0,53298,1
324,1,31435,30374,32220,32913,0,-3784,226,-2315,777,1292,570,114,442,-312,1,0,21,58,0,1,53298,1
325,2,33888,30653,32374,32914,17529,-3568,225,-2459,969,957,359,109,431,-317,1,0,21,58,40,1,53298,1
326,2,31532,30447,32282,32915,17530,-3483,218,-2484,848,654,356,115,445,-311,1,0,21,58,80,1,53298,1
327,2,37637,33864,36637,32916,17532,-3653,181,-2319,987,476,428,118,440,-328,1,0,21,58,120,1,53298,1
328,2,41022,35036,40902,32917,17534,-3594,263,-2440,1111,207,257,118,444,-324,1,0,21,58,160,1,53298,1
329,2,39710,33417,38925,32918,17537,-3616,147,-2398,140,173,16,108,434,-316,1,0,21,58,200,1,53298,1
330,2,39030,34193,39805,32919,17540,-3581,174,-2437,-381,80,-27,124,438,-314,1,0,21,58,240,1,53298,1
331,2,38990,34232,39577,32920,17544,-3593,250,-2536,197,15,70,124,436,-328,1,0,21,58,280,1,53298,1
332,2,39030,34361,39702,32921,17546,-3607,170,-2377,23,-35,1,117,431,-323,1,0,21,58,320,1,53298,1
333,2,38781,34228,39507,32922,17549,-3650,168,-2403,-40,17,19,120,432,-322,1,0,21,58,360,1,53298,1
334,2,38890,34302,39555,32923,17551,-3588,197,-2428,98,-30,49,108,438,-322,1,0,21,58,400,1,53298,1
335,2,38664,34248,39496,32924,17554,-3596,200,-2426,208,-36,75,117,437,-317,1,0,21,58,440,1,53298,1
336,2,38926,34362,39485,32925,17555,-3648,160,-2375,-11,13,15,113,437,-325,1,0,21,58,480,1,53298,1
337,2,38036,33984,38751,32926,17558,-3598,195,-2423,-42,-20,24,115,431,-309,1,0,21,58,520,1,53298,1
338,2,37432,33678,38126,32927,17560,-3588,196,-2418,-2,-42,19,118,436,-326,1,0,21,58,560,1,53298,1
339,2,37725,33822,38486,32928,17562,-3598,185,-2388,-148,-37,-5,117,433,-319,1,0,21,58,600,1,53298,1
340,2,37757,33813,38410,32929,17565,-3607,202,-2408,-52,-38,5,124,440,-330,1,0,21,58,640,1,53298,1
341,2,37695,33773,38534,32930,17568,-3595,181,-2427,-65,-44,-46,118,438,-328,1,0,21,58,680,1,53298,1
342,2,37843,33858,38636,32931,17569,-3615,208,-2408,-130,-7,-22,113,437,-313,1,0,21,58,720,1,53298,1
343,2,37519,33694,38244,32932,17571,-3583,192,-2436,-37,-30,-9,115,439,-321,1,0,21,58,760,1,53298,1
344,2,37542,33468,38100,32933,17573,-3568,281,-2534,-253,-143,-80,118,432,-318,1,0,21,58,800,1,53298,1
345,2,37469,33364,38186,32934,17573,-3522,334,-2355,-613,-335,-179,122,430,-318,1,0,21,58,840,1,53298,1
346,2,37430,33461,38561,32935,17574,-3539,136,-2351,-771,-351,-262,111,437,-325,1,0,21,58,880,1,53298,1
347,2,38661,33509,39224,32936,17574,-3608,278,-2560,-1548,-573,-536,114,432,-328,1,0,21,58,920,1,53298,1
348,2,32635,30454,32828,32937,17573,-3448,607,-2566,-2081,-1564,-782,123,435,-315,1,0,21,58,960,1,53298,1
349,1,31603,30324,32432,32938,0,-3766,162,-2276,-1595,-2143,-1039,131,435,-307,1,0,21,59,0,0,53298,1
350,2,31433,30250,32208,32939,16997,-4221,-110,-2151,-1291,-1370,-571,115,427,-307,1,0,21,59,40,0,53298,1
351,2,31307,30282,32065,32940,16995,-3746,361,-2230,-1199,-1229,-555,114,442,-298,1,0,21,59,80,0,53298,1
352,2,31282,30325,32041,32941,16992,-3651,346,-2190,-393,-855,-371,130,440,-296,1,0,21,59,120,0,53298,1
353,2,31442,30465,32183,32942,16990,-3565,254,-2386,-64,-725,-442,130,434,-302,1,0,21,59,160,0,53298,1
354,2,31298,30185,31999,32943,16987,-3621,310,-2406,-7,-1026,-1099,127,435,-301,1,0,21,59,200,0,53298,1
355,2,31258,30015,31986,32944,16984,-3742,199,-2087,1697,-1298,-979,126,444,-300,1,0,21,59,240,0,53298,1
356,2,31179,30351,31896,32945,16980,-4010,-147,-2115,3388,-1257,-440,130,434,-296,1,0,21,59,280,0,53298,1
357,2,31191,30545,31911,32946,16976,-3977,-36,-2052,2345,-1654,-574,129,437,-299,1,0,21,59,320,0,53298,1
358,2,31255,30684,31985,32947,16972,-3911,113,-1981,582,-2045,-299,122,450,-296,1,0,21,59,360,0,53298,1
359,2,31200,30672,31934,32948,16968,-3895,-45,-1992,-475,-817,-283,129,441,-297,1,0,21,59,400,0,53298,1
360,2,31198,30696,31955,32949,16963,-3817,159,-2092,-740,-718,-195,127,443,-299,1,0,21,59,440,0,53298,1
361,2,31356,30769,32120,32950,16959,-3810,96,-2071,448,-683,-236,125,433,-291,1,0,21,59,480,0,53298,1
362,2,31428,30747,32183,32951,16955,-3900,20,-2127,305,-275,-299,125,441,-285,1,0,21,59,520,0,53298,1
363,2,31268,30701,32008,32952,16951,-3898,9,-2055,-75,-393,-188,128,438,-282,1,0,21,59,560,0,53298,1
364,2,31197,30694,31961,32953,16947,-3842,71,-2003,149,-515,-6,131,443,-293,1,0,21,59,600,0,53298,1
365,2,31176,30684,31942,32954,16943,-3864,59,-2057,178,-266,42,138,438,-296,1,0,21,59,640,0,53298,1
366,2,31157,30674,31924,32955,16939,-3888,42,-2024,-45,-122,-20,124,440,-292,1,0,21,59,680,0,53298,1
367,2,31138,30672,31904,32956,16935,-3890,62,-2039,-97,-19,19,133,437,-287,1,0,21,59,720,0,53298,1
368,2,31129,30671,31892,32957,16930,-3890,44,-2045,156,39,-3,132,444,-294,1,0,21,59,760,0,53298,1
369,2,31129,30667,31887,32958,16926,-3874,36,-2054,140,31,5,121,437,-295,1,0,21,59,800,0,53298,1
370,2,31118,30664,31883,32959,16923,-3874,50,-2049,6,83,-9,127,441,-293,1,0,21,59,840,0,53298,1
371,2,31120,30661,31880,32960,16919,-3902,33,-2076,20,67,27,128,444,-296,1,0,21,59,880,0,53298,1
372,2,31118,30663,31887,32961,16917,-3871,45,-2035,77,38,69,129,439,-287,1,0,21,59,920,0,53298,1
373,2,31129,30665,31913,32962,16913,-3781,-15,-1767,-424,160,313,135,443,-289,1,0,21,59,960,0,53298,1
374,1,31133,30629,31937,32963,0,-4088,6,-2344,-2594,1073,893,126,442,-294,1,0,22,0,0,0,53298,1
375,2,31138,30577,31970,32964,16464,-3850,-107,-1652,-749,1260,681,124,440,-292,1,0,22,0,40,0,53298,1
376,2,31155,30634,32011,32965,16462,-4028,137,-2092,-137,1412,1114,129,445,-293,1,0,22,0,80,0,53298,1
377,2,31189,30635,32024,32966,16459,-3938,295,-2045,852,2115,872,123,437,-297,1,0,22,0,120,0,53298,1
378,2,31205,30620,32030,32967,16456,-3484,298,-2445,-307,1320,92,120,438,-308,1,0,22,0,160,0,53298,1
379,2,31222,30614,32046,32968,16453,-3575,203,-2303,-1083,960,55,124,444,-304,1,0,22,0,200,0,53298,1
380,2,31247,30590,32068,32969,16451,-3837,-12,-2072,-207,903,447,122,438,-294,1,0,22,0,240,0,53298,1
381,2,31280,30637,32102,32970,16449,-3935,-4,-1969,351,1197,619,108,434,-306,1,0,22,0,280,0,53298,1
382,2,31431,30026,32226,32971,16447,-3790,60,-2029,669,2011,1023,125,437,-307,1,0,22,0,320,0,53298,1
383,2,31471,30107,32244,32972,16447,-3247,436,-2410,736,2447,1069,122,436,-306,1,0,22,0,360,0,53298,1
384,2,31741,33215,32849,32973,16449,-3521,261,-2429,919,2092,878,118,434,-318,1,0,22,0,400,0,53298,1
385,2,37382,33781,37081,32974,16451,-3571,180,-2446,768,1503,583,115,437,-313,1,0,22,0,440,0,53298,1
386,2,39581,34480,40495,32975,16453,-3570,231,-2405,892,858,423,117,443,-317,1,0,22,0,480,0,53298,1
387,2,38221,33781,39045,32976,16456,-3535,170,-2434,1276,313,325,119,435,-319,1,0,22,0,520,0,53298,1
388,2,40557,34766,41081,32977,16460,-3563,227,-2432,1028,82,203,123,445,-321,1,0,22,0,560,0,53298,1
389,2,40285,33842,39136,32978,16464,-3574,171,-2444,547,-21,-16,114,438,-324,1,0,22,0,600,0,53298,1
390,2,40087,34657,40755,32979,16468,-3559,226,-2486,338,-110,-44,118,446,-322,1,0,22,0,640,0,53298,1
391,2,40031,35197,40666,32980,16472,-3543,217,-2538,-173,-110,-91,120,440,-328,1,0,22,0,680,0,53298,1
392,2,39845,37789,40627,32981,16475,-3641,116,-2366,-611,-66,-90,120,442,-326,1,0,22,0,720,0,53298,1
393,2,39730,39801,40504,32982,16477,-3657,162,-2407,-81,-55,60,126,436,-322,1,0,22,0,760,0,53298,1
394,2,40240,36413,40720,32983,16481,-3589,180,-2383,-51,-68,-1,117,439,-321,1,0,22,0,800,0,53298,1
395,2,39389,34924,40644,32984,16483,-3609,165,-2403,-15,-23,40,117,435,-313,1,0,22,0,840,0,53298,1
396,2,40059,35116,40683,32985,16486,-3627,165,-2399,89,-10,52,115,441,-331,1,0,22,0,880,0,53298,1
397,2,39940,35933,40184,32986,16489,-3571,180,-2441,-71,-20,-5,113,441,-323,1,0,22,0,920,0,53298,1
398,2,40351,35139,41039,32987,16491,-3624,161,-2389,-173,73,-6,124,444,-322,1,0,22,0,960,0,53298,1
399,1,40434,34887,41098,32988,0,-3594,201,-2407,-145,-9,-14,117,439,-323,1,0,22,1,0,0,53298,1
400,2,40317,35008,40899,32989,15937,-3590,175,-2423,-282,-58,-55,115,439,-325,1,0,22,1,40,0,53298,1
401,2,40424,34700,41079,32990,15939,-3634,179,-2407,-248,-57,3,113,437,-323,1,0,22,1,80,0,53298,1
402,2,40072,38838,40741,32991,15940,-3587,180,-2403,-274,-74,-16,121,441,-321,1,0,22,1,120,0,53298,1
403,2,39845,34553,40508,32992,15941,-3610,195,-2414,-253,-63,-14,118,436,-320,1,0,22,1,160,0,53298,1
404,2,39697,38781,40357,32993,15942,-3654,186,-2418,-295,-62,-16,119,437,-323,1,0,22,1,200,0,53298,1
405,2,39844,34452,40535,32994,15942,-3581,262,-2505,-446,-147,-48,116,430,-314,1,0,22,1,240,0,53298,1
406,2,39829,34506,40349,32995,15942,-3245,406,-2548,-1308,-536,-338,116,436,-322,1,0,22,1,280,0,53298,1
407,2,37543,33196,38512,32996,15941,-3643,438,-2301,-1638,-861,-386,123,435,-307,1,0,22,1,320,0,53298,1
408,2,37398,33215,38073,32997,15939,-3395,-368,-2424,-2329,-1589,-1039,120,436,-314,1,0,22,1,360,0,53298,1
409,2,32469,31485,36486,32998,15936,-3778,376,-2204,-1688,-800,-326,120,436,-312,1,0,22,1,400,0,53298,1
410,2,32750,30774,32071,32999,15933,-3286,726,-2692,-1380,-2104,-1044,122,446,-302,1,0,22,1,440,0,53298,1
411,2,31288,30637,32061,33000,15929,-3140,409,-2540,-256,-3279,-1889,121,447,-307,1,0,22,1,480,0,53298,1
412,2,31257,30667,31964,33001,15924,-3949,-161,-1786,2357,-2158,-1215,125,443,-295,1,0,22,1,520,0,53298,1
413,2,31164,30502,31871,33002,15920,-4459,-425,-1740,4814,-2036,-240,125,445,-301,1,0,22,1,560,0,53298,1
414,2,31194,30498,31893,33003,15915,-4244,-133,-1881,1592,-1511,-486,125,435,-291,1,0,22,1,600,0,53298,1
415,2,31163,30399,31867,33004,15911,-3798,82,-2101,-1751,-740,36,124,442,-294,1,0,22,1,640,0,53298,1
416,2,31168,30374,31872,33005,15906,-3550,303,-2086,-758,-215,-7,122,450,-298,1,0,22,1,680,0,53298,1
417,2,31181,30458,31880,33006,15901,-3765,168,-2202,591,105,-237,116,442,-290,1,0,22,1,720,0,53298,1
418,2,31194,30612,31898,33007,15896,-3940,99,-2103,1166,-160,-455,129,441,-295,1,0,22,1,760,0,53298,1
419,2,31227,30593,31939,33008,15893,-3919,-63,-2100,787,-186,-449,125,439,-303,1,0,22,1,800,0,53298,1
420,2,31640,30650,32231,33009,15888,-3805,-67,-2170,-212,-85,-153,129,441,-295,1,0,22,1,840,0,53298,1
421,2,31397,30524,32098,33010,15884,-3788,92,-2147,-161,-372,199,124,438,-296,1,0,22,1,880,0,53298,1
422,2,31635,30620,32414,33011,15879,-3856,103,-2065,49,-382,57,122,436,-286,1,0,22,1,920,0,53298,1
423,2,31514,30578,32226,33012,15875,-3918,45,-2089,-46,-296,-11,131,447,-291,1,0,22,1,960,0,53298,1
424,1,31515,30610,32218,33013,0,-3849,93,-2052,-248,-124,-31,131,435,-293,1,0,22,2,0,1,53298,1
425,2,31503,30631,32202,33014,15404,-3827,74,-2082,-190,9,-68,124,446,-284,1,0,22,2,40,1,53298,1
426,2,31470,30594,32195,33015,15400,-3841,67,-2127,-470,53,-138,119,435,-295,1,0,22,2,80,1,53298,1
427,2,31305,30549,32005,33016,15397,-3862,7,-2097,-315,-91,-180,131,443,-297,1,0,22,2,120,1,53298,1
428,2,31275,30537,31975,33017,15394,-3867,33,-2080,-68,-151,-38,133,441,-293,1,0,22,2,160,1,53298,1
429,2,31259,30471,31956,33018,15391,-3864,71,-2085,-9,-164,56,121,435,-299,1,0,22,2,200,1,53298,1
430,2,31234,30415,31940,33019,15388,-3839,84,-2058,0,-113,25,137,441,-289,1,0,22,2,240,1,53298,1
431,2,31228,30438,31931,33020,15385,-3854,60,-2083,-26,-50,-2,128,440,-296,1,0,22,2,280,1,53298,1
432,2,31212,30434,31922,33021,15381,-3832,4,-2012,67,-9,22,130,452,-292,1,0,22,2,320,1,53298,1
433,2,31239,30431,31949,33022,15378,-3891,56,-2059,-725,107,244,127,441,-289,1,0,22,2,360,1,53298,1
434,2,31491,30543,32222,33023,15374,-3823,20,-1896,-1668,-26,777,129,435,-293,1,0,22,2,400,1,53298,1
435,2,31294,30148,32064,33024,15371,-3995,-244,-1893,-3065,1547,1147,127,439,-301,1,0,22,2,440,1,53298,1
436,2,31442,30375,32146,33025,15369,-4517,-164,-1316,193,3463,2079,121,445,-291,1,0,22,2,480,1,53298,1
437,2,31847,30201,32520,33026,15367,-4006,110,-2298,1770,5310,1743,115,439,-303,1,0,22,2,520,1,53298,1
438,2,31946,30369,32734,33027,15367,-2679,633,-3077,712,3325,559,118,436,-318,1,0,22,2,560,1,53298,1
439,2,35575,33463,34058,33028,15368,-3202,556,-2705,796,1962,788,119,437,-319,1,0,22,2,600,1,53298,1
440,2,33301,32706,39993,33029,15369,-4197,-22,-2167,1807,1343,1136,121,437,-315,1,0,22,2,640,1,53298,1
441,2,41324,34894,41835,33030,15371,-3980,262,-2381,1079,454,288,121,435,-329,1,0,22,2,680,1,53298,1
442,2,41211,35077,41809,33031,15374,-3298,123,-2563,-239,-7,-6,110,436,-318,1,0,22,2,720,1,53298,1
443,2,41563,35397,42344,33032,15377,-3522,228,-2397,237,86,380,115,433,-327,1,0,22,2,760,1,53298,1
444,2,41278,35270,41971,33033,15380,-3715,298,-2346,819,195,269,115,447,-321,1,0,22,2,800,1,53298,1
445,2,41532,35367,41855,33034,15383,-3603,176,-2425,531,59,-94,115,439,-327,1,0,22,2,840,1,53298,1
446,2,41787,35460,42329,33035,15387,-3519,179,-2560,139,14,-118,114,438,-316,1,0,22,2,880,1,53298,1
447,2,41146,35278,41801,33036,15390,-3624,222,-2395,43,15,26,115,437,-323,1,0,22,2,920,1,53298,1
448,2,40806,34999,41466,33037,15394,-3609,206,-2441,-178,-87,-37,124,438,-316,1,0,22,2,960,1,53298,1
449,1,40988,35091,41671,33038,0,-3613,124,-2360,-371,-94,-82,108,434,-326,1,0,22,3,0,1,53298,1
450,2,41622,35441,42285,33039,14876,-3639,192,-2392,44,-37,83,126,438,-322,1,0,22,3,40,1,53298,1
451,2,41443,35344,42205,33040,14879,-3589,204,-2402,58,-19,1,117,439,-329,1,0,22,3,80,1,53298,1
452,2,41572,35346,42127,33041,14881,-3592,175,-2400,41,76,40,118,436,-322,1,0,22,3,120,1,53298,1
453,2,41974,35565,42456,33042,14884,-3590,215,-2463,-19,14,36,121,433,-317,1,0,22,3,160,1,53298,1
454,2,41750,35499,42481,33043,14886,-3613,185,-2381,-179,-33,1,112,434,-316,1,0,22,3,200,1,53298,1
455,2,41743,35436,42328,33044,14888,-3590,169,-2373,-77,-28,16,113,433,-321,1,0,22,3,240,1,53298,1
456,2,41472,35351,42173,33045,14890,-3618,204,-2435,37,-20,27,120,442,-322,1,0,22,3,280,1,53298,1
457,2,41471,35363,42196,33046,14891,-3582,184,-2432,-26,-35,-17,115,435,-313,1,0,22,3,320,1,53298,1
458,2,41541,35367,42116,33047,14892,-3606,186,-2419,-123,-44,-7,118,434,-316,1,0,22,3,360,1,53298,1
459,2,41484,35324,42214,33048,14892,-3573,255,-2513,-337,-99,-75,116,440,-316,1,0,22,3,400,1,53298,1
460,2,39255,35099,41517,33049,14892,-3475,625,-2894,-1301,-551,-386,122,436,-312,1,0,22,3,440,1,53298,1
461,2,33966,32162,35613,33050,14890,-2834,747,-2329,-3279,-2881,-1399,125,435,-303,1,0,22,3,480,1,53298,1
462,2,32049,30188,32344,33051,14888,-3785,97,-2343,-2480,-3027,-1350,129,433,-297,1,0,22,3,520,1,53298,1
463,2,31312,30429,31959,33052,14884,-3783,-233,-2300,-2038,-3207,-2402,126,448,-302,1,0,22,3,560,1,53298,1
464,2,31226,30660,31895,33053,14880,-4283,-362,-1809,2997,-2114,-851,118,438,-294,1,0,22,3,600,1,53298,1
465,2,31238,30194,31858,33054,14875,-4164,-92,-1768,3553,-2377,-354,127,443,-295,1,0,22,3,640,1,53298,1
466,2,31263,30480,31912,33055,14870,-3983,49,-2012,902,-1715,-222,129,443,-297,1,0,22,3,680,1,53298,1
467,2,31244,30625,31897,33056,14865,-3721,207,-2084,-1028,-1010,-202,126,440,-288,1,0,22,3,720,1,53298,1
468,2,31244,30362,31908,33057,14861,-3739,198,-2069,-475,-365,-374,126,442,-286,1,0,22,3,760,1,53298,1
469,2,31265,30607,31932,33058,14856,-3803,92,-2117,869,-37,-422,130,438,-296,1,0,22,3,800,1,53298,1
470,2,31295,30662,31964,33059,14851,-3849,30,-2053,2390,416,-131,128,444,-296,1,0,22,3,840,1,53298,1
471,2,31300,30645,31972,33060,14846,-3923,50,-2211,1327,80,-48,129,445,-299,1,0,22,3,880,1,53298,1
472,2,31294,30700,31960,33061,14842,-3840,-14,-2101,216,-227,-120,132,440,-288,1,0,22,3,920,1,53298,1
473,2,31263,30679,31926,33062,14838,-3832,9,-2094,-349,37,-49,131,445,-299,1,0,22,3,960,1,53298,1
474,1,31260,30578,31924,33063,0,-3850,23,-2140,-371,-38,89,123,445,-289,1,0,22,4,0,0,53298,1
475,2,31294,30528,31969,33064,14344,-3882,60,-2087,5,-226,160,131,435,-293,1,0,22,4,40,0,53298,1
476,2,31332,30590,32002,33065,14339,-3851,42,-2096,-25,-136,72,142,448,-288,1,0,22,4,80,0,53298,1
477,2,31410,30530,32082,33066,14334,-3822,73,-2103,-98,0,-9,121,441,-289,1,0,22,4,120,0,53298,1
478,2,31480,30501,32245,33067,14330,-3857,32,-2109,-212,12,-41,129,443,-289,1,0,22,4,160,0,53298,1
479,2,31587,30056,32266,33068,14325,-3871,36,-1903,-778,-2,208,128,438,-294,1,0,22,4,200,0,53298,1
480,2,31608,30562,32294,33069,14321,-3911,-32,-1994,-2206,347,577,122,434,-298,1,0,22,4,240,0,53298,1
481,2,31615,30338,32358,33070,14318,-4142,12,-2362,-2045,1226,996,124,446,-298,1,0,22,4,280,0,53298,1
482,2,31688,30562,32414,33071,14315,-3845,254,-1920,51,1654,904,124,440,-296,1,0,22,4,320,0,53298,1
483,2,31700,30597,32432,33072,14311,-3546,340,-2400,322,1229,427,119,445,-301,1,0,22,4,360,0,53298,1
484,2,31695,30478,32414,33073,14308,-3517,397,-2417,217,822,93,119,439,-301,1,0,22,4,400,0,53298,1
485,2,31716,30625,32429,33074,14306,-3760,42,-2164,-39,247,65,126,446,-298,1,0,22,4,440,0,53298,1
486,2,31718,30492,32432,33075,14303,-4066,-109,-2004,-828,445,263,128,436,-306,1,0,22,4,480,0,53298,1
487,2,31607,30538,32324,33076,14301,-3949,-95,-1963,-699,826,515,121,441,-309,1,0,22,4,520,0,53298,1
488,2,31979,30381,32539,33077,14300,-4001,178,-1931,-1,1866,931,114,452,-306,1,0,22,4,560,0,53298,1
489,2,32020,30344,32656,33078,14299,-3881,308,-2316,1179,2674,1168,118,432,-314,1,0,22,4,600,0,53298,1
490,2,32080,30594,32873,33079,14299,-3208,321,-2572,946,2059,592,126,438,-312,1,0,22,4,640,0,53298,1
491,2,32600,31063,32975,33080,14300,-3436,315,-2523,965,1586,716,119,431,-321,1,0,22,4,680,0,53298,1
492,2,40028,34965,39005,33081,14300,-3802,61,-2229,1726,1092,658,115,435,-315,1,0,22,4,720,0,53298,1
493,2,33665,31694,34285,33082,14301,-3623,238,-2470,2422,816,621,117,437,-317,1,0,22,4,760,0,53298,1
494,2,41793,35219,42552,33083,14303,-3587,180,-2392,1059,509,312,119,433,-327,1,0,22,4,800,0,53298,1
495,2,41992,35597,42697,33084,14306,-3678,52,-2418,205,240,118,113,447,-313,1,0,22,4,840,0,53298,1
496,2,42436,35912,43012,33085,14309,-3580,165,-2491,266,-8,-64,110,432,-328,1,0,22,4,880,0,53298,1
497,2,42005,35506,42641,33086,14313,-3546,197,-2474,970,-43,58,116,442,-334,1,0,22,4,920,0,53298,1
498,2,41575,35337,42114,33087,14318,-3544,282,-2576,971,-60,66,119,437,-327,1,0,22,4,960,0,53298,1
499,1,41728,35392,42249,33088,0,-3555,121,-2488,-492,-71,-203,117,445,-327,1,0,22,5,0,1,53298,1
500,2,41476,35443,41964,33089,13817,-3703,72,-2352,-655,-50,-83,122,442,-322,1,0,22,5,40,1,53298,1
501,2,41615,35514,42128,33090,13820,-3560,168,-2457,-155,-141,-28,123,439,-317,1,0,22,5,80,1,53298,1
502,2,40958,35120,41650,33091,13822,-3618,124,-2386,-150,-30,15,119,439,-329,1,0,22,5,120,1,53298,1
503,2,41313,35268,41936,33092,13825,-3616,144,-2424,-100,-1,11,127,435,-331,1,0,22,5,160,1,53298,1
504,2,31943,30560,32547,33093,13827,-3587,129,-2470,8,71,12,128,430,-320,1,0,22,5,200,1,53298,1
505,2,32281,30583,32831,33094,13829,-3608,142,-2432,-143,16,-9,104,440,-320,1,0,22,5,240,1,53298,1
506,2,32168,30633,32775,33095,13831,-3591,149,-2459,-307,-46,-32,120,430,-322,1,0,22,5,280,1,53298,1
507,2,32028,30707,32642,33096,13833,-3605,149,-2396,-239,-76,-23,123,435,-327,1,0,22,5,320,1,53298,1
508,2,32171,30968,32834,33097,13834,-3609,193,-2441,-111,-43,13,115,431,-327,1,0,22,5,360,1,53298,1
509,2,39846,34485,40430,33098,13836,-3612,152,-2454,-304,-47,-47,115,443,-317,1,0,22,5,400,1,53298,1
510,2,40017,34498,40384,33099,13836,-3640,177,-2419,-279,-55,-3,122,436,-322,1,0,22,5,440,1,53298,1
511,2,39302,34301,39972,33100,13836,-3465,228,-2619,-701,-215,-176,120,446,-314,1,0,22,5,480,1,53298,1
512,2,38352,33848,39696,33101,13836,-3898,152,-2178,-638,-128,62,123,441,-313,1,0,22,5,520,1,53298,1
513,2,38859,33966,39156,33102,13836,-3580,424,-2601,-791,-458,-223,115,425,-321,1,0,22,5,560,1,53298,1
514,2,36281,33484,35283,33103,13834,-3059,295,-2766,-2416,-1834,-1249,118,438,-312,1,0,22,5,600,1,53298,1
515,2,31362,30473,32108,33104,13830,-3379,485,-2519,-2873,-3390,-1519,121,437,-305,1,0,22,5,640,1,53298,1
516,2,31260,30151,31973,33105,13827,-3567,223,-2182,-353,-3569,-2046,121,439,-297,1,0,22,5,680,1,53298,1
517,2,31207,29967,31893,33106,13822,-4319,-190,-1786,3677,-2631,-1127,127,443,-311,1,0,22,5,720,1,53298,1
518,2,31142,30608,31849,33107,13817,-4287,-340,-1851,3682,-2738,-673,128,438,-290,1,0,22,5,760,1,53298,1
519,2,31204,30624,31863,33108,13812,-4028,-106,-1934,-383,-1782,-589,130,434,-288,1,0,22,5,800,1,53298,1
520,2,31168,30485,31842,33109,13807,-3792,117,-2115,-1989,-969,-209,129,437,-291,1,0,22,5,840,1,53298,1
521,2,31150,30472,31817,33110,13803,-3704,121,-2049,-856,-584,-233,123,441,-293,1,0,22,5,880,1,53298,1
522,2,31147,30466,31815,33111,13799,-3843,83,-2114,296,-279,-267,125,439,-291,1,0,22,5,920,1,53298,1
523,2,31142,30516,31816,33112,13795,-3925,15,-2097,425,-21,-305,140,444,-288,1,0,22,5,960,1,53298,1
524,1,31135,30546,31823,33113,0,-3886,-44,-2119,5,-61,-235,128,444,-290,1,0,22,6,0,1,53298,1
525,2,31138,30620,31828,33114,13285,-3817,29,-2083,147,-314,37,130,438,-290,1,0,22,6,40,1,53298,1
526,2,31138,30671,31830,33115,13280,-3860,35,-2102,366,-214,169,128,438,-290,1,0,22,6,80,1,53298,1
527,2,31133,30625,31830,33116,13275,-3911,81,-2056,127,-161,119,134,444,-288,1,0,22,6,120,1,53298,1
528,2,31138,30600,31830,33117,13270,-3902,37,-2049,-71,-24,30,128,440,-288,1,0,22,6,160,1,53298,1
529,2,31145,30615,31845,33118,13266,-3852,21,-2063,-19,83,24,128,444,-292,1,0,22,6,200,1,53298,1
530,2,31220,30615,31920,33119,13261,-3851,70,-2090,181,6,60,131,441,-287,1,0,22,6,240,1,53298,1
531,2,31207,30606,31899,33120,13257,-3882,34,-2075,201,66,-56,124,440,-294,1,0,22,6,280,1,53298,1
532,2,31332,30489,32106,33121,13253,-3875,32,-2079,15,39,-40,124,436,-288,1,0,22,6,320,1,53298,1
533,2,31611,30774,32317,33122,13248,-3866,26,-2090,-74,9,3,124,446,-288,1,0,22,6,360,1,53298,1
534,2,31595,30764,32174,33123,13243,-3866,29,-2077,31,-5,8,127,441,-291,1,0,22,6,400,1,53298,1
535,2,31291,30656,31992,33124,13238,-3891,41,-2071,48,13,50,123,441,-293,1,0,22,6,440,1,53298,1
536,2,31233,30585,31940,33125,13233,-3855,21,-2055,-19,-8,13,128,442,-290,1,0,22,6,480,1,53298,1
537,2,31225,30572,31950,33126,13229,-3808,92,-1651,-1081,-54,384,122,438,-294,1,0,22,6,520,1,53298,1
538,2,31239,30663,31990,33127,13225,-4069,-176,-2395,-4155,1492,1185,129,439,-287,1,0,22,6,560,1,53298,1
539,2,31255,30697,32014,33128,13221,-4070,-134,-1445,-847,2154,1511,127,441,-293,1,0,22,6,600,1,53298,1
540,2,31300,30593,32055,33129,13218,-3909,370,-2067,953,2700,1287,120,442,-300,1,0,22,6,640,1,53298,1
541,2,31355,30443,32085,33130,13216,-3426,177,-2572,283,2453,429,114,428,-310,1,0,22,6,680,1,53298,1
542,2,31360,30469,32058,33131,13214,-3609,398,-2278,-250,2631,846,113,433,-303,1,0,22,6,720,1,53298,1
543,2,31434,30720,32148,33132,13213,-3912,16,-2191,-59,2482,710,116,434,-316,1,0,22,6,760,1,53298,1
544,2,31985,30457,32858,33133,13212,-3878,223,-2354,2000,2331,1357,115,441,-315,1,0,22,6,800,1,53298,1
545,2,41884,38276,42789,33134,13213,-3337,313,-2550,2092,1500,849,120,438,-316,1,0,22,6,840,1,53298,1
546,2,42126,35940,42672,33135,13215,-3387,364,-2555,980,704,483,114,436,-324,1,0,22,6,880,1,53298,1
547,2,42111,35686,42851,33136,13217,-3680,273,-2416,134,204,169,116,444,-324,1,0,22,6,920,1,53298,1
548,2,42174,35643,42770,33137,13220,-3653,193,-2432,236,63,75,111,445,-325,1,0,22,6,960,1,53298,1
549,1,42285,35814,43026,33138,0,-3626,124,-2346,307,5,41,117,441,-315,1,0,22,7,0,1,53298,1
550,2,42375,35900,43014,33139,12760,-3581,166,-2418,511,-17,48,118,434,-328,1,0,22,7,40,1,53298,1
551,2,41363,35550,43136,33140,12763,-3633,200,-2387,722,31,-106,119,441,-321,1,0,22,7,80,1,53298,1
552,2,42478,35742,42725,33141,12766,-3591,166,-2498,621,-2,-177,124,436,-314,1,0,22,7,120,1,53298,1
553,2,41774,37738,42334,33142,12769,-3544,169,-2505,566,-21,-88,123,437,-317,1,0,22,7,160,1,53298,1
554,2,41910,35537,42523,33143,12774,-3613,140,-2461,291,16,-5,120,450,-328,1,0,22,7,200,1,53298,1
555,2,41539,35505,41748,33144,12777,-3631,122,-2414,-108,-59,-2,126,438,-322,1,0,22,7,240,1,53298,1
556,2,42008,35748,42680,33145,12780,-3582,166,-2476,-66,-84,31,124,444,-322,1,0,22,7,280,1,53298,1
557,2,42074,35607,42662,33146,12782,-3582,156,-2431,-228,-5,-12,123,441,-319,1,0,22,7,320,1,53298,1
558,2,42178,35657,42750,33147,12785,-3629,149,-2407,-154,39,-19,121,437,-321,1,0,22,7,360,1,53298,1
559,2,42190,35630,42780,33148,12789,-3565,145,-2452,-163,-42,-69,109,435,-317,1,0,22,7,400,1,53298,1
560,2,42191,35716,42765,33149,12793,-3615,141,-2432,-248,-30,-30,128,442,-322,1,0,22,7,440,1,53298,1
561,2,42093,35607,42623,33150,12796,-3600,211,-2481,-451,-78,-49,120,436,-318,1,0,22,7,480,1,53298,1
562,2,41538,35263,42221,33151,12797,-3578,273,-2669,-838,-157,-117,117,439,-311,1,0,22,7,520,1,53298,1
563,2,35150,31015,34990,33152,12797,-2970,763,-3020,-2759,-931,-691,119,435,-315,1,0,22,7,560,1,53298,1
564,2,31358,30320,31977,33153,12796,-3182,523,-2446,-4073,-3913,-1672,124,442,-306,1,0,22,7,600,1,53298,1
565,2,31300,30447,32136,33154,12793,-3669,-43,-2178,-2031,-3981,-2263,131,445,-297,1,0,22,7,640,1,53298,1
566,2,31219,30392,31866,33155,12790,-4405,-489,-1752,3297,-2586,-1244,130,442,-304,1,0,22,7,680,1,53298,1
567,2,31913,30864,32306,33156,12784,-4392,-331,-1694,5124,-2735,-507,123,435,-299,1,0,22,7,720,1,53298,1
568,2,31147,30465,31797,33157,12780,-4025,-18,-1933,592,-1940,-421,127,445,-303,1,0,22,7,760,1,53298,1
569,2,31165,30395,31819,33158,12776,-3720,48,-2049,-1127,-482,186,122,434,-304,1,0,22,7,800,1,53298,1
570,2,31173,30462,31839,33159,12771,-3718,191,-2149,-1158,98,-192,120,440,-300,1,0,22,7,840,1,53298,1
571,2,31147,30506,31828,33160,12766,-3774,229,-2139,-25,-563,-521,132,436,-294,1,0,22,7,880,1,53298,1
572,2,31155,30490,31841,33161,12762,-3913,-66,-2113,960,-311,-711,134,438,-294,1,0,22,7,920,1,53298,1
573,2,31181,30462,31873,33162,12756,-3899,-83,-2131,303,-270,-458,134,442,-298,1,0,22,7,960,1,53298,1
574,1,31174,30483,31866,33163,0,-3841,-37,-2135,-505,-295,-62,130,446,-292,1,0,22,8,0,1,53298,1
575,2,31161,30489,31857,33164,12229,-3810,47,-2091,0,-407,77,129,439,-293,1,0,22,8,40,1,53298,1
576,2,31165,30411,31865,33165,12225,-3908,16,-2122,18,-290,87,131,443,-287,1,0,22,8,80,1,53298,1
577,2,31184,30357,31891,33166,12221,-3888,49,-2033,-186,-307,10,127,431,-287,1,0,22,8,120,1,53298,1
578,2,31152,30301,31860,33167,12217,-3873,45,-2052,-91,-118,24,125,441,-291,1,0,22,8,160,1,53298,1
579,2,31143,30224,31839,33168,12214,-3853,29,-2112,74,29,-45,129,443,-281,1,0,22,8,200,1,53298,1
580,2,31135,30198,31833,33169,12210,-3861,24,-2065,224,38,-78,121,445,-295,1,0,22,8,240,1,53298,1
581,2,31126,30176,31828,33170,12206,-3882,-22,-2086,253,60,-41,127,435,-293,1,0,22,8,280,1,53298,1
582,2,31127,30234,31832,33171,12202,-3880,1,-2068,208,-44,41,133,447,-295,1,0,22,8,320,1,53298,1
583,2,31128,30243,31825,33172,12197,-3866,36,-2066,195,-90,92,126,442,-298,1,0,22,8,360,1,53298,1
584,2,31121,30524,31834,33173,12193,-3869,-25,-1995,72,19,36,121,437,-285,1,0,22,8,400,1,53298,1
585,2,31136,30503,31865,33174,12190,-3847,19,-1771,-868,182,299,134,438,-290,1,0,22,8,440,1,53298,1
586,2,31148,30139,31907,33175,12186,-3973,-53,-2152,-3240,889,1038,118,446,-276,1,0,22,8,480,1,53298,1
587,2,31173,30606,31964,33176,12184,-4137,-269,-1620,-2001,2281,1134,122,438,-294,1,0,22,8,520,1,53298,1
588,2,31214,30247,32003,33177,12182,-4136,237,-1888,515,1946,1564,126,434,-298,1,0,22,8,560,1,53298,1
589,2,31265,30067,32036,33178,12180,-3741,142,-2258,484,2718,804,125,445,-301,1,0,22,8,600,1,53298,1
590,2,31307,30000,32065,33179,12178,-3505,128,-2482,134,2457,772,126,438,-306,1,0,22,8,640,1,53298,1
591,2,31399,30648,32178,33180,12178,-3551,356,-2184,26,2656,923,120,440,-318,1,0,22,8,680,1,53298,1
592,2,36147,30732,35405,33181,12179,-3842,214,-2395,742,2660,928,123,439,-313,1,0,22,8,720,1,53298,1
593,2,32064,30430,32854,33182,12181,-3542,260,-2580,905,1703,484,115,437,-323,1,0,22,8,760,1,53298,1
594,2,41780,36006,42971,33183,12184,-3624,201,-2397,899,979,439,121,445,-319,1,0,22,8,800,1,53298,1
595,2,42451,35507,42567,33184,12187,-3647,161,-2554,1280,319,329,118,436,-320,1,0,22,8,840,1,53298,1
596,2,41859,35812,43056,33185,12191,-3457,251,-2555,799,-22,110,117,431,-317,1,0,22,8,880,1,53298,1
597,2,42520,35876,43131,33186,12193,-3674,68,-2283,392,76,171,114,442,-326,1,0,22,8,920,1,53298,1
598,2,42498,35891,43000,33187,12196,-3621,222,-2474,261,-57,2,116,442,-320,1,0,22,8,960,1,53298,1
599,1,42530,35863,43199,33188,0,-3554,174,-2478,241,-93,-30,117,443,-337,1,0,22,9,0,0,53298,1
600,2,40990,35779,41555,33189,11703,-3542,207,-2470,-57,-78,-31,120,444,-326,1,0,22,9,40,0,53298,1
601,2,42389,35766,43039,33190,11707,-3673,128,-2378,-52,0,13,117,433,-321,1,0,22,9,80,0,53298,1
602,2,42407,35772,43005,33191,11710,-3564,178,-2470,-79,-70,-55,118,438,-324,1,0,22,9,120,0,53298,1
603,2,42382,35759,42984,33192,11713,-3605,113,-2387,-143,-33,-27,111,441,-327,1,0,22,9,160,0,53298,1
604,2,42444,35794,43043,33193,11715,-3634,175,-2428,-92,-23,30,120,442,-320,1,0,22,9,200,0,53298,1
605,2,42365,35749,42983,33194,11717,-3602,140,-2431,-206,-41,-22,127,435,-321,1,0,22,9,240,0,53298,1
606,2,42281,35699,42853,33195,11719,-3602,152,-2418,-196,-60,-2,120,442,-320,1,0,22,9,280,0,53298,1
607,2,42235,35665,42810,33196,11722,-3605,193,-2428,-258,-46,-24,116,438,-318,1,0,22,9,320,0,53298,1
608,2,42059,35563,42617,33197,11724,-3596,177,-2433,-336,-9,-61,127,443,-319,1,0,22,9,360,0,53298,1
609,2,39536,34322,40184,33198,11725,-3560,402,-2748,-770,-180,-165,123,429,-305,1,0,22,9,400,0,53298,1
610,2,36573,30844,32430,33199,11725,-2835,887,-3012,-3194,-2020,-1181,128,442,-306,1,0,22,9,440,0,53298,1
611,2,31557,30532,33172,33200,11722,-3139,317,-2616,-4481,-5290,-2724,122,438,-300,1,0,22,9,480,0,53298,1
612,2,31441,30615,31920,33201,11718,-3951,-298,-1662,109,-3735,-2262,129,441,-305,1,0,22,9,520,0,53298,1
613,2,31389,30884,33570,33202,11713,-4772,-633,-1404,7334,-3660,-473,133,443,-297,1,0,22,9,560,0,53298,1
614,2,31133,30587,31846,33203,11709,-4329,-171,-1843,2621,-2699,-640,123,441,-295,1,0,22,9,600,0,53298,1
615,2,31144,30673,31846,33204,11705,-3889,35,-2020,-1841,-1047,-84,121,435,-295,1,0,22,9,640,0,53298,1
616,2,31129,30646,31849,33205,11700,-3626,178,-2033,-2998,205,-208,127,445,-299,1,0,22,9,680,0,53298,1
617,2,31141,30644,31859,33206,11695,-3707,303,-2081,25,-215,-258,115,439,-285,1,0,22,9,720,0,53298,1
618,2,31140,30657,31859,33207,11690,-3954,-39,-2129,1732,163,-696,125,449,-289,1,0,22,9,760,0,53298,1
619,2,31144,30673,31865,33208,11684,-3989,-128,-2103,814,30,-491,129,435,-287,1,0,22,9,800,0,53298,1
620,2,31133,30669,31856,33209,11680,-3840,-47,-2108,-510,-233,25,126,446,-290,1,0,22,9,840,0,53298,1
621,2,31129,30655,31854,33210,11675,-3791,33,-2100,-173,-304,284,127,441,-285,1,0,22,9,880,0,53298,1
622,2,31119,30622,31849,33211,11672,-3902,85,-2055,119,-394,286,131,453,-295,1,0,22,9,920,0,53298,1
623,2,31114,30592,31850,33212,11668,-3960,67,-1994,117,-136,54,131,437,-291,1,0,22,9,960,0,53298,1
624,1,31114,30592,31853,33213,0,-3891,19,-2060,40,119,-101,126,442,-294,1,0,22,10,0,0,53298,1
625,2,31116,30575,31855,33214,11172,-3825,45,-2091,182,113,-47,118,442,-280,1,0,22,10,40,0,53298,1
626,2,31117,30348,31855,33215,11167,-3872,16,-2093,281,63,-33,129,443,-289,1,0,22,10,80,0,53298,1
627,2,31114,30368,31844,33216,11164,-3897,-11,-2084,126,12,-60,131,441,-287,1,0,22,10,120,0,53298,1
628,2,31109,30350,31845,33217,11160,-3889,29,-2061,-47,-97,73,128,440,-288,1,0,22,10,160,0,53298,1
629,2,31115,30443,31850,33218,11156,-3869,44,-2046,28,-116,88,127,439,-293,1,0,22,10,200,0,53298,1
630,2,31120,30474,31861,33219,11151,-3865,18,-2023,66,-26,41,134,448,-284,1,0,22,10,240,0,53298,1
631,2,31138,30450,31915,33220,11146,-3802,-86,-1823,-1176,272,428,135,443,-285,1,0,22,10,280,0,53298,1
632,2,31156,30241,31963,33221,11142,-3962,-223,-2100,-4738,1437,1128,128,442,-286,1,0,22,10,320,0,53298,1
633,2,31194,30551,32005,33222,11140,-4611,96,-1417,-533,2945,2021,120,452,-290,1,0,22,10,360,0,53298,1
634,2,31236,30457,32032,33223,11138,-3387,366,-2228,1718,1990,776,124,444,-296,1,0,22,10,400,0,53298,1
635,2,31288,30462,32075,33224,11136,-3266,156,-2400,-740,2451,249,125,443,-307,1,0,22,10,440,0,53298,1
636,2,31326,30168,32110,33225,11134,-3847,106,-2093,-917,2325,875,124,434,-306,1,0,22,10,480,0,53298,1
637,2,31400,30618,32223,33226,11134,-3832,142,-2158,511,2326,876,120,436,-314,1,0,22,10,520,0,53298,1
638,2,36053,34561,38673,33227,11134,-3596,302,-2291,2143,2491,1177,119,441,-313,1,0,22,10,560,0,53298,1
639,2,40527,35802,43125,33228,11136,-3154,237,-2656,1201,1738,675,114,430,-320,1,0,22,10,600,0,53298,1
640,2,42712,35965,43461,33229,11138,-3500,237,-2440,352,912,432,111,439,-315,1,0,22,10,640,0,53298,1
641,2,42630,35886,43297,33230,11141,-3632,276,-2496,960,252,298,119,443,-323,1,0,22,10,680,0,53298,1
642,2,40834,34949,41479,33231,11143,-3674,72,-2356,903,98,138,123,435,-321,1,0,22,10,720,0,53298,1
643,2,40611,35187,41593,33232,11146,-3562,235,-2490,445,2,64,110,440,-324,1,0,22,10,760,0,53298,1
644,2,40162,34583,41556,33233,11148,-3565,208,-2487,196,-35,-11,114,448,-316,1,0,22,10,800,0,53298,1
645,2,42857,36075,43511,33234,11150,-3572,185,-2426,-30,-40,-37,116,438,-320,1,0,22,10,840,0,53298,1
646,2,42810,36009,43369,33235,11153,-3656,148,-2385,-55,-29,-13,126,440,-320,1,0,22,10,880,0,53298,1
647,2,42796,36043,43396,33236,11155,-3574,184,-2477,-102,-64,-70,113,443,-319,1,0,22,10,920,0,53298,1
648,2,42800,36018,43357,33237,11158,-3622,159,-2384,-185,-35,-38,117,439,-309,1,0,22,10,960,0,53298,1
649,1,42772,36021,43344,33238,0,-3622,181,-2413,-112,-25,5,116,438,-320,1,0,22,11,0,1,53298,1
650,2,42750,36019,43306,33239,10646,-3569,162,-2417,-215,-57,-28,120,440,-318,1,0,22,11,40,1,53298,1
651,2,42735,35985,43322,33240,10648,-3611,186,-2412,-78,-36,32,117,435,-327,1,0,22,11,80,1,53298,1
652,2,42576,35948,43175,33241,10650,-3606,169,-2402,-206,-42,-38,118,442,-314,1,0,22,11,120,1,53298,1
653,2,42424,35980,42913,33242,10653,-3581,197,-2447,-323,-54,-64,120,442,-318,1,0,22,11,160,1,53298,1
654,2,42141,35705,42779,33243,10654,-3613,199,-2391,-324,-70,-51,114,434,-322,1,0,22,11,200,1,53298,1
655,2,39837,34457,39773,33244,10655,-3582,397,-2576,-417,-136,-77,124,442,-318,1,0,22,11,240,1,53298,1
656,2,31362,30707,32086,33245,10654,-2915,453,-3058,-2269,-1581,-1000,120,440,-314,1,0,22,11,280,1,53298,1
657,2,31289,30666,32042,33246,10651,-3188,394,-2615,-3649,-4282,-2155,127,439,-297,1,0,22,11,320,1,53298,1
658,2,31227,30670,31951,33247,10647,-3717,160,-1928,454,-3911,-1819,123,437,-293,1,0,22,11,360,1,53298,1
659,2,31220,30706,32054,33248,10642,-4652,-528,-1472,7063,-2647,-219,129,433,-303,1,0,22,11,400,1,53298,1
660,2,31135,30607,31815,33249,10638,-4263,-362,-1724,6429,-2094,-268,125,429,-301,1,0,22,11,440,1,53298,1
661,2,31154,30637,31825,33250,10632,-4022,1,-2159,229,-944,-23,118,440,-290,1,0,22,11,480,1,53298,1
662,2,31179,30599,31837,33251,10627,-3683,60,-2160,-3128,-163,-60,130,438,-294,1,0,22,11,520,1,53298,1
663,2,31186,30576,31843,33252,10622,-3650,106,-2173,-1972,309,-317,126,440,-292,1,0,22,11,560,1,53298,1
664,2,31168,30591,31824,33253,10618,-3805,78,-2192,439,17,-197,129,441,-299,1,0,22,11,600,1,53298,1
665,2,31159,30650,31824,33254,10613,-3918,-36,-2180,853,-98,-297,130,444,-298,1,0,22,11,640,1,53298,1
666,2,31165,30657,31837,33255,10608,-3828,-45,-2128,280,-137,-169,128,438,-302,1,0,22,11,680,1,53298,1
667,2,31166,30657,31834,33256,10604,-3780,21,-2146,-82,-164,52,129,439,-293,1,0,22,11,720,1,53298,1
668,2,31160,30620,31830,33257,10600,-3853,18,-2130,26,-192,9,125,441,-299,1,0,22,11,760,1,53298,1
669,2,31166,30610,31833,33258,10595,-3885,-20,-2128,-281,-224,-72,122,440,-296,1,0,22,11,800,1,53298,1
670,2,31166,30604,31841,33259,10591,-3847,-17,-2109,-320,-170,-32,123,443,-303,1,0,22,11,840,1,53298,1
671,2,31180,30621,31856,33260,10587,-3816,49,-2161,-30,-140,112,143,439,-295,1,0,22,11,880,1,53298,1
672,2,31165,30620,31850,33261,10583,-3821,37,-2155,184,-145,59,121,441,-293,1,0,22,11,920,1,53298,1
673,2,31156,30630,31845,33262,10579,-3868,28,-2093,124,-121,-69,137,439,-285,1,0,22,11,960,1,53298,1
674,1,31156,30596,31863,33263,0,-3849,-42,-2063,4,-45,-99,132,434,-292,1,0,22,12,0,1,53298,1
675,2,31188,30657,31911,33264,10117,-3799,17,-1720,-1617,-98,432,122,440,-296,1,0,22,12,40,1,53298,1
676,2,31194,30680,31961,33265,10114,-4069,-500,-2416,-5634,1427,1170,130,436,-292,1,0,22,12,80,1,53298,1
677,2,31228,30616,31998,33266,10112,-4124,292,-1586,418,2047,1786,120,432,-300,1,0,22,12,120,1,53298,1
678,2,31262,30598,32008,33267,10109,-3331,380,-2475,1067,2161,613,126,434,-306,1,0,22,12,160,1,53298,1
679,2,31292,30637,32030,33268,10107,-3138,312,-2627,313,1808,255,122,440,-306,1,0,22,12,200,1,53298,1
680,2,31335,30665,32070,33269,10106,-3760,96,-2271,-872,1304,338,121,443,-313,1,0,22,12,240,1,53298,1
681,2,31372,30371,32090,33270,10105,-4038,-88,-2134,-526,1065,531,119,443,-319,1,0,22,12,280,1,53298,1
682,2,31334,30948,32060,33271,10105,-3879,213,-2219,330,1519,848,118,434,-310,1,0,22,12,320,1,53298,1
683,2,31481,30163,32188,33272,10106,-3451,322,-2492,216,1407,682,119,445,-309,1,0,22,12,360,1,53298,1
684,2,32288,30908,32994,33273,10106,-3474,343,-2484,278,1317,638,114,442,-314,1,0,22,12,400,1,53298,1
685,2,32394,30514,34861,33274,10107,-3793,98,-2330,587,1151,458,108,438,-308,1,0,22,12,440,1,53298,1
686,2,33640,31370,34709,33275,10109,-3627,165,-2359,964,857,352,117,437,-317,1,0,22,12,480,1,53298,1
687,2,42438,33495,34187,33276,10111,-3503,227,-2465,1221,501,329,112,436,-318,1,0,22,12,520,1,53298,1
688,2,42568,35871,43089,33277,10113,-3571,181,-2480,1267,215,245,120,426,-320,1,0,22,12,560,1,53298,1
689,2,42592,35827,43248,33278,10117,-3583,249,-2442,624,61,81,122,436,-324,1,0,22,12,600,1,53298,1
690,2,42499,35819,43040,33279,10119,-3562,196,-2535,231,-47,-2,119,447,-321,1,0,22,12,640,1,53298,1
691,2,42552,35853,43189,33280,10121,-3570,198,-2451,-198,-82,-86,124,438,-318,1,0,22,12,680,1,53298,1
692,2,39817,34520,40471,33281,10122,-3652,129,-2368,-246,0,-58,113,435,-325,1,0,22,12,720,1,53298,1
693,2,39790,34508,40415,33282,10125,-3612,172,-2444,-201,-6,-60,118,440,-326,1,0,22,12,760,1,53298,1
694,2,39535,34375,40162,33283,10127,-3606,176,-2409,-158,-55,-14,117,441,-325,1,0,22,12,800,1,53298,1
695,2,39508,34323,40132,33284,10128,-3617,194,-2417,-177,-72,-3,128,428,-318,1,0,22,12,840,1,53298,1
696,2,38561,32971,39850,33285,10129,-3615,186,-2415,-278,-73,-60,123,441,-325,1,0,22,12,880,1,53298,1
697,2,39326,34544,39982,33286,10130,-3522,229,-2449,-456,-140,-141,118,434,-324,1,0,22,12,920,1,53298,1
698,2,39291,34473,40009,33287,10131,-3660,132,-2375,-413,-81,-72,120,444,-318,1,0,22,12,960,1,53298,1
699,1,39513,34806,40139,33288,0,-3662,186,-2415,-304,-120,-49,119,439,-309,1,0,22,13,0,1,53298,1
700,2,39316,34370,40165,33289,9592,-3521,185,-2446,-453,-241,-156,114,442,-318,1,0,22,13,40,1,53298,1
701,2,36618,33466,33927,33290,9591,-3522,413,-2523,-588,-470,-153,120,448,-320,1,0,22,13,80,1,53298,1
702,2,31483,30608,32133,33291,9589,-3368,341,-2748,-1355,-1497,-758,125,433,-321,1,0,22,13,120,1,53298,1
703,2,31315,30329,32041,33292,9586,-3377,535,-2601,-2616,-3277,-1629,120,448,-292,1,0,22,13,160,1,53298,1
704,2,31192,30470,31940,33293,9583,-3534,217,-2244,-905,-3595,-1963,132,442,-306,1,0,22,13,200,1,53298,1
705,2,31271,30523,31903,33294,9578,-4196,-347,-1721,3161,-2308,-1097,126,442,-304,1,0,22,13,240,1,53298,1
706,2,31188,30501,31863,33295,9572,-4363,-324,-1871,4644,-1884,-373,127,445,-293,1,0,22,13,280,1,53298,1
707,2,31150,30631,31831,33296,9567,-4049,31,-1895,733,-1562,-245,118,440,-302,1,0,22,13,320,1,53298,1
708,2,31279,30312,31991,33297,9562,-3726,106,-2093,-743,-360,-329,132,444,-300,1,0,22,13,360,1,53298,1
709,2,31221,30548,31877,33298,9557,-3674,64,-2232,-458,327,-531,134,442,-294,1,0,22,13,400,1,53298,1
710,2,31191,30604,31868,33299,9553,-3827,36,-2208,458,-49,-391,125,443,-295,1,0,22,13,440,1,53298,1
711,2,31201,30620,31900,33300,9548,-3894,-33,-2116,1123,-250,-305,132,446,-302,1,0,22,13,480,1,53298,1
712,2,31166,30520,31867,33301,9543,-3863,-127,-2187,599,-248,-101,123,437,-295,1,0,22,13,520,1,53298,1
713,2,31165,30468,31863,33302,9538,-3779,21,-2128,-4,-373,152,126,432,-292,1,0,22,13,560,1,53298,1
714,2,31180,30479,31880,33303,9534,-3832,78,-2112,190,-251,197,127,445,-295,1,0,22,13,600,1,53298,1
715,2,31152,30481,31860,33304,9529,-3896,11,-2118,237,-65,-14,131,437,-297,1,0,22,13,640,1,53298,1
716,2,31138,30550,31843,33305,9525,-3868,4,-2097,18,-128,-68,124,442,-300,1,0,22,13,680,1,53298,1
717,2,31135,30461,31838,33306,9520,-3820,-29,-2136,-93,43,-67,122,438,-296,1,0,22,13,720,1,53298,1
718,2,31138,30434,31854,33307,9516,-3810,-53,-2105,-223,58,9,130,434,-296,1,0,22,13,760,1,53298,1
719,2,31150,30270,31885,33308,9512,-3883,15,-1944,-1302,-25,424,132,438,-294,1,0,22,13,800,1,53298,1
720,2,31163,30611,31925,33309,9507,-4022,-106,-2167,-3331,688,733,118,438,-290,1,0,22,13,840,1,53298,1
721,2,31171,30641,31953,33310,9503,-4030,59,-2205,-1083,765,789,123,439,-297,1,0,22,13,880,1,53298,1
722,2,31200,30627,31985,33311,9500,-3760,193,-2067,25,1211,778,123,439,-305,1,0,22,13,920,1,53298,1
723,2,31239,30627,32035,33312,9497,-3905,49,-2115,-227,1974,772,117,439,-297,1,0,22,13,960,1,53298,1
724,1,31322,30604,32078,33313,0,-3938,156,-2181,-17,2098,985,127,435,-303,1,0,22,14,0,0,53298,1
725,2,31385,30524,32111,33314,9064,-3568,270,-2360,74,2515,765,117,441,-313,1,0,22,14,40,0,53298,1
726,2,31465,30636,32162,33315,9063,-3451,276,-2459,362,2546,815,119,437,-315,1,0,22,14,80,0,53298,1
727,2,33241,30831,33427,33316,9063,-3514,280,-2464,968,2155,841,115,435,-313,1,0,22,14,120,0,53298,1
728,2,41650,34194,42308,33317,9064,-3579,159,-2435,1148,1410,541,115,435,-319,1,0,22,14,160,0,53298,1
729,2,36102,31117,32583,33318,9065,-3581,190,-2456,1192,753,447,125,449,-325,1,0,22,14,200,0,53298,1
730,2,39654,30526,40307,33319,9066,-3616,147,-2425,946,349,393,125,441,-327,1,0,22,14,240,0,53298,1
731,2,41335,35427,42838,33320,9067,-3550,248,-2510,627,103,241,128,436,-316,1,0,22,14,280,0,53298,1
732,2,42160,35658,42810,33321,9069,-3520,241,-2539,-51,-52,-10,117,439,-309,1,0,22,14,320,0,53298,1
733,2,42056,35595,42641,33322,9069,-3583,109,-2471,-806,-115,-271,114,440,-324,1,0,22,14,360,0,53298,1
734,2,41990,35559,42545,33323,9069,-3668,182,-2411,-326,-124,-30,119,441,-321,1,0,22,14,400,0,53298,1
735,2,41222,34296,42128,33324,9069,-3554,416,-2691,-601,-252,-253,108,438,-318,1,0,22,14,440,0,53298,1
736,2,34274,31058,32432,33325,9067,-2838,615,-2933,-3049,-1898,-1314,116,442,-302,1,0,22,14,480,0,53298,1
737,2,31562,30623,32379,33326,9064,-4415,129,-1850,-1850,-2531,-716,119,445,-299,1,0,22,14,520,0,53298,1
738,2,31285,30430,31974,33327,9060,-3953,430,-2323,-1027,-2447,-1015,127,439,-305,1,0,22,14,560,0,53298,1
739,2,31211,30439,32011,33328,9056,-3493,57,-2423,-1999,-2494,-2081,127,449,-299,1,0,22,14,600,0,53298,1
740,2,31280,30342,31955,33329,9051,-3799,-386,-2236,308,-1664,-1314,120,438,-298,1,0,22,14,640,0,53298,1
741,2,31371,30589,31949,33330,9045,-4129,-21,-1956,247,-916,-357,124,438,-292,1,0,22,14,680,0,53298,1
742,2,31155,30605,31845,33331,9040,-3940,236,-1937,3679,-1280,364,131,437,-295,1,0,22,14,720,0,53298,1
743,2,31171,30622,31851,33332,9035,-3735,144,-2148,3023,-870,-196,126,442,-296,1,0,22,14,760,0,53298,1
744,2,31524,30828,32204,33333,9030,-3762,-33,-2185,480,-374,-459,122,438,-292,1,0,22,14,800,0,53298,1
745,2,31217,30678,31905,33334,9025,-3871,34,-2134,-401,-313,-450,130,436,-300,1,0,22,14,840,0,53298,1
746,2,31196,30677,31887,33335,9019,-3896,-68,-2107,-10,-511,-351,117,437,-287,1,0,22,14,880,0,53298,1
747,2,31169,30663,31894,33336,9013,-3903,-120,-2384,-41,-900,-237,130,452,-294,1,0,22,14,920,0,53298,1
748,2,31126,30631,31882,33337,9008,-3676,165,-1961,1065,-1579,-62,133,443,-295,1,0,22,14,960,0,53298,1
749,1,31119,30544,31877,33338,0,-3858,85,-2011,2529,-605,208,126,444,-302,1,0,22,15,0,1,53298,1
750,2,31108,30587,31878,33339,8537,-3957,-16,-2114,1360,-122,-331,127,449,-293,1,0,22,15,40,1,53298,1
751,2,31100,30624,31872,33340,8531,-3904,-87,-2062,-150,-394,-319,128,446,-292,1,0,22,15,80,1,53298,1
752,2,31095,30624,31874,33341,8526,-3832,-49,-2063,-543,69,-188,131,441,-295,1,0,22,15,120,1,53298,1
753,2,31096,30615,31870,33342,8521,-3849,-39,-2150,-71,-43,69,134,440,-290,1,0,22,15,160,1,53298,1
754,2,31095,30622,31870,33343,8516,-3916,-37,-2111,241,-238,119,123,445,-297,1,0,22,15,200,1,53298,1
755,2,31095,30597,31868,33344,8512,-3898,-36,-2079,-167,-113,-5,137,443,-295,1,0,22,15,240,1,53298,1
756,2,31091,30560,31867,33345,8508,-3865,28,-2087,-111,-110,17,128,436,-300,1,0,22,15,280,1,53298,1
757,2,31093,30617,31870,33346,8504,-3877,-42,-2080,237,-13,-50,127,447,-299,1,0,22,15,320,1,53298,1
758,2,31094,30635,31879,33347,8500,-3882,-50,-2053,113,15,-34,127,445,-305,1,0,22,15,360,1,53298,1
759,2,31104,30257,31903,33348,8497,-3728,-112,-1623,-674,175,279,130,450,-286,1,0,22,15,400,1,53298,1
760,2,31120,30436,31965,33349,8493,-3990,-293,-2229,-4000,1193,1139,125,443,-297,1,0,22,15,440,1,53298,1
761,2,31147,30418,32005,33350,8491,-4336,-137,-1555,-1878,2551,1460,127,443,-301,1,0,22,15,480,1,53298,1
762,2,31186,30544,32014,33351,8488,-3956,406,-2048,1007,1984,1183,122,440,-308,1,0,22,15,520,1,53298,1
763,2,31214,30592,32031,33352,8487,-3411,271,-2569,-173,2075,259,130,438,-298,1,0,22,15,560,1,53298,1
764,2,31241,30653,32046,33353,8485,-3465,268,-2350,-1101,1380,208,119,441,-293,1,0,22,15,600,1,53298,1
765,2,31284,30655,32055,33354,8484,-3942,54,-2110,-857,1248,440,127,439,-311,1,0,22,15,640,1,53298,1
766,2,31390,30690,32126,33355,8484,-4068,-203,-2186,-95,1441,456,127,441,-313,1,0,22,15,680,1,53298,1
767,2,31401,30590,32161,33356,8485,-3841,231,-2233,543,1714,950,112,436,-316,1,0,22,15,720,1,53298,1
768,2,31457,30786,32314,33357,8487,-3616,224,-2454,1035,1758,870,113,441,-325,1,0,22,15,760,1,53298,1
769,2,41834,34957,42706,33358,8489,-3605,277,-2352,1294,1713,854,124,442,-316,1,0,22,15,800,1,53298,1
770,2,39583,35629,42772,33359,8492,-3729,150,-2346,1091,1422,601,121,439,-329,1,0,22,15,840,1,53298,1
771,2,42216,35676,43046,33360,8497,-3462,117,-2455,711,667,255,121,439,-319,1,0,22,15,880,1,53298,1
772,2,42382,35884,43035,33361,8501,-3551,213,-2556,1136,137,167,127,447,-329,1,0,22,15,920,1,53298,1
773,2,41944,35582,42448,33362,8505,-3587,118,-2481,1141,-2,38,122,440,-330,1,0,22,15,960,1,53298,1
774,1,41477,35295,41861,33363,0,-3653,128,-2473,1004,-66,-46,122,438,-322,1,0,22,16,0,1,53298,1
775,2,40443,35109,41772,33364,8013,-3613,121,-2487,589,-79,-104,116,452,-330,1,0,22,16,40,1,53298,1
776,2,41260,35165,41791,33365,8018,-3594,161,-2599,442,-72,-29,114,438,-324,1,0,22,16,80,1,53298,1
777,2,40855,34988,41429,33366,8022,-3614,149,-2447,-610,-134,-72,121,439,-329,1,0,22,16,120,1,53298,1
778,2,40872,34965,41402,33367,8026,-3703,24,-2346,-325,-37,56,115,447,-323,1,0,22,16,160,1,53298,1
779,2,40763,34947,41409,33368,8029,-3576,154,-2484,-212,-125,-39,127,443,-325,1,0,22,16,200,1,53298,1
780,2,41010,35011,41557,33369,8033,-3622,50,-2379,-160,-52,0,112,436,-316,1,0,22,16,240,1,53298,1
781,2,40762,34909,41350,33370,8037,-3615,140,-2468,-41,-32,39,124,440,-326,1,0,22,16,280,1,53298,1
782,2,40757,34917,41349,33371,8041,-3635,73,-2389,-162,-5,-1,120,440,-324,1,0,22,16,320,1,53298,1
783,2,40576,34865,41234,33372,8044,-3578,117,-2443,-151,-35,-10,116,440,-322,1,0,22,16,360,1,53298,1
784,2,40757,34875,41241,33373,8047,-3625,99,-2407,-140,-11,28,120,440,-322,1,0,22,16,400,1,53298,1
785,2,40600,34853,41210,33374,8051,-3602,117,-2438,-78,-35,20,113,443,-319,1,0,22,16,440,1,53298,1
786,2,40563,34799,41184,33375,8055,-3611,116,-2439,-78,-24,27,113,437,-305,1,0,22,16,480,1,53298,1
787,2,40431,34751,40931,33376,8059,-3628,97,-2422,-130,-11,16,115,437,-311,1,0,22,16,520,1,53298,1
788,2,40309,34719,40917,33377,8063,-3640,115,-2433,-198,-8,1,121,443,-319,1,0,22,16,560,1,53298,1
789,2,40276,34672,40887,33378,8067,-3600,143,-2451,-206,-43,1,118,438,-330,1,0,22,16,600,1,53298,1
790,2,39553,34270,40041,33379,8071,-3617,163,-2549,-418,-41,-15,115,441,-317,1,0,22,16,640,1,53298,1
791,2,39045,34171,39725,33380,8074,-3255,180,-2534,-1219,-155,-79,119,433,-315,1,0,22,16,680,1,53298,1
792,2,35891,33117,37944,33381,8075,-3606,444,-2534,-1001,-105,87,125,429,-309,1,0,22,16,720,1,53298,1
793,2,33004,30958,32886,33382,8075,-2987,695,-2928,-3660,-2430,-1332,123,443,-303,1,0,22,16,760,1,53298,1
794,2,33729,32935,32111,33383,8072,-3189,199,-2536,-4958,-4929,-2791,122,442,-302,1,0,22,16,800,1,53298,1
795,2,31468,30684,31911,33384,8069,-3985,-230,-1678,224,-3368,-2003,131,447,-295,1,0,22,16,840,1,53298,1
796,2,31401,30720,32018,33385,8064,-4713,-638,-1562,6763,-2863,-456,128,440,-300,1,0,22,16,880,1,53298,1
797,2,31230,30690,31892,33386,8061,-4258,-105,-1846,2524,-2451,-754,128,436,-294,1,0,22,16,920,1,53298,1
798,2,31411,30662,31965,33387,8057,-3841,-34,-2146,-2022,-1398,-504,126,448,-292,1,0,22,16,960,1,53298,1
799,1,31141,30528,31853,33388,7485,-3597,57,-2017,-1304,-420,-303,126,434,-292,1,0,22,17,0,0,53298,1
800,2,31124,30459,31845,33389,7481,-3824,224,-2176,38,-525,-257,126,446,-290,1,0,22,17,40,0,53298,1
801,2,31110,30541,31844,33390,7477,-3949,47,-1988,2314,-623,-524,129,447,-285,1,0,22,17,80,0,53298,1
802,2,31099,30562,31839,33391,7473,-4025,-230,-2119,701,-83,-520,124,444,-294,1,0,22,17,120,0,53298,1
803,2,31096,30622,31856,33392,7468,-3832,-67,-2121,-540,-534,-41,129,443,-289,1,0,22,17,160,0,53298,1
804,2,31104,30617,31867,33393,7464,-3809,66,-2069,-76,-675,199,137,451,-277,1,0,22,17,200,0,53298,1
805,2,31112,30618,31882,33394,7459,-3926,28,-2031,266,-436,130,139,445,-287,1,0,22,17,240,0,53298,1
806,2,31156,30633,31945,33395,7454,-3949,51,-1975,-79,-238,37,133,441,-287,1,0,22,17,280,0,53298,1
807,2,31605,30765,32294,33396,7450,-3896,16,-2026,-94,51,-62,130,438,-286,1,0,22,17,320,0,53298,1
808,2,31340,30687,32127,33397,7446,-3850,-24,-2067,257,141,-93,136,442,-284,1,0,22,17,360,0,53298,1
809,2,31282,30643,32062,33398,7441,-3893,-30,-2077,339,29,2,129,443,-291,1,0,22,17,400,0,53298,1
810,2,31290,30695,32069,33399,7437,-3918,-16,-2068,161,42,39,138,444,-288,1,0,22,17,440,0,53298,1
811,2,31248,30700,32031,33400,7434,-3910,12,-2030,-186,-57,75,129,435,-277,1,0,22,17,480,0,53298,1
812,2,31347,30736,32126,33401,7430,-3891,-23,-2032,-92,-178,25,139,441,-287,1,0,22,17,520,0,53298,1
813,2,31323,30725,32095,33402,7427,-3923,6,-2048,-166,-69,10,132,444,-298,1,0,22,17,560,0,53298,1
814,2,31264,30701,32029,33403,7423,-3890,2,-2044,-211,-154,13,128,444,-280,1,0,22,17,600,0,53298,1
815,2,31212,30688,31990,33404,7419,-3890,-30,-2034,-105,-191,-38,132,450,-280,1,0,22,17,640,0,53298,1
816,2,31165,30662,31943,33405,7415,-3898,-17,-2034,-96,-111,54,136,444,-288,1,0,22,17,680,0,53298,1
817,2,31141,30650,31922,33406,7411,-3906,-13,-1995,-58,-52,45,135,443,-285,1,0,22,17,720,0,53298,1
818,2,31138,30653,31934,33407,7407,-3853,-49,-1818,-282,131,202,119,439,-281,1,0,22,17,760,0,53298,1
819,2,31147,30631,31980,33408,7405,-3955,-225,-1983,-1836,899,763,132,446,-282,1,0,22,17,800,0,53298,1
820,2,31149,30616,32022,33409,7403,-4065,-215,-2134,-2518,2108,1161,128,444,-294,1,0,22,17,840,0,53298,1
821,2,31180,30624,32050,33410,7401,-4272,179,-1472,-137,2581,1581,129,443,-297,1,0,22,17,880,0,53298,1
822,2,31212,30628,32091,33411,7399,-3719,160,-2327,870,1919,601,132,444,-304,1,0,22,17,920,0,53298,1
823,2,31259,30672,32123,33412,7399,-3518,190,-2345,-360,2190,614,122,440,-304,1,0,22,17,960,0,53298,1
824,1,31284,30690,32236,33413,6960,-3780,34,-2118,-458,2421,875,120,434,-312,1,0,22,18,0,1,53298,1
825,2,31453,30592,32312,33414,6961,-3842,66,-2155,150,2726,947,120,440,-312,1,0,22,18,40,1,53298,1
826,2,38551,30911,37765,33415,6964,-3874,138,-2284,2063,2898,1440,118,440,-322,1,0,22,18,80,1,53298,1
827,2,41309,35416,42414,33416,6967,-3260,261,-2612,2100,2340,1364,125,433,-325,1,0,22,18,120,1,53298,1
828,2,41887,35415,42609,33417,6971,-3492,314,-2585,950,1075,624,118,438,-314,1,0,22,18,160,1,53298,1
829,2,42000,35604,42746,33418,6975,-3735,105,-2373,-847,148,-165,118,442,-318,1,0,22,18,200,1,53298,1
830,2,41847,35620,42604,33419,6980,-3598,317,-2546,-1454,-508,-369,115,447,-323,1,0,22,18,240,1,53298,1
831,2,40176,35069,41021,33420,6984,-3453,194,-2536,-2140,-689,-308,123,441,-315,1,0,22,18,280,1,53298,1
832,2,41888,35542,42581,33421,6988,-3742,175,-2237,-1763,-387,12,118,440,-308,1,0,22,18,320,1,53298,1
833,2,41611,35357,42082,33422,6991,-3540,358,-2459,-1765,-694,-176,111,437,-305,1,0,22,18,360,1,53298,1
834,2,41655,35411,42330,33423,6994,-3618,239,-2235,-1422,-442,-108,111,443,-301,1,0,22,18,400,1,53298,1
835,2,41494,35370,42270,33424,6996,-3580,336,-2390,-1143,-353,-161,117,439,-311,1,0,22,18,440,1,53298,1
836,2,41528,35337,42216,33425,6999,-3649,284,-2280,-485,-85,-67,120,438,-310,1,0,22,18,480,1,53298,1
837,2,41556,35359,42253,33426,7002,-3657,291,-2346,50,-30,-32,115,437,-307,1,0,22,18,520,1,53298,1
838,2,41400,35271,42146,33427,7004,-3644,260,-2317,38,2,-59,122,450,-306,1,0,22,18,560,1,53298,1
839,2,41294,35125,41974,33428,7006,-3630,260,-2343,22,13,-18,121,443,-313,1,0,22,18,600,1,53298,1
840,2,40570,36060,41324,33429,7008,-3668,269,-2324,-51,89,20,116,438,-314,1,0,22,18,640,1,53298,1
841,2,40482,34755,41125,33430,7010,-3608,282,-2366,-83,28,-15,116,436,-312,1,0,22,18,680,1,53298,1
842,2,39883,34936,40633,33431,7012,-3679,252,-2269,98,73,47,113,437,-305,1,0,22,18,720,1,53298,1
843,2,39522,35231,40278,33432,7015,-3693,302,-2344,176,78,26,122,438,-302,1,0,22,18,760,1,53298,1
844,2,39283,35559,39910,33433,7016,-3526,285,-2388,-279,-66,-144,124,438,-310,1,0,22,18,800,1,53298,1
845,2,38957,35210,39775,33434,7017,-3683,313,-2332,163,155,92,113,439,-309,1,0,22,18,840,1,53298,1
846,2,38245,34506,39035,33435,7018,-3493,214,-2355,62,-103,-68,112,438,-306,1,0,22,18,880,1,53298,1
847,2,38186,34930,38984,33436,7017,-3761,230,-2208,96,104,94,114,442,-306,1,0,22,18,920,1,53298,1
848,2,37729,35850,37971,33437,7017,-3585,415,-2497,-463,-450,-248,113,443,-307,1,0,22,18,960,1,53298,1
849,1,37306,35507,38242,33438,6434,-3631,224,-2285,-489,-570,-253,124,434,-296,1,0,22,19,0,0,53298,1
850,2,31316,30129,32095,33439,6431,-3583,671,-2598,-821,-1388,-512,122,440,-304,1,0,22,19,40,0,53298,1
851,2,31151,30410,31958,33440,6428,-3118,681,-2642,-2285,-3756,-1795,118,438,-294,1,0,22,19,80,0,53298,1
852,2,31200,30661,31927,33441,6424,-3552,18,-2101,-210,-3243,-2034,123,435,-295,1,0,22,19,120,0,53298,1
853,2,31169,30434,31893,33442,6420,-4322,-346,-1666,4619,-2224,-617,123,441,-291,1,0,22,19,160,0,53298,1
854,2,31800,30909,35446,33443,6416,-4515,-213,-1665,5534,-2393,-485,135,435,-283,1,0,22,19,200,0,53298,1
855,2,31212,30705,31911,33444,6413,-4125,93,-1901,414,-1874,-867,124,444,-284,1,0,22,19,240,0,53298,1
856,2,31129,30628,31845,33445,6409,-3787,18,-2092,-1385,-1166,-687,127,439,-285,1,0,22,19,280,0,53298,1
857,2,31118,30341,31845,33446,6405,-3680,72,-1925,-602,-311,-657,136,446,-288,1,0,22,19,320,0,53298,1
858,2,31121,30429,31835,33447,6402,-3855,84,-2086,1571,-392,-170,125,447,-289,1,0,22,19,360,0,53298,1
859,2,31118,30600,31835,33448,6398,-4006,-97,-2106,1213,187,-208,129,439,-289,1,0,22,19,400,0,53298,1
860,2,31119,30658,31846,33449,6394,-3928,-24,-2043,-49,-459,133,128,442,-282,1,0,22,19,440,0,53298,1
861,2,31123,30660,31849,33450,6390,-3846,64,-2012,-437,-237,315,131,441,-291,1,0,22,19,480,0,53298,1
862,2,31116,30654,31843,33451,6386,-3874,77,-2034,127,-8,136,131,441,-285,1,0,22,19,520,0,53298,1
863,2,31113,30654,31849,33452,6382,-3939,61,-2012,439,-29,35,124,442,-282,1,0,22,19,560,0,53298,1
864,2,31110,30646,31851,33453,6378,-3928,4,-2033,343,183,-102,127,439,-287,1,0,22,19,600,0,53298,1
865,2,31113,30640,31857,33454,6374,-3868,15,-2057,172,92,22,127,445,-291,1,0,22,19,640,0,53298,1
866,2,31136,30659,31871,33455,6370,-3868,27,-2071,138,29,73,128,448,-288,1,0,22,19,680,0,53298,1
867,2,31183,30698,31921,33456,6366,-3911,14,-2053,42,-60,45,124,450,-284,1,0,22,19,720,0,53298,1
868,2,31148,30683,31884,33457,6361,-3936,29,-2020,-30,-106,62,130,440,-290,1,0,22,19,760,0,53298,1
869,2,31137,30683,31881,33458,6358,-3901,43,-2022,42,-70,54,130,444,-280,1,0,22,19,800,0,53298,1
870,2,31136,30668,31899,33459,6355,-3796,-93,-1831,-22,58,21,133,447,-293,1,0,22,19,840,0,53298,1
871,2,31135,30502,31940,33460,6352,-4001,-87,-2142,-2099,596,729,129,445,-287,1,0,22,19,880,0,53298,1
872,2,31140,30506,31978,33461,6350,-4085,-194,-2069,-2304,1315,1039,125,447,-289,1,0,22,19,920,0,53298,1
873,2,31163,30568,32015,33462,6350,-4157,113,-1754,-801,2014,1350,124,434,-300,1,0,22,19,960,0,53298,1
874,1,31219,30658,32029,33463,5908,-3766,341,-1961,1074,1883,938,127,449,-297,1,0,22,20,0,0,53298,1
875,2,31257,30646,32064,33464,5907,-3664,214,-2250,-804,2377,468,124,436,-298,1,0,22,20,40,0,53298,1
876,2,31343,30698,32129,33465,5907,-3728,35,-2190,-2088,2285,513,126,438,-306,1,0,22,20,80,0,53298,1
877,2,31366,30643,32153,33466,5907,-3844,154,-2050,-722,2416,915,119,439,-307,1,0,22,20,120,0,53298,1
878,2,32074,31020,32852,33467,5908,-3606,142,-2306,766,2260,862,118,436,-302,1,0,22,20,160,0,53298,1
879,2,35807,31178,32893,33468,5910,-3407,365,-2339,971,1715,947,121,443,-309,1,0,22,20,200,0,53298,1
880,2,32043,31669,33657,33469,5913,-3469,327,-2445,-348,1191,469,121,445,-313,1,0,22,20,240,0,53298,1
881,2,37564,33441,39890,33470,5916,-3569,284,-2356,-406,637,334,119,439,-315,1,0,22,20,280,0,53298,1
882,2,34427,31501,41609,33471,5919,-3649,270,-2369,649,215,332,115,447,-311,1,0,22,20,320,0,53298,1
883,2,41963,35536,42678,33472,5922,-3583,367,-2449,448,-36,117,117,431,-315,1,0,22,20,360,0,53298,1
884,2,41700,35656,42375,33473,5926,-3502,319,-2465,-165,-92,-117,124,434,-314,1,0,22,20,400,0,53298,1
885,2,41625,35616,42324,33474,5929,-3643,219,-2363,-405,11,-155,119,441,-323,1,0,22,20,440,0,53298,1
886,2,41490,35571,42235,33475,5932,-3694,250,-2335,-110,-32,-14,114,436,-318,1,0,22,20,480,0,53298,1
887,2,41474,35575,42167,33476,5934,-3580,260,-2395,-70,-99,-78,120,446,-320,1,0,22,20,520,0,53298,1
888,2,41465,35569,42163,33477,5936,-3635,242,-2339,-57,-8,12,116,442,-310,1,0,22,20,560,0,53298,1
889,2,41450,35570,42094,33478,5938,-3663,261,-2356,22,-16,14,113,439,-317,1,0,22,20,600,0,53298,1
890,2,41437,35555,42140,33479,5940,-3585,256,-2353,-60,-31,-36,124,436,-314,1,0,22,20,640,0,53298,1
891,2,41450,35571,42160,33480,5942,-3674,266,-2347,113,80,63,122,434,-316,1,0,22,20,680,0,53298,1
892,2,41451,35562,42128,33481,5944,-3622,253,-2365,-43,-38,-18,114,440,-320,1,0,22,20,720,0,53298,1
893,2,41439,35507,42067,33482,5945,-3657,232,-2308,-88,-25,-14,116,436,-306,1,0,22,20,760,0,53298,1
894,2,41470,35516,42121,33483,5945,-3622,270,-2371,-83,-69,-45,117,435,-317,1,0,22,20,800,0,53298,1
895,2,41319,35400,42005,33484,5946,-3618,247,-2367,-62,-56,-31,121,439,-313,1,0,22,20,840,0,53298,1
896,2,40691,35101,41724,33485,5946,-3632,310,-2431,51,-87,-8,121,437,-321,1,0,22,20,880,0,53298,1
897,2,38139,32002,34232,33486,5947,-3504,489,-2696,-314,-583,-259,122,434,-304,1,0,22,20,920,0,53298,1
898,2,31759,30752,32864,33487,5947,-3056,825,-2779,-1609,-3001,-1310,120,434,-304,1,0,22,20,960,0,53298,1
899,1,31545,30427,32440,33488,5383,-3232,282,-2404,-965,-4105,-2118,131,447,-287,1,0,22,21,0,1,53298,1
900,2,31160,29958,31963,33489,5378,-4139,-169,-1729,3163,-2571,-1507,133,439,-301,1,0,22,21,40,1,53298,1
901,2,31178,30593,31886,33490,5374,-4496,-412,-1642,7606,-2821,-555,123,441,-295,1,0,22,21,80,1,53298,1
902,2,31173,30065,31879,33491,5370,-4216,-209,-1822,3783,-2073,-1205,126,436,-300,1,0,22,21,120,1,53298,1
903,2,31203,30202,31910,33492,5365,-3888,-120,-2081,-1812,-432,-831,124,436,-288,1,0,22,21,160,1,53298,1
904,2,31186,30161,31909,33493,5362,-3678,63,-2221,-3058,89,-256,128,444,-290,1,0,22,21,200,1,53298,1
905,2,31196,30243,31915,33494,5358,-3750,132,-2141,-175,-638,-285,125,445,-299,1,0,22,21,240,1,53298,1
906,2,31199,30253,31918,33495,5354,-3919,18,-2071,1366,-638,-344,127,439,-287,1,0,22,21,280,1,53298,1
907,2,31198,30308,31925,33496,5351,-3985,-111,-2057,696,-290,-300,131,435,-293,1,0,22,21,320,1,53298,1
908,2,31168,30181,31883,33497,5347,-3880,-68,-2080,-488,-205,-62,131,449,-293,1,0,22,21,360,1,53298,1
909,2,31151,30188,31870,33498,5344,-3819,1,-2060,-104,-162,117,126,438,-294,1,0,22,21,400,1,53298,1
910,2,31141,30165,31867,33499,5340,-3906,-19,-2097,281,-53,70,126,434,-296,1,0,22,21,440,1,53298,1
911,2,31138,30159,31863,33500,5336,-3939,-25,-2044,315,-81,9,130,446,-290,1,0,22,21,480,1,53298,1
912,2,31140,30098,31867,33501,5332,-3900,-47,-2089,262,80,7,135,435,-295,1,0,22,21,520,1,53298,1
913,2,31144,30093,31871,33502,5328,-3845,-6,-2098,274,20,67,123,447,-289,1,0,22,21,560,1,53298,1
914,2,31140,30078,31873,33503,5324,-3874,-24,-2072,282,-7,54,129,449,-277,1,0,22,21,600,1,53298,1
915,2,31141,30119,31896,33504,5321,-3791,-68,-2072,-416,193,238,130,448,-292,1,0,22,21,640,1,53298,1
916,2,31121,30013,31902,33505,5318,-3925,-84,-1903,-2153,740,790,136,446,-290,1,0,22,21,680,1,53298,1
917,2,31135,30250,31953,33506,5315,-3922,-138,-2274,-1368,693,887,126,444,-290,1,0,22,21,720,1,53298,1
918,2,31186,29997,31985,33507,5313,-3932,88,-1527,-1112,1638,1071,122,442,-296,1,0,22,21,760,1,53298,1
919,2,31250,30695,32021,33508,5311,-4356,207,-2212,171,2325,1614,126,440,-298,1,0,22,21,800,1,53298,1
920,2,31317,30450,32076,33509,5310,-3745,73,-2361,-470,3086,707,129,437,-297,1,0,22,21,840,1,53298,1
921,2,31392,30681,32139,33510,5310,-3585,206,-2360,-1189,2863,785,127,441,-315,1,0,22,21,880,1,53298,1
922,2,32041,30171,32774,33511,5311,-3620,257,-2412,707,2727,1127,116,434,-314,1,0,22,21,920,1,53298,1
923,2,36064,31130,33350,33512,5311,-3555,219,-2417,2404,1935,1016,116,440,-318,1,0,22,21,960,1,53298,1
924,1,32309,30972,33491,33513,4859,-3533,218,-2479,2532,1613,1011,123,443,-321,1,0,22,22,0,1,53298,1
925,2,32810,31255,32997,33514,4862,-3500,163,-2431,558,972,464,121,441,-321,1,0,22,22,40,1,53298,1
926,2,41983,35608,42623,33515,4866,-3581,255,-2475,470,400,328,125,433,-333,1,0,22,22,80,1,53298,1
927,2,42229,35717,42848,33516,4870,-3571,108,-2550,515,118,122,110,438,-322,1,0,22,22,120,1,53298,1
928,2,42185,35764,42852,33517,4873,-3558,212,-2524,371,-24,77,109,435,-319,1,0,22,22,160,1,53298,1
929,2,42207,35778,42854,33518,4876,-3588,147,-2438,41,-51,-99,120,444,-320,1,0,22,22,200,1,53298,1
930,2,42173,35809,42765,33519,4878,-3613,108,-2406,-316,-47,-133,118,434,-310,1,0,22,22,240,1,53298,1
931,2,42092,35836,42699,33520,4880,-3590,152,-2462,-155,-53,-64,111,445,-321,1,0,22,22,280,1,53298,1
932,2,42005,35802,42570,33521,4882,-3611,138,-2432,-30,-22,-13,118,446,-324,1,0,22,22,320,1,53298,1
933,2,41900,35745,42538,33522,4885,-3605,152,-2451,-329,-21,-59,118,438,-324,1,0,22,22,360,1,53298,1
934,2,41831,35597,42404,33523,4887,-3616,116,-2405,-348,-52,-34,121,447,-319,1,0,22,22,400,1,53298,1
935,2,41781,35559,42396,33524,4888,-3626,162,-2437,-186,-65,-13,120,436,-318,1,0,22,22,440,1,53298,1
936,2,41792,35538,42405,33525,4889,-3588,144,-2405,-361,-90,-61,115,445,-317,1,0,22,22,480,1,53298,1
937,2,41806,35529,42429,33526,4890,-3609,135,-2423,-263,-51,-16,112,434,-320,1,0,22,22,520,1,53298,1
938,2,41788,35504,42384,33527,4892,-3634,159,-2418,-174,-49,-1,113,439,-311,1,0,22,22,560,1,53298,1
939,2,41643,35450,42263,33528,4893,-3592,161,-2435,-223,-35,-24,113,437,-313,1,0,22,22,600,1,53298,1
940,2,41621,35398,42251,33529,4894,-3593,124,-2424,-225,-55,-30,128,438,-318,1,0,22,22,640,1,53298,1
941,2,41612,35393,42218,33530,4894,-3631,151,-2417,-120,-58,13,115,437,-321,1,0,22,22,680,1,53298,1
942,2,41575,35371,42201,33531,4894,-3625,172,-2404,-61,-71,14,114,438,-312,1,0,22,22,720,1,53298,1
943,2,40210,34600,40904,33532,4894,-3569,202,-2498,-280,-99,-85,125,435,-321,1,0,22,22,760,1,53298,1
944,2,38325,34505,40276,33533,4892,-3523,369,-2640,-725,-314,-186,111,429,-315,1,0,22,22,800,1,53298,1
945,2,31517,31612,32264,33534,4889,-3092,760,-2830,-2358,-2009,-1017,134,444,-308,1,0,22,22,840,1,53298,1
946,2,32036,31281,33501,33535,4886,-3219,391,-2552,-3275,-4324,-2130,121,439,-303,1,0,22,22,880,1,53298,1
947,2,31285,30434,31998,33536,4881,-3893,-155,-1945,-327,-3278,-1913,128,442,-302,1,0,22,22,920,1,53298,1
948,2,31275,30317,32040,33537,4881,-4581,-657,-1640,4593,-2365,-397,124,440,-302,1,0,22,22,960,1,53298,1
949,1,31612,30459,32037,33538,4333,-4233,-182,-1829,3398,-2375,-354,130,440,-296,1,0,22,23,0,0,53298,1
950,2,31295,30546,31954,33539,4330,-3875,88,-2005,-533,-1466,51,112,438,-290,1,0,22,23,40,0,53298,1
951,2,32103,30951,32800,33540,4327,-3693,124,-2077,-1253,-195,-80,124,444,-290,1,0,22,23,80,0,53298,1
952,2,31644,30762,32325,33541,4323,-3721,266,-2179,-1290,-203,-718,127,449,-293,1,0,22,23,120,0,53298,1
953,2,31597,30820,32278,33542,4321,-3877,90,-2098,1017,-649,-654,127,447,-299,1,0,22,23,160,0,53298,1
954,2,31780,30889,32473,33543,4317,-3957,-126,-2130,1269,-110,-691,130,438,-288,1,0,22,23,200,0,53298,1
955,2,31665,30847,32376,33544,4314,-3870,-64,-2181,0,-464,-261,125,439,-295,1,0,22,23,240,0,53298,1
956,2,31505,30724,32224,33545,4310,-3779,30,-2077,23,-797,10,125,437,-297,1,0,22,23,280,0,53298,1
957,2,31388,30715,32077,33546,4306,-3874,9,-2019,176,-443,12,128,444,-292,1,0,22,23,320,0,53298,1
958,2,31374,30693,32065,33547,4303,-3956,-24,-2047,90,-161,50,131,437,-289,1,0,22,23,360,0,53298,1
959,2,31394,30706,32108,33548,4299,-3903,20,-2053,-198,-161,62,130,440,-304,1,0,22,23,400,0,53298,1
960,2,31385,30688,32093,33549,4296,-3832,30,-2062,74,-105,49,126,444,-290,1,0,22,23,440,0,53298,1
961,2,31319,30575,32053,33550,4292,-3852,3,-2071,317,30,5,128,436,-288,1,0,22,23,480,0,53298,1
962,2,31275,30494,32006,33551,4289,-3779,10,-1647,-304,54,115,124,440,-282,1,0,22,23,520,0,53298,1
963,2,31260,30617,32014,33552,4286,-4006,-140,-2078,-3297,1109,1014,123,431,-293,1,0,22,23,560,0,53298,1
964,2,31281,30543,32047,33553,4283,-4580,-278,-1784,-1807,2909,1596,129,435,-291,1,0,22,23,600,0,53298,1
965,2,31289,30053,32044,33554,4281,-3877,309,-2155,698,1947,1471,123,441,-303,1,0,22,23,640,0,53298,1
966,2,31352,30391,32107,33555,4281,-3528,206,-2437,-296,2913,856,118,444,-296,1,0,22,23,680,0,53298,1
967,2,31365,30532,32121,33556,4281,-3238,328,-2423,-707,2221,632,124,452,-308,1,0,22,23,720,0,53298,1
968,2,31541,30356,32190,33557,4282,-3562,168,-2173,-75,2150,873,116,440,-306,1,0,22,23,760,0,53298,1
969,2,32256,31123,32960,33558,4283,-3789,122,-2300,1091,2110,983,122,438,-320,1,0,22,23,800,0,53298,1
970,2,41276,32124,41111,33559,4286,-3607,241,-2415,1281,1640,780,113,439,-301,1,0,22,23,840,0,53298,1
971,2,35172,31765,39124,33560,4289,-3397,252,-2524,898,1054,515,118,436,-320,1,0,22,23,880,0,53298,1
972,2,32365,31500,33166,33561,4292,-3576,278,-2457,835,627,452,114,434,-320,1,0,22,23,920,0,53298,1
973,2,33007,35212,41762,33562,4292,-3674,203,-2404,855,251,250,123,437,-321,1,0,22,23,960,0,53298,1
974,1,41619,35451,42307,33563,3810,-3563,234,-2487,700,82,98,121,435,-323,1,0,22,24,0,1,53298,1
975,2,41467,35191,39055,33564,3812,-3507,160,-2536,-157,11,-146,130,434,-316,1,0,22,24,40,1,53298,1
976,2,41375,35331,42038,33565,3813,-3670,145,-2402,-113,21,54,125,439,-319,1,0,22,24,80,1,53298,1
977,2,41295,35218,41954,33566,3815,-3575,196,-2467,-100,-97,-76,115,435,-325,1,0,22,24,120,1,53298,1
978,2,34412,31894,34655,33567,3816,-3613,152,-2403,-388,-95,-77,118,444,-320,1,0,22,24,160,1,53298,1
979,2,33904,31712,34570,33568,3817,-3654,171,-2407,-161,-62,-9,112,434,-314,1,0,22,24,200,1,53298,1
980,2,34279,31909,34911,33569,3817,-3618,148,-2379,-85,-35,-14,124,442,-318,1,0,22,24,240,1,53298,1
981,2,34491,31992,35188,33570,3818,-3637,157,-2415,-92,-14,22,111,443,-313,1,0,22,24,280,1,53298,1
982,2,34577,31990,35177,33571,3819,-3625,131,-2405,1,-11,45,112,440,-324,1,0,22,24,320,1,53298,1
983,2,34137,31794,34855,33572,3820,-3646,157,-2398,86,-11,96,109,437,-319,1,0,22,24,360,1,53298,1
984,2,33734,31646,34334,33573,3822,-3637,164,-2370,88,20,95,111,435,-325,1,0,22,24,400,1,53298,1
985,2,33151,31404,33804,33574,3824,-3646,160,-2408,126,49,68,112,438,-312,1,0,22,24,440,1,53298,1
986,2,33358,31562,34272,33575,3826,-3571,191,-2467,163,26,54,124,436,-316,1,0,22,24,480,1,53298,1
987,2,41440,35438,42081,33576,3828,-3637,131,-2374,56,19,29,119,443,-319,1,0,22,24,520,1,53298,1
988,2,41260,35351,41917,33577,3831,-3619,199,-2459,126,-18,55,118,440,-314,1,0,22,24,560,1,53298,1
989,2,41184,35335,41649,33578,3832,-3572,184,-2431,-121,-37,-44,109,431,-321,1,0,22,24,600,1,53298,1
990,2,40967,35224,41577,33579,3833,-3636,168,-2441,-118,-25,-10,110,440,-320,1,0,22,24,640,1,53298,1
991,2,40961,35196,41583,33580,3834,-3601,183,-2450,-181,-72,-69,118,438,-318,1,0,22,24,680,1,53298,1
992,2,40883,35068,41435,33581,3834,-3606,252,-2484,-395,-143,-148,117,433,-311,1,0,22,24,720,1,53298,1
993,2,38673,34400,34602,33582,3832,-3512,352,-2652,-962,-355,-352,118,432,-310,1,0,22,24,760,1,53298,1
994,2,33634,32001,34940,33583,3830,-3151,468,-2666,-2164,-1556,-906,114,440,-308,1,0,22,24,800,1,53298,1
995,2,32301,30850,32829,33584,3827,-3878,194,-2323,-2111,-2353,-1120,119,445,-307,1,0,22,24,840,1,53298,1
996,2,31818,31776,32716,33585,3823,-3522,279,-2522,-2228,-3297,-1763,127,443,-299,1,0,22,24,880,1,53298,1
997,2,31471,30548,32181,33586,3818,-3612,-5,-2140,434,-2966,-1815,118,438,-292,1,0,22,24,920,1,53298,1
998,2,31285,30671,32009,33587,3818,-4238,-65,-1707,5556,-2754,-351,133,451,-295,1,0,22,24,960,1,53298,1
999,1,31374,30689,32031,33588,3285,-4245,-186,-1833,4757,-2359,-753,132,438,-294,1,0,22,25,0,0,53298,1
1000,2,31330,30664,32036,33589,3280,-4100,-181,-1957,422,-1001,-753,133,447,-295,1,0,22,25,40,0,53298,1
1001,2,31280,30655,31986,33590,3276,-3768,-61,-2111,-2502,-206,-428,127,439,-291,1,0,22,25,80,0,53298,1
1002,2,31259,30625,31968,33591,3271,-3659,121,-2191,-1338,-151,-162,131,437,-289,1,0,22,25,120,0,53298,1
1003,2,31259,30668,31992,33592,3266,-3826,22,-2134,1065,-270,-31,127,449,-293,1,0,22,25,160,0,53298,1
1004,2,31298,30651,32035,33593,3262,-3972,-34,-2101,1108,-246,-29,130,442,-300,1,0,22,25,200,0,53298,1
1005,2,31301,30672,32023,33594,3257,-3878,-2,-2086,-92,-189,-13,124,440,-298,1,0,22,25,240,0,53298,1
1006,2,31318,30692,32037,33595,3252,-3828,-21,-2117,-360,-94,-132,131,441,-293,1,0,22,25,280,0,53298,1
1007,2,31294,30411,32043,33596,3247,-3824,-52,-2035,-34,-139,219,127,443,-291,1,0,22,25,320,0,53298,1
1008,2,31342,30609,32143,33597,3244,-3886,34,-1959,-1158,155,705,124,442,-288,1,0,22,25,360,0,53298,1
1009,2,31242,29954,32043,33598,3240,-3958,-323,-1859,-2736,1351,851,125,433,-291,1,0,22,25,400,0,53298,1
1010,2,31282,30254,32115,33599,3237,-4398,-160,-2144,-1992,2317,1790,124,436,-292,1,0,22,25,440,0,53298,1
1011,2,31310,30349,32136,33600,3235,-3768,351,-2279,602,2187,944,123,439,-303,1,0,22,25,480,0,53298,1
1012,2,31359,30561,32190,33601,3233,-3225,409,-2369,236,2122,412,121,441,-305,1,0,22,25,520,0,53298,1
1013,2,31401,30679,32281,33602,3233,-3696,62,-2320,96,2216,726,124,442,-308,1,0,22,25,560,0,53298,1
1014,2,32033,30651,32965,33603,3235,-3669,275,-2295,254,1817,654,119,441,-309,1,0,22,25,600,0,53298,1
1015,2,32108,30711,32890,33604,3236,-3788,190,-2331,478,1649,660,120,440,-312,1,0,22,25,640,0,53298,1
1016,2,32175,30843,33417,33605,3238,-3581,138,-2459,761,1325,570,123,437,-319,1,0,22,25,680,0,53298,1
1017,2,33803,30907,37840,33606,3241,-3417,368,-2478,825,952,712,120,442,-318,1,0,22,25,720,0,53298,1
1018,2,39650,31468,39988,33607,3242,-3743,145,-2354,1012,769,311,111,443,-317,1,0,22,25,760,0,53298,1
1019,2,33694,32357,33059,33608,3244,-3688,132,-2374,833,492,464,119,437,-321,1,0,22,25,800,0,53298,1
1020,2,39430,34558,39317,33609,3247,-3579,164,-2455,624,325,152,120,446,-320,1,0,22,25,840,0,53298,1
1021,2,41365,35245,35346,33610,3250,-3590,153,-2483,445,182,98,116,444,-320,1,0,22,25,880,0,53298,1
1022,2,36372,34129,35641,33611,3252,-3604,158,-2449,353,46,250,119,437,-321,1,0,22,25,920,0,53298,1
1023,2,40969,35295,41610,33612,3252,-3589,154,-2500,107,-14,-50,122,440,-312,1,0,22,25,960,0,53298,1
1024,1,41084,35386,41622,33613,2762,-3588,204,-2462,-147,-59,-100,112,434,-316,1,0,22,26,0,1,53298,1
1025,2,40643,35225,41445,33614,2764,-3628,129,-2409,-277,-65,-56,116,436,-332,1,0,22,26,40,1,53298,1
1026,2,40592,35082,41286,33615,2764,-3618,149,-2430,-291,-83,-62,120,442,-322,1,0,22,26,80,1,53298,1
1027,2,40625,35161,41400,33616,2765,-3588,170,-2433,-336,-43,-14,121,437,-327,1,0,22,26,120,1,53298,1
1028,2,40735,35157,41408,33617,2766,-3617,155,-2411,-256,-61,-62,118,442,-320,1,0,22,26,160,1,53298,1
1029,2,40566,35044,41170,33618,2767,-3607,231,-2423,-293,-213,-214,110,432,-312,1,0,22,26,200,1,53298,1
1030,2,40493,34961,41225,33619,2766,-3538,235,-2469,-641,-229,-176,116,438,-316,1,0,22,26,240,1,53298,1
1031,2,40281,34783,40792,33620,2765,-3704,115,-2332,-814,-163,-258,119,435,-321,1,0,22,26,280,1,53298,1
1032,2,40126,34350,37546,33621,2764,-3592,194,-2481,-898,-335,-396,117,439,-319,1,0,22,26,320,1,53298,1
1033,2,32313,34571,33398,33622,2762,-3456,89,-2369,-975,-889,12,114,436,-316,1,0,22,26,360,1,53298,1
1034,2,32022,30907,33913,33623,2761,-3709,176,-2330,-125,-539,-463,115,435,-317,1,0,22,26,400,1,53298,1
1035,2,31832,30908,32626,33624,2759,-3427,232,-2386,-376,-1153,-8,122,438,-300,1,0,22,26,440,1,53298,1
1036,2,31845,30833,32600,33625,2757,-3951,105,-2079,-155,-413,-318,115,439,-311,1,0,22,26,480,1,53298,1
1037,2,32243,31050,33042,33626,2754,-3628,309,-2413,-596,-425,-359,123,437,-305,1,0,22,26,520,1,53298,1
1038,2,37427,31314,37382,33627,2753,-3682,86,-2408,-667,-341,-100,122,440,-312,1,0,22,26,560,1,53298,1
1039,2,32238,30874,33641,33628,2751,-3700,290,-2343,-454,-432,-681,120,430,-312,1,0,22,26,600,1,53298,1
1040,2,32015,30797,32567,33629,2746,-3439,716,-2611,-997,-1155,-1805,125,439,-303,1,0,22,26,640,1,53298,1
1041,2,32163,30757,32965,33630,2741,-3175,472,-2609,-1821,-2611,-1505,124,438,-294,1,0,22,26,680,1,53298,1
1042,2,31574,30687,32271,33631,2736,-3691,-101,-2125,242,-2117,-215,132,444,-300,1,0,22,26,720,1,53298,1
1043,2,31479,30665,32183,33632,2732,-4506,-480,-1704,4397,-1723,-622,122,448,-302,1,0,22,26,760,1,53298,1
1044,2,31474,30619,32138,33633,2728,-4234,-180,-1836,3226,-1893,-320,124,442,-300,1,0,22,26,800,1,53298,1
1045,2,31486,30585,32152,33634,2723,-3928,28,-2062,-403,-1410,-232,133,447,-303,1,0,22,26,840,1,53298,1
1046,2,31488,30618,32150,33635,2719,-3729,192,-2161,-2010,-380,-642,125,437,-281,1,0,22,26,880,1,53298,1
1047,2,31517,30620,32171,33636,2716,-3697,167,-2125,-1418,-471,-501,126,434,-296,1,0,22,26,920,1,53298,1
1048,2,31525,30630,32170,33637,2716,-3874,-9,-2091,342,-359,-323,130,428,-294,1,0,22,26,960,1,53298,1
1049,1,31523,30663,32178,33638,2237,-3961,-58,-2110,439,-268,-24,133,437,-291,1,0,22,27,0,1,53298,1
1050,2,31535,30663,32187,33639,2233,-3867,-2,-2120,-122,-244,145,131,439,-291,1,0,22,27,40,1,53298,1
1051,2,31543,30666,32202,33640,2229,-3801,61,-2094,102,-141,94,128,436,-294,1,0,22,27,80,1,53298,1
1052,2,31570,30669,32229,33641,2226,-3864,59,-2064,52,-119,180,127,445,-293,1,0,22,27,120,1,53298,1
1053,2,31594,30104,32264,33642,2222,-3762,36,-1527,-399,1108,997,126,442,-284,1,0,22,27,160,1,53298,1
1054,2,31413,30374,32132,33643,2218,-4140,-282,-2342,-3150,1498,1387,128,438,-290,1,0,22,27,200,1,53298,1
1055,2,31423,30540,32158,33644,2214,-4110,-35,-1927,-632,1753,1286,128,440,-300,1,0,22,27,240,1,53298,1
1056,2,31493,30670,32214,33645,2211,-3674,376,-1974,900,2337,711,123,443,-299,1,0,22,27,280,1,53298,1
1057,2,31586,30773,32308,33646,2208,-3649,145,-2363,430,1965,621,122,440,-290,1,0,22,27,320,1,53298,1
1058,2,31797,30855,32503,33647,2207,-3660,281,-2350,-547,2000,636,119,435,-303,1,0,22,27,360,1,53298,1
1059,2,31488,30670,32173,33648,2205,-3798,219,-2287,-593,1793,689,125,441,-303,1,0,22,27,400,1,53298,1
1060,2,31953,30574,32604,33649,2206,-3718,192,-2365,374,1526,799,113,435,-309,1,0,22,27,440,1,53298,1
1061,2,31942,30890,32600,33650,2207,-3644,329,-2388,1176,1205,537,121,437,-307,1,0,22,27,480,1,53298,1
1062,2,32765,31168,33529,33651,2209,-3670,236,-2375,966,1063,536,118,436,-316,1,0,22,27,520,1,53298,1
1063,2,40265,33974,38303,33652,2211,-3711,226,-2371,910,785,379,114,434,-312,1,0,22,27,560,1,53298,1
1064,2,39808,33917,40962,33653,2214,-3677,217,-2370,888,356,221,118,438,-328,1,0,22,27,600,1,53298,1
1065,2,40481,34817,41043,33654,2217,-3513,213,-2488,633,118,188,113,435,-321,1,0,22,27,640,1,53298,1
1066,2,40558,35072,40564,33655,2220,-3629,277,-2453,585,-28,-97,112,438,-316,1,0,22,27,680,1,53298,1
1067,2,40517,35030,41145,33656,2223,-3546,200,-2584,42,-30,-155,117,443,-309,1,0,22,27,720,1,53298,1
1068,2,40712,35112,41278,33657,2226,-3639,168,-2340,-325,-59,7,118,432,-328,1,0,22,27,760,1,53298,1
1069,2,41001,35347,41256,33658,2229,-3610,172,-2386,-156,-19,73,110,446,-306,1,0,22,27,800,1,53298,1
1070,2,41010,35382,41726,33659,2232,-3605,183,-2378,159,-37,29,116,438,-316,1,0,22,27,840,1,53298,1
1071,2,41072,35375,41679,33660,2235,-3593,178,-2439,-56,-47,32,114,438,-326,1,0,22,27,880,1,53298,1
1072,2,40922,35323,41678,33661,2238,-3606,203,-2442,-56,-46,34,120,442,-316,1,0,22,27,920,1,53298,1
1073,2,41182,35414,41774,33662,2238,-3661,159,-2357,-85,-49,30,118,444,-316,1,0,22,27,960,1,53298,1
1074,1,41189,35404,41740,33663,1714,-3627,166,-2393,64,-39,85,117,441,-317,1,0,22,28,0,0,53298,1
1075,2,41177,35411,41782,33664,1717,-3609,190,-2393,81,-6,67,118,432,-320,1,0,22,28,40,0,53298,1
1076,2,41106,35369,41662,33665,1721,-3618,189,-2416,22,1,42,121,441,-317,1,0,22,28,80,0,53298,1
1077,2,41180,35411,41762,33666,1724,-3620,157,-2373,116,-13,54,112,430,-330,1,0,22,28,120,0,53298,1
1078,2,41164,35436,41800,33667,1727,-3607,189,-2438,-13,-20,15,120,434,-322,1,0,22,28,160,0,53298,1
1079,2,41230,35442,41782,33668,1730,-3640,153,-2382,44,-29,51,115,437,-319,1,0,22,28,200,0,53298,1
1080,2,41225,35432,41794,33669,1732,-3606,156,-2427,34,-27,70,120,436,-316,1,0,22,28,240,0,53298,1
1081,2,41191,35344,41764,33670,1735,-3614,197,-2385,93,-45,49,116,442,-322,1,0,22,28,280,0,53298,1
1082,2,40068,34793,40903,33671,1738,-3617,197,-2430,-150,-53,-49,114,436,-320,1,0,22,28,320,0,53298,1
1083,2,39598,34612,40221,33672,1740,-3634,175,-2430,-382,-106,-106,110,436,-314,1,0,22,28,360,0,53298,1
1084,2,39513,34540,40148,33673,1741,-3603,183,-2499,-493,-232,-101,119,445,-313,1,0,22,28,400,0,53298,1
1085,2,33328,33816,39801,33674,1741,-3665,264,-2450,-857,-514,-265,117,441,-319,1,0,22,28,440,0,53298,1
1086,2,35724,31731,33932,33675,1740,-3606,463,-2575,-3749,-2602,-1715,122,438,-314,1,0,22,28,480,0,53298,1
1087,2,35757,31496,32900,33676,1738,-3037,506,-2863,-3792,-3746,-2180,116,440,-294,1,0,22,28,520,0,53298,1
1088,2,32226,31182,33059,33677,1736,-3551,-172,-2412,-662,-2988,-1387,114,436,-290,1,0,22,28,560,0,53298,1
1089,2,31554,30343,32313,33678,1733,-4035,105,-1920,3038,-2604,-421,124,440,-302,1,0,22,28,600,0,53298,1
1090,2,31555,30858,32295,33679,1729,-4145,-5,-1802,3605,-1746,-6,131,437,-301,1,0,22,28,640,0,53298,1
1091,2,31466,30763,32143,33680,1725,-4023,73,-1930,662,-1034,-404,126,432,-290,1,0,22,28,680,0,53298,1
1092,2,31536,30927,32280,33681,1721,-3869,92,-1991,-381,-199,-690,128,444,-294,1,0,22,28,720,0,53298,1
1093,2,31538,30780,32216,33682,1718,-3857,107,-1974,-35,61,-594,129,439,-293,1,0,22,28,760,0,53298,1
1094,2,31768,30855,32782,33683,1714,-3898,-53,-2136,765,-638,-239,125,441,-293,1,0,22,28,800,0,53298,1
1095,2,31801,30809,32473,33684,1711,-3854,71,-2200,1084,-641,-161,126,442,-286,1,0,22,28,840,0,53298,1
1096,2,31716,30736,32436,33685,1706,-3822,18,-2124,404,-381,-66,125,447,-287,1,0,22,28,880,0,53298,1
1097,2,31583,30568,32296,33686,1702,-3876,5,-2102,-85,-273,12,123,445,-293,1,0,22,28,920,0,53298,1
1098,2,31682,30789,32386,33687,1702,-3880,24,-2024,-1075,-306,353,124,452,-282,1,0,22,28,960,0,53298,1
1099,1,31770,30818,32526,33688,1190,-3857,-204,-2150,-4302,1135,835,127,447,-285,1,0,22,29,0,0,53298,1
1100,2,31740,30686,32519,33689,1187,-3976,-204,-1504,-317,2518,1780,118,442,-290,1,0,22,29,40,0,53298,1
1101,2,31828,30919,32580,33690,1186,-4319,103,-2138,460,2790,819,116,438,-290,1,0,22,29,80,0,53298,1
1102,2,31916,30877,32680,33691,1185,-3581,178,-2440,-273,3164,774,129,439,-297,1,0,22,29,120,0,53298,1
1103,2,31943,30644,32702,33692,1186,-3681,108,-2496,-60,2194,679,124,428,-314,1,0,22,29,160,0,53298,1
1104,2,32005,30771,32701,33693,1187,-3523,364,-2225,1389,2151,1084,121,443,-309,1,0,22,29,200,0,53298,1
1105,2,32003,30858,32835,33694,1188,-3876,219,-2386,1681,1649,1053,113,433,-315,1,0,22,29,240,0,53298,1
1106,2,32796,30919,34247,33695,1191,-3728,181,-2378,600,986,646,124,438,-318,1,0,22,29,280,0,53298,1
1107,2,32070,30294,34117,33696,1194,-3423,265,-2457,567,620,588,109,437,-311,1,0,22,29,320,0,53298,1
1108,2,34460,35458,41885,33697,1199,-3527,179,-2458,628,165,260,115,437,-317,1,0,22,29,360,0,53298,1
1109,2,42027,35750,42594,33698,1203,-3588,286,-2513,558,7,49,121,445,-319,1,0,22,29,400,0,53298,1
1110,2,39239,34968,39873,33699,1207,-3550,306,-2357,519,51,56,121,439,-321,1,0,22,29,440,0,53298,1
1111,2,38991,35077,39679,33700,1210,-3614,178,-2421,82,10,-14,113,435,-323,1,0,22,29,480,0,53298,1
1112,2,38994,36027,39653,33701,1214,-3672,196,-2483,-270,-122,-118,123,441,-319,1,0,22,29,520,0,53298,1
1113,2,39014,34894,39657,33702,1218,-3559,220,-2354,-146,-69,-8,114,438,-322,1,0,22,29,560,0,53298,1
1114,2,39002,34524,39648,33703,1222,-3617,160,-2413,-181,-70,-30,120,442,-320,1,0,22,29,600,0,53298,1
1115,2,38957,34307,39616,33704,1226,-3641,234,-2378,-319,-70,-118,116,438,-322,1,0,22,29,640,0,53298,1
1116,2,38932,34315,39573,33705,1229,-3635,159,-2401,-104,-6,1,114,440,-322,1,0,22,29,680,0,53298,1
1117,2,38869,34273,39544,33706,1231,-3642,181,-2389,-37,-25,14,117,439,-315,1,0,22,29,720,0,53298,1
1118,2,38891,34281,39531,33707,1234,-3596,215,-2388,20,-21,50,118,440,-316,1,0,22,29,760,0,53298,1
1119,2,38875,34254,39498,33708,1236,-3636,203,-2400,-206,-60,-37,108,430,-312,1,0,22,29,800,0,53298,1
1120,2,38751,34200,39429,33709,1238,-3610,190,-2356,-174,-50,-17,115,445,-317,1,0,22,29,840,0,53298,1
1121,2,38873,34251,39540,33710,1240,-3640,188,-2418,-114,-44,-31,125,437,-315,1,0,22,29,880,0,53298,1
1122,2,38846,34250,39533,33711,1241,-3620,202,-2397,-170,-39,-36,116,442,-314,1,0,22,29,920,0,53298,1
1123,2,38833,34280,39491,33712,1241,-3612,200,-2438,-205,-37,-42,118,440,-320,1,0,22,29,960,0,53298,1
1124,1,38777,34164,39459,33713,668,-3825,295,-2545,-476,-205,-145,123,441,-315,1,0,22,30,0,1,53298,1
1125,2,38432,33782,39238,33714,668,-3442,527,-2660,-1204,-810,-411,115,441,-307,1,0,22,30,40,1,53298,1
1126,2,32161,31041,35839,33715,667,-3361,692,-2661,-2752,-3132,-1468,123,437,-303,1,0,22,30,80,1,53298,1
1127,2,32073,32776,39734,33716,665,-3231,153,-2327,-2515,-3975,-2130,122,442,-304,1,0,22,30,120,1,53298,1
1128,2,31707,30715,32311,33717,662,-3573,-332,-1853,422,-2827,-1550,123,431,-307,1,0,22,30,160,1,53298,1
1129,2,31518,30600,32222,33718,658,-3933,-294,-1680,3865,-2248,-20,118,440,-298,1,0,22,30,200,1,53298,1
1130,2,31624,30054,32292,33719,654,-4381,25,-1868,2288,-1715,-64,117,441,-289,1,0,22,30,240,1,53298,1
1131,2,31550,30809,32201,33720,651,-4296,139,-2070,-491,-775,-186,118,442,-278,1,0,22,30,280,1,53298,1
1132,2,31589,30807,32360,33721,648,-3688,209,-2053,-736,15,-288,114,446,-292,1,0,22,30,320,1,53298,1
1133,2,31657,30782,32313,33722,644,-3826,149,-2171,100,164,-458,123,443,-297,1,0,22,30,360,1,53298,1
1134,2,31635,30762,32313,33723,641,-3673,97,-2126,848,-266,-508,133,439,-295,1,0,22,30,400,1,53298,1
1135,2,31745,30763,32402,33724,638,-4079,162,-2286,39,-1024,-538,121,439,-291,1,0,22,30,440,1,53298,1
1136,2,32265,31069,32784,33725,635,-3696,74,-1989,2547,-1195,-215,125,437,-295,1,0,22,30,480,1,53298,1
1137,2,33337,31600,34126,33726,632,-3678,-50,-2104,1200,-850,-215,131,437,-293,1,0,22,30,520,1,53298,1
1138,2,33358,31521,34021,33727,630,-4015,-44,-1950,-177,-545,-189,135,449,-287,1,0,22,30,560,1,53298,1
1139,2,32554,31211,33277,33728,627,-3949,-19,-1992,-842,-248,-118,126,448,-288,1,0,22,30,600,1,53298,1
1140,2,32040,31004,32638,33729,625,-4088,15,-2048,-376,-71,9,129,441,-285,1,0,22,30,640,1,53298,1
1141,2,31894,30941,32562,33730,622,-3615,13,-2098,15,-94,98,127,445,-291,1,0,22,30,680,1,53298,1
1142,2,31892,30946,32555,33731,621,-3912,88,-2035,-66,-160,54,122,444,-270,1,0,22,30,720,1,53298,1
1143,2,31863,30926,32541,33732,619,-3911,-1,-2059,-63,-107,-26,131,441,-287,1,0,22,30,760,1,53298,1
1144,2,31861,30937,32553,33733,616,-3887,8,-2051,-70,-109,-42,133,447,-283,1,0,22,30,800,1,53298,1
1145,2,31869,30941,32541,33734,614,-3894,65,-2004,100,-171,57,132,442,-284,1,0,22,30,840,1,53298,1
1146,2,31881,30978,32568,33735,611,-3935,21,-2049,21,-9,-49,128,446,-286,1,0,22,30,880,1,53298,1
1147,2,31881,30981,32561,33736,608,-3897,30,-2016,-127,-133,-51,139,443,-281,1,0,22,30,920,1,53298,1
1148,2,31848,30964,32543,33737,608,-3910,7,-2010,-145,-60,4,128,442,-288,1,0,22,30,960,1,53298,1
1149,1,31825,30896,32528,33738,144,-3724,27,-1408,-799,-88,287,126,442,-284,1,0,22,31,0,0,53298,1
1150,1,31895,30551,32028,33739,141,-3999,-4,-2447,-3890,1835,1236,133,447,-295,1,0,22,31,40,0,53298,1
1151,1,31258,30524,32033,33740,139,-4449,-258,-1233,-1290,3929,2087,126,442,-290,1,0,22,31,80,0,53298,1
1152,1,31322,30657,32103,33741,137,-3691,313,-2070,1805,3357,1535,123,437,-293,1,0,22,31,120,0,53298,1
1153,1,31870,31003,32908,33742,137,-3187,187,-2682,1451,3664,780,133,437,-299,1,0,22,31,160,0,53298,1
1154,1,32145,30975,32879,33743,138,-3199,498,-2522,616,2966,700,123,441,-297,1,0,22,31,200,0,53298,1
1155,1,32745,31143,32967,33744,140,-4127,58,-2272,684,2734,974,117,441,-319,1,0,22,31,240,0,53298,1
1156,1,35355,33862,39243,33745,143,-3573,164,-2505,1853,1684,629,122,436,-316,1,0,22,31,280,0,53298,1
1157,1,41735,33436,42151,33746,147,-3454,221,-2468,1620,810,582,112,438,-324,1,0,22,31,320,0,53298,1
1158,1,41923,35474,42513,33747,151,-3522,135,-2518,670,109,347,124,430,-320,1,0,22,31,360,0,53298,1
1159,1,42351,35807,42910,33748,156,-3678,249,-2350,646,-8,108,110,444,-314,1,0,22,31,400,0,53298,1
1160,1,39864,34703,40624,33749,161,-3581,176,-2539,995,-125,-182,117,443,-323,1,0,22,31,440,0,53298,1
1161,1,39156,36232,39729,33750,166,-3513,164,-2689,-176,-83,-335,120,440,-326,1,0,22,31,480,0,53298,1
1162,1,39179,34638,39793,33751,169,-3655,94,-2306,-486,-13,-47,117,447,-313,1,0,22,31,520,0,53298,1
1163,1,39007,34371,39602,33752,173,-3662,165,-2448,235,9,56,115,437,-321,1,0,22,31,560,0,53298,1
1164,1,38879,34178,39534,33753,177,-3592,119,-2405,-381,-103,-95,116,436,-322,1,0,22,31,600,0,53298,1
1165,1,39046,34281,39570,33754,179,-3654,106,-2409,-137,-42,52,125,437,-317,1,0,22,31,640,0,53298,1
1166,1,39163,34294,39743,33755,183,-3611,161,-2417,-10,-24,25,110,434,-320,1,0,22,31,680,0,53298,1
1167,1,38991,34220,39601,33756,186,-3622,107,-2419,-64,30,36,122,446,-318,1,0,22,31,720,0,53298,1
1168,1,38866,34083,39466,33757,189,-3585,151,-2448,50,62,65,125,439,-317,1,0,22,31,760,0,53298,1
1169,1,38833,34027,39501,33758,191,-3634,144,-2429,-83,27,39,120,436,-320,1,0,22,31,800,0,53298,1
1170,1,38884,34032,39490,33759,193,-3595,150,-2436,-423,-64,-26,112,444,-308,1,0,22,31,840,0,53298,1
1171,1,38886,34011,39458,33760,195,-3606,132,-2416,-356,-72,-14,118,438,-326,1,0,22,31,880,0,53298,1
1172,1,38865,34016,39345,33761,198,-3626,198,-2456,-292,-72,-12,107,435,-309,1,0,22,31,920,0,53298,1
1173,1,38731,34093,39324,33762,199,-3580,115,-2387,-459,-93,-70,121,441,-311,1,0,22,31,960,0,53298,1
1174,1,38639,33856,39234,33763,0,-3621,250,-2506,-360,-78,0,121,433,-317,1,0,22,32,0,1,53298,1
1175,2,38078,33804,38929,33764,39623,-3250,332,-2652,-1094,-571,-301,121,439,-313,1,0,22,32,40,1,53298,1
1176,2,31563,30709,32871,33765,39622,-3323,438,-2618,-2109,-2074,-880,127,437,-313,1,0,22,32,80,1,53298,1
1177,2,31370,30794,32287,33766,39619,-3300,320,-2499,-1847,-3711,-1585,126,442,-306,1,0,22,32,120,1,53298,1
1178,2,32799,30635,37091,33767,39616,-3799,17,-1971,2566,-2650,-1394,130,436,-298,1,0,22,32,160,1,53298,1
1179,2,31419,30644,32141,33768,39613,-4488,-411,-1760,6655,-2145,-223,124,436,-306,1,0,22,32,200,1,53298,1
1180,2,31425,30682,32075,33769,39610,-4148,-284,-1904,4046,-2251,-778,124,442,-302,1,0,22,32,240,1,53298,1
1181,2,31410,30713,32075,33770,39607,-3943,-112,-1998,-1180,-1122,-635,124,442,-302,1,0,22,32,280,1,53298,1
1182,2,31467,30715,32121,33771,39604,-3682,-6,-2140,-2097,137,-220,131,443,-301,1,0,22,32,320,1,53298,1
