sensorStatus,cap1,cap2,cap3,counter,microseconds_since_last_tick,accX,accY,accZ,gyroX,gyroY,gyroZ,magnetX,magnetY,magnetZ,day,hour,min,sec,msec,sync,battery_fuel,crc_good
1,32670,30719,33185,20964,37242,-4292,-295,-1404,-17,-6,40,168,598,-228,1,0,14,0,40,0,53298,1
2,32681,30694,33189,20965,37252,-4300,-301,-1418,-78,-89,76,168,596,-228,1,0,14,0,80,0,53298,1
2,32672,30699,33186,20966,37262,-4291,-279,-1413,-80,-138,43,167,593,-213,1,0,14,0,120,0,53298,1
2,32676,30706,33191,20967,37271,-4288,-265,-1391,-58,-143,-8,164,600,-212,1,0,14,0,160,0,53298,1
2,32676,30667,33197,20968,37282,-4308,-279,-1381,-42,-99,-42,168,600,-232,1,0,14,0,200,0,53298,1
2,32673,30662,33188,20969,37291,-4295,-290,-1370,-12,-44,-24,165,589,-231,1,0,14,0,240,0,53298,1
2,32667,30706,33186,20970,37301,-4289,-296,-1376,24,31,26,162,594,-228,1,0,14,0,280,0,53298,1
2,32678,30691,33189,20971,37310,-4286,-278,-1385,60,87,64,162,596,-220,1,0,14,0,320,0,53298,1
2,32660,30655,33161,20972,37320,-4290,-280,-1387,82,90,69,157,595,-223,1,0,14,0,360,0,53298,1
2,32670,30662,33175,20973,37328,-4285,-290,-1415,28,46,36,174,588,-224,1,0,14,0,400,0,53298,1
2,32674,30664,33185,20974,37338,-4294,-291,-1425,8,-8,-4,171,597,-225,1,0,14,0,440,0,53298,1
2,32674,30666,33185,20975,37348,-4294,-280,-1385,21,-59,-11,173,597,-219,1,0,14,0,480,0,53298,1
2,32660,30659,33170,20976,37358,-4307,-289,-1396,-14,-87,5,166,596,-214,1,0,14,0,520,0,53298,1
2,32670,30675,33178,20977,37368,-4297,-290,-1381,-22,-65,28,167,597,-221,1,0,14,0,560,0,53298,1
2,32651,30666,33163,20978,37377,-4307,-289,-1376,6,-34,54,177,595,-225,1,0,14,0,600,0,53298,1
2,32656,30651,33168,20979,37386,-4291,-284,-1398,-3,10,18,177,591,-225,1,0,14,0,640,0,53298,1
2,32660,30628,33173,20980,37396,-4295,-283,-1390,1,23,-42,170,598,-218,1,0,14,0,680,0,53298,1
2,32653,30615,33165,20981,37405,-4288,-300,-1388,5,-14,-67,171,605,-229,1,0,14,0,720,0,53298,1
2,32651,30610,33164,20982,37414,-4286,-307,-1409,-14,-39,-20,169,591,-229,1,0,14,0,760,0,53298,1
2,32653,30613,33166,20983,37424,-4298,-297,-1391,1,-55,63,168,590,-236,1,0,14,0,800,0,53298,1
2,32653,30624,33171,20984,37433,-4298,-288,-1377,29,-40,113,167,589,-227,1,0,14,0,840,0,53298,1
2,32666,30622,33180,20985,37442,-4288,-283,-1385,26,-14,117,165,593,-227,1,0,14,0,880,0,53298,1
2,32663,30633,33175,20986,37451,-4287,-267,-1390,45,9,80,166,598,-228,1,0,14,0,920,0,53298,1
2,32676,30629,33194,20987,37459,-4292,-272,-1379,38,41,35,169,593,-219,1,0,14,0,960,0,53298,1
1,32680,30633,33193,20988,0,-4312,-291,-1383,12,57,-9,171,587,-223,1,0,14,1,0,1,53298,1
2,32690,30625,33197,20989,36746,-4298,-290,-1396,-5,77,-27,166,594,-228,1,0,14,1,40,1,53298,1
2,32693,30645,33210,20990,36754,-4290,-287,-1405,21,61,-33,173,591,-225,1,0,14,1,80,1,53298,1
2,32700,30630,33209,20991,36762,-4292,-298,-1418,20,27,-56,163,597,-217,1,0,14,1,120,1,53298,1
2,32687,30622,33201,20992,36771,-4312,-295,-1403,-32,-33,-58,171,595,-221,1,0,14,1,160,1,53298,1
2,32687,30608,33198,20993,36780,-4294,-307,-1389,-88,-118,-22,168,594,-230,1,0,14,1,200,1,53298,1
2,32678,30616,33193,20994,36789,-4298,-304,-1392,-118,-151,44,165,597,-229,1,0,14,1,240,1,53298,1
2,32680,30607,33196,20995,36798,-4304,-296,-1383,-68,-119,107,163,599,-223,1,0,14,1,280,1,53298,1
2,32694,30611,33204,20996,36806,-4294,-289,-1381,-16,-61,114,162,592,-218,1,0,14,1,320,1,53298,1
2,32678,30608,33198,20997,36814,-4307,-288,-1383,13,3,90,170,600,-234,1,0,14,1,360,1,53298,1
2,32674,30578,33187,20998,36823,-4287,-274,-1401,49,40,43,172,592,-220,1,0,14,1,400,1,53298,1
2,32680,30588,33192,20999,36831,-4302,-284,-1383,67,48,12,160,594,-218,1,0,14,1,440,1,53298,1
2,32667,30580,33184,21000,36839,-4299,-291,-1383,24,18,36,170,588,-220,1,0,14,1,480,1,53298,1
2,32667,30587,33184,21001,36848,-4289,-291,-1402,-22,-15,64,171,587,-219,1,0,14,1,520,1,53298,1
2,32669,30598,33183,21002,36856,-4285,-282,-1394,-5,-38,77,166,598,-224,1,0,14,1,560,1,53298,1
2,32678,30593,33212,21003,36864,-4289,-274,-1396,-25,-61,51,165,603,-223,1,0,14,1,600,1,53298,1
2,32684,30581,33209,21004,36873,-4305,-295,-1400,-24,-70,0,171,599,-219,1,0,14,1,640,1,53298,1
2,32666,30577,33208,21005,36881,-4308,-285,-1369,21,-69,-11,158,584,-214,1,0,14,1,680,1,53298,1
2,32679,30582,33193,21006,36890,-4294,-275,-1371,31,-50,5,169,595,-225,1,0,14,1,720,1,53298,1
2,32686,30575,33211,21007,36899,-4301,-280,-1388,18,-5,10,166,594,-222,1,0,14,1,760,1,53298,1
2,32689,30571,33208,21008,36908,-4300,-288,-1395,8,31,17,174,600,-216,1,0,14,1,800,1,53298,1
2,32694,30567,33215,21009,36916,-4306,-285,-1396,22,26,29,166,598,-220,1,0,14,1,840,1,53298,1
2,32700,30556,33220,21010,36926,-4291,-277,-1396,16,4,24,171,597,-223,1,0,14,1,880,1,53298,1
2,32691,30560,33214,21011,36936,-4308,-285,-1385,-12,-15,1,170,600,-222,1,0,14,1,920,1,53298,1
2,32688,30534,33207,21012,36945,-4302,-283,-1390,-2,-33,19,166,596,-216,1,0,14,1,960,1,53298,1
1,32687,30541,33218,21013,0,-4294,-286,-1379,11,-24,15,171,603,-215,1,0,14,2,0,0,53298,1
2,32681,30530,33205,21014,36249,-4310,-277,-1376,28,-1,26,172,602,-226,1,0,14,2,40,0,53298,1
2,32680,30534,33203,21015,36258,-4282,-296,-1395,-33,-24,22,169,601,-227,1,0,14,2,80,0,53298,1
2,32680,30532,33203,21016,36266,-4273,-321,-1467,43,0,-43,177,599,-225,1,0,14,2,120,0,53298,1
2,32700,30540,33212,21017,36275,-4266,-229,-1579,235,-36,-265,168,600,-230,1,0,14,2,160,0,53298,1
2,32725,30537,33225,21018,36284,-4405,-208,-1333,521,-39,-439,165,593,-227,1,0,14,2,200,0,53298,1
2,32758,30546,33224,21019,36292,-4619,-336,-1303,385,-567,228,165,585,-217,1,0,14,2,240,0,53298,1
2,32800,30542,33215,21020,36301,-4251,-431,-2067,-597,-805,644,162,598,-220,1,0,14,2,280,0,53298,1
2,32939,30576,33242,21021,36311,-3977,-320,-1870,555,-531,1201,163,589,-235,1,0,14,2,320,0,53298,1
2,33185,32609,33207,21022,36321,-4017,-235,-1445,1894,56,1551,164,596,-230,1,0,14,2,360,0,53298,1
2,34293,34422,33233,21023,36330,-4155,1247,-356,1746,-5,2116,166,610,-228,1,0,14,2,400,0,53298,1
2,34353,34392,33210,21024,36339,-4530,472,-1034,-2494,-2407,3565,145,607,-231,1,0,14,2,440,0,53298,1
2,33569,33791,33233,21025,36348,-4780,-605,-1351,-6793,-635,3419,139,605,-219,1,0,14,2,480,0,53298,1
2,33425,33798,33258,21026,36357,-5379,-1295,-394,-5064,-540,1174,141,599,-219,1,0,14,2,520,0,53298,1
2,33671,33871,33196,21027,36366,-5018,-1757,-1176,-5513,-1083,-2442,148,596,-220,1,0,14,2,560,0,53298,1
2,35197,33771,33006,21028,36375,-4635,-975,-725,-77,-2929,-4765,163,593,-199,1,0,14,2,600,0,53298,1
2,35573,34276,33085,21029,36385,-3988,-25,-1306,1926,-3884,-5742,190,580,-212,1,0,14,2,640,0,53298,1
2,34375,35132,33199,21030,36394,-3516,528,-2093,2056,-2802,-5802,208,576,-200,1,0,14,2,680,0,53298,1
2,33891,30495,33175,21031,36404,-3598,1311,-2136,2658,-1019,-3969,218,570,-212,1,0,14,2,720,0,53298,1
2,34552,37328,33259,21032,36414,-4351,1774,-820,3072,286,-256,214,580,-206,1,0,14,2,760,0,53298,1
2,36263,30597,33208,21033,36424,-3547,1181,-1466,1023,30,3570,208,580,-206,1,0,14,2,800,0,53298,1
2,37041,30504,33196,21034,36434,-4071,636,-1634,-2856,1862,6444,182,580,-198,1,0,14,2,840,0,53298,1
2,35606,30620,33446,21035,36443,-4974,140,-1305,-2115,3544,8161,161,585,-215,1,0,14,2,880,0,53298,1
2,33570,30676,33502,21036,36452,-4990,-819,-931,-2353,4052,7521,136,584,-224,1,0,14,2,920,0,53298,1
2,33162,30822,33552,21037,36462,-5223,-1260,-522,-1750,3131,5590,111,589,-213,1,0,14,2,960,0,53298,1
1,33138,30728,33558,21038,0,-5133,-1516,-680,-1848,1455,2068,115,577,-241,1,0,14,3,0,0,53298,1
2,33526,30717,33517,21039,35754,-4898,-1120,-686,-633,-293,-1404,122,588,-222,1,0,14,3,40,0,53298,1
2,35410,30755,33477,21040,35763,-4604,-390,-376,1145,-1991,-3930,132,588,-210,1,0,14,3,80,0,53298,1
2,37774,31187,33687,21041,35773,-4559,-626,-1360,2757,-3580,-4608,145,585,-219,1,0,14,3,120,0,53298,1
2,36425,31261,33700,21042,35784,-4508,-621,-1820,1371,-2485,-5685,153,591,-201,1,0,14,3,160,0,53298,1
2,35717,31214,33689,21043,35793,-4133,378,-1601,2357,-1315,-5733,180,584,-210,1,0,14,3,200,0,53298,1
2,35074,31190,33701,21044,35804,-4102,1185,-1333,2962,-922,-3972,194,594,-214,1,0,14,3,240,0,53298,1
2,35415,31043,33723,21045,35814,-4316,1278,-1108,2784,-1042,-1028,195,599,-213,1,0,14,3,280,0,53298,1
2,36472,31300,33743,21046,35825,-4121,890,-1349,12,-624,1216,197,597,-205,1,0,14,3,320,0,53298,1
2,37768,31003,33706,21047,35835,-4401,883,-1302,-2130,735,2983,190,598,-204,1,0,14,3,360,0,53298,1
2,36914,30877,33701,21048,35846,-4062,296,-2029,-1259,1759,4822,161,599,-207,1,0,14,3,400,0,53298,1
2,35142,30878,33724,21049,35855,-4335,152,-1246,1397,3071,6116,149,601,-221,1,0,14,3,440,0,53298,1
2,33621,30897,33701,21050,35864,-4867,-290,-822,-644,3323,5781,126,598,-216,1,0,14,3,480,0,53298,1
2,33262,30926,33705,21051,35874,-4984,-817,-824,-2703,2847,4126,114,586,-224,1,0,14,3,520,0,53298,1
2,33233,30935,33714,21052,35883,-4785,-1096,-756,-2625,1588,1740,117,587,-227,1,0,14,3,560,0,53298,1
2,33367,30932,33722,21053,35893,-4568,-948,-829,-1034,175,-585,105,585,-223,1,0,14,3,600,0,53298,1
2,33934,30957,33726,21054,35903,-4478,-700,-865,630,-1013,-2600,127,603,-229,1,0,14,3,640,0,53298,1
2,36622,30969,33725,21055,35912,-4356,216,-418,1112,-2097,-4049,128,588,-218,1,0,14,3,680,0,53298,1
2,36931,31085,33717,21056,35922,-4038,144,-1241,677,-2762,-4439,148,590,-224,1,0,14,3,720,0,53298,1
2,35758,31100,33667,21057,35933,-4188,-105,-1594,-66,-2315,-5109,168,586,-222,1,0,14,3,760,0,53298,1
2,34841,31062,33661,21058,35942,-4219,136,-1597,430,-1559,-5179,192,596,-212,1,0,14,3,800,0,53298,1
2,34431,31081,33660,21059,35952,-4229,648,-1253,2355,-1320,-3883,196,598,-214,1,0,14,3,840,0,53298,1
2,34265,31040,33598,21060,35963,-4278,881,-1084,2294,-1158,-1883,206,600,-210,1,0,14,3,880,0,53298,1
2,34535,31051,33628,21061,35973,-4379,513,-1090,-911,-384,-302,189,601,-203,1,0,14,3,920,0,53298,1
2,35268,31033,33665,21062,35984,-4389,287,-1150,-2322,107,1118,200,596,-202,1,0,14,3,960,0,53298,1
1,37285,30982,33688,21063,0,-4218,264,-1445,-1808,297,2687,189,589,-209,1,0,14,4,0,1,53298,1
2,37269,30902,33676,21064,35259,-3753,-85,-1735,-1306,1006,3846,178,592,-210,1,0,14,4,40,1,53298,1
2,35637,30875,33682,21065,35269,-4173,-17,-1175,527,1955,4789,166,596,-214,1,0,14,4,80,1,53298,1
2,33899,30865,33665,21066,35279,-4366,-201,-1108,230,2237,4792,150,598,-220,1,0,14,4,120,1,53298,1
2,33409,30879,33684,21067,35287,-4517,-360,-938,348,2044,4260,137,599,-215,1,0,14,4,160,1,53298,1
2,33249,30907,33681,21068,35296,-4545,-549,-1011,403,1598,3103,111,597,-223,1,0,14,4,200,1,53298,1
2,33327,30984,33678,21069,35305,-4511,-457,-1123,742,890,1617,125,597,-221,1,0,14,4,240,1,53298,1
2,33625,31007,33694,21070,35314,-4563,-482,-997,1013,107,124,117,593,-223,1,0,14,4,280,1,53298,1
2,35493,31076,33705,21071,35323,-4583,-370,-859,308,-519,-1481,126,596,-230,1,0,14,4,320,1,53298,1
2,38813,32101,33930,21072,35332,-4648,-239,-972,1035,-1992,-2000,138,602,-222,1,0,14,4,360,1,53298,1
2,37893,32289,34700,21073,35341,-4373,-1099,-1659,-644,-1781,-2659,147,593,-205,1,0,14,4,400,1,53298,1
2,36326,32773,34638,21074,35350,-4216,-433,-1455,-767,-1163,-3798,151,597,-205,1,0,14,4,440,1,53298,1
2,35535,32493,34486,21075,35359,-4210,58,-1578,-89,-516,-4270,158,590,-224,1,0,14,4,480,1,53298,1
2,35233,32247,34446,21076,35368,-4067,1038,-1306,3361,-707,-2695,171,603,-217,1,0,14,4,520,1,53298,1
2,35449,32298,34420,21077,35376,-4114,1403,-932,4013,-817,141,174,596,-212,1,0,14,4,560,1,53298,1
2,36207,32503,34415,21078,35385,-3975,899,-1306,-953,170,2145,164,594,-214,1,0,14,4,600,1,53298,1
2,37967,32377,34401,21079,35395,-3845,641,-1539,-2983,1182,3754,157,589,-213,1,0,14,4,640,1,53298,1
2,37428,32328,34336,21080,35405,-3940,182,-1922,-2184,2100,5296,130,600,-210,1,0,14,4,680,1,53298,1
2,35846,32164,34325,21081,35414,-4416,-26,-1311,620,2835,6061,114,594,-216,1,0,14,4,720,1,53298,1
2,34445,32147,34344,21082,35422,-4850,-431,-699,-455,2456,5015,109,593,-221,1,0,14,4,760,1,53298,1
2,34083,32070,34345,21083,35431,-4900,-800,-712,-2211,1471,3013,97,579,-227,1,0,14,4,800,1,53298,1
2,34028,32043,34304,21084,35440,-4721,-1035,-902,-2537,36,297,94,586,-222,1,0,14,4,840,1,53298,1
2,34421,32033,34281,21085,35449,-4568,-729,-896,-438,-1176,-2014,104,586,-226,1,0,14,4,880,1,53298,1
2,35517,32049,34177,21086,35458,-4488,-560,-917,1001,-2107,-3921,119,585,-219,1,0,14,4,920,1,53298,1
2,38110,32107,34179,21087,35468,-4426,-160,-1047,1269,-2862,-5270,126,582,-202,1,0,14,4,960,1,53298,1
1,36687,32090,34197,21088,0,-4308,-336,-1914,1000,-2415,-5633,149,595,-213,1,0,14,5,0,1,53298,1
2,35702,32011,34207,21089,34762,-3978,655,-1897,2056,-1422,-5092,158,598,-202,1,0,14,5,40,1,53298,1
2,35341,32049,34210,21090,34772,-3941,1343,-1703,2737,-462,-3061,171,593,-211,1,0,14,5,80,1,53298,1
2,35643,32035,34199,21091,34781,-4112,1594,-1210,3551,-71,363,158,598,-208,1,0,14,5,120,1,53298,1
2,36865,32028,34256,21092,34789,-4276,1290,-1348,183,769,2973,159,605,-213,1,0,14,5,160,1,53298,1
2,38391,32249,34249,21093,34798,-4605,1085,-1469,-3146,2357,4681,137,597,-213,1,0,14,5,200,1,53298,1
2,37085,31960,34227,21094,34807,-4547,451,-1947,-1798,3467,6643,121,597,-219,1,0,14,5,240,1,53298,1
2,34526,31800,34189,21095,34816,-4772,122,-568,274,3957,7176,96,590,-228,1,0,14,5,280,1,53298,1
2,33781,31742,34193,21096,34826,-4854,-635,-791,-2018,3596,5974,86,586,-236,1,0,14,5,320,1,53298,1
2,33630,31685,34220,21097,34835,-4851,-1090,-697,-3190,2053,3193,71,583,-239,1,0,14,5,360,1,53298,1
2,33676,31703,34231,21098,34844,-4648,-1205,-841,-3238,314,-162,75,581,-233,1,0,14,5,400,1,53298,1
2,33947,31738,34253,21099,34853,-4608,-903,-812,-203,-1766,-2761,83,581,-235,1,0,14,5,440,1,53298,1
2,34966,31687,34282,21100,34863,-4542,-668,-994,1097,-2907,-5201,107,583,-233,1,0,14,5,480,1,53298,1
2,38444,31738,34319,21101,34873,-4532,2,-642,2147,-3938,-6783,114,594,-208,1,0,14,5,520,1,53298,1
2,36245,31861,34296,21102,34882,-4717,-1078,-2036,-126,-3619,-7526,152,594,-212,1,0,14,5,560,1,53298,1
2,34735,31801,34278,21103,34892,-4245,127,-2070,608,-2838,-7924,179,599,-209,1,0,14,5,600,1,53298,1
2,34426,32015,34275,21104,34902,-4084,878,-1954,1552,-1684,-6699,174,596,-206,1,0,14,5,640,1,53298,1
2,34532,31842,34291,21105,34911,-4006,1758,-1121,4167,-1328,-3307,194,604,-212,1,0,14,5,680,1,53298,1
2,35034,31726,34302,21106,34921,-4014,1395,-1142,3305,-1028,577,204,602,-210,1,0,14,5,720,1,53298,1
2,36080,32846,34293,21107,34930,-4011,1035,-1395,-1215,741,3025,190,602,-184,1,0,14,5,760,1,53298,1
2,36838,34126,34227,21108,34940,-4163,425,-1765,-3682,2566,4884,164,606,-202,1,0,14,5,800,1,53298,1
2,35335,35159,34226,21109,34951,-4588,-483,-1340,-2779,3681,6209,154,602,-206,1,0,14,5,840,1,53298,1
2,34172,35493,34249,21110,34961,-4623,-94,-1031,1243,3064,6760,123,601,-215,1,0,14,5,880,1,53298,1
2,33722,35357,34220,21111,34971,-4581,-308,-1120,-431,2596,5829,119,603,-225,1,0,14,5,920,1,53298,1
2,33554,35284,34210,21112,34981,-4523,-463,-993,-1449,2512,4351,98,598,-232,1,0,14,5,960,1,53298,1
1,33550,35616,34210,21113,0,-4703,-733,-730,-2117,1993,2324,93,595,-243,1,0,14,6,0,0,53298,1
2,33629,35611,34223,21114,34269,-4631,-634,-837,-1779,845,72,93,585,-239,1,0,14,6,40,0,53298,1
2,33838,35777,34222,21115,34280,-4631,-693,-805,69,-751,-1939,83,587,-229,1,0,14,6,80,0,53298,1
2,34516,36001,34257,21116,34290,-4563,-564,-942,-505,-1805,-4275,115,593,-237,1,0,14,6,120,0,53298,1
2,36488,36070,34281,21117,34299,-4302,-23,-860,-10,-2617,-5733,131,597,-219,1,0,14,6,160,0,53298,1
2,36135,36155,34276,21118,34309,-4188,-141,-1375,618,-3157,-5996,148,594,-220,1,0,14,6,200,0,53298,1
2,35437,36178,34287,21119,34319,-4155,9,-1750,640,-2483,-6094,169,597,-211,1,0,14,6,240,0,53298,1
2,34956,35789,34275,21120,34328,-4117,688,-1671,2487,-1903,-5167,186,600,-214,1,0,14,6,280,0,53298,1
2,34897,35618,34264,21121,34338,-4024,1420,-1474,4583,-1515,-2628,195,601,-215,1,0,14,6,320,0,53298,1
2,35456,35487,34268,21122,34348,-4198,1410,-1119,3668,-950,577,192,600,-214,1,0,14,6,360,0,53298,1
2,36474,35295,34273,21123,34359,-4033,1052,-1507,-440,196,3031,177,601,-209,1,0,14,6,400,0,53298,1
2,37204,35017,34278,21124,34369,-3948,677,-1848,-1793,1794,5214,164,602,-216,1,0,14,6,440,0,53298,1
2,35553,34495,34247,21125,34379,-4173,259,-1832,-634,3468,6951,133,595,-217,1,0,14,6,480,0,53298,1
2,34214,34707,34270,21126,34390,-4694,52,-836,588,3989,7603,113,601,-223,1,0,14,6,520,0,53298,1
2,33660,34864,34204,21127,34400,-4820,-389,-952,-986,3532,6859,94,580,-236,1,0,14,6,560,0,53298,1
2,33500,34643,34193,21128,34411,-4820,-776,-741,-2275,2493,4721,85,587,-229,1,0,14,6,600,0,53298,1
2,33460,34315,34169,21129,34422,-4825,-1094,-581,-2878,1225,1791,77,585,-237,1,0,14,6,640,0,53298,1
2,33547,34285,34179,21130,34432,-4766,-1012,-636,-1714,-674,-1157,82,582,-236,1,0,14,6,680,0,53298,1
2,33804,34489,34229,21131,34443,-4666,-992,-787,-376,-2314,-4006,96,594,-234,1,0,14,6,720,0,53298,1
2,34527,34306,34232,21132,34454,-4554,-747,-1001,-3,-3288,-6738,115,597,-219,1,0,14,6,760,0,53298,1
2,36446,34253,34234,21133,34464,-4428,-41,-981,1327,-3925,-8203,132,586,-212,1,0,14,6,800,0,53298,1
2,35824,34300,34243,21134,34476,-4246,421,-1576,2292,-4221,-8053,167,601,-207,1,0,14,6,840,0,53298,1
2,35064,34552,34254,21135,34486,-4087,1021,-2014,1899,-3125,-6933,183,591,-203,1,0,14,6,880,0,53298,1
2,34996,34595,34243,21136,34497,-4019,1590,-1823,2079,-1694,-4182,196,594,-194,1,0,14,6,920,0,53298,1
2,35611,34667,34257,21137,34507,-4214,1421,-965,1624,-848,-256,201,591,-185,1,0,14,6,960,0,53298,1
1,36459,34531,34233,21138,0,-3989,946,-1739,-552,61,3091,183,593,-195,1,0,14,7,0,0,53298,1
2,36399,34257,34237,21139,33773,-4071,595,-1741,-1355,1824,5334,171,591,-189,1,0,14,7,40,0,53298,1
2,35252,34096,34220,21140,33784,-4398,58,-1190,-1513,3364,6600,156,592,-202,1,0,14,7,80,0,53298,1
2,34069,33931,34210,21141,33795,-4585,-131,-1082,-783,3646,7172,128,586,-210,1,0,14,7,120,0,53298,1
2,33731,34170,34212,21142,33805,-4707,-334,-792,-671,3248,6682,108,586,-218,1,0,14,7,160,0,53298,1
2,33603,34044,34195,21143,33815,-4853,-790,-840,-1995,2567,4864,101,579,-221,1,0,14,7,200,0,53298,1
2,33616,33986,34204,21144,33825,-4787,-1088,-742,-2409,1460,2055,94,580,-228,1,0,14,7,240,0,53298,1
2,33743,34028,34205,21145,33836,-4734,-1031,-634,-734,-88,-791,86,584,-222,1,0,14,7,280,0,53298,1
2,34353,33872,34208,21146,33847,-4600,-872,-725,547,-1366,-3572,104,574,-216,1,0,14,7,320,0,53298,1
2,35517,33950,34234,21147,33857,-4432,-302,-773,1952,-2457,-5621,123,587,-219,1,0,14,7,360,0,53298,1
2,36173,34061,34225,21148,33868,-4229,253,-951,2405,-3094,-6341,140,588,-216,1,0,14,7,400,0,53298,1
2,35416,34422,34209,21149,33879,-4100,506,-1619,1140,-2811,-6047,160,594,-198,1,0,14,7,440,0,53298,1
2,35149,36510,34220,21150,33890,-3960,1005,-1802,1567,-2099,-4455,169,583,-209,1,0,14,7,480,0,53298,1
2,35377,36899,34236,21151,33901,-3984,1408,-1603,1840,-1163,-1689,179,595,-191,1,0,14,7,520,0,53298,1
2,36330,36969,34217,21152,33911,-4119,1166,-1305,1242,-714,1370,172,582,-204,1,0,14,7,560,0,53298,1
2,37003,36665,34139,21153,33920,-4074,743,-1830,-827,452,3627,161,595,-193,1,0,14,7,600,0,53298,1
2,36955,36644,34104,21154,33930,-4078,416,-1756,-937,2039,5090,153,589,-201,1,0,14,7,640,0,53298,1
2,35383,36580,34099,21155,33940,-4636,-40,-891,-355,2991,5982,126,590,-212,1,0,14,7,680,0,53298,1
2,34414,36514,34068,21156,33950,-4775,-301,-864,113,2640,5859,110,594,-214,1,0,14,7,720,0,53298,1
2,33975,36446,34021,21157,33960,-4859,-566,-662,-790,1895,4198,108,584,-212,1,0,14,7,760,0,53298,1
2,34036,36406,33976,21158,33970,-4705,-699,-748,-1880,881,1831,95,581,-219,1,0,14,7,800,0,53298,1
2,34504,36478,34037,21159,33980,-4598,-543,-637,-236,-683,33,91,577,-227,1,0,14,7,840,0,53298,1
2,35819,36508,34027,21160,33991,-4572,-483,-628,499,-2008,-1709,102,580,-220,1,0,14,7,880,0,53298,1
2,37071,36633,34015,21161,34001,-4508,-389,-769,551,-2997,-3432,117,581,-209,1,0,14,7,920,0,53298,1
2,36830,36873,34087,21162,34011,-4345,-476,-1146,-143,-2770,-5146,127,591,-201,1,0,14,7,960,0,53298,1
1,35823,37230,34112,21163,0,-4274,-158,-1152,677,-2365,-6186,145,587,-203,1,0,14,8,0,1,53298,1
2,35075,37358,34072,21164,33279,-4269,352,-1349,1591,-2188,-6007,156,594,-200,1,0,14,8,40,1,53298,1
2,34844,37365,34071,21165,33289,-4076,1023,-1355,2474,-1938,-4527,178,590,-184,1,0,14,8,80,1,53298,1
2,35042,36942,34046,21166,33299,-4107,1310,-1019,2686,-1505,-1796,183,589,-191,1,0,14,8,120,1,53298,1
2,35503,36933,34065,21167,33309,-3958,1030,-1303,-512,-719,557,183,587,-185,1,0,14,8,160,1,53298,1
2,36820,36873,34094,21168,33318,-3920,822,-1593,-2385,468,2648,167,587,-185,1,0,14,8,200,1,53298,1
2,37269,36522,34105,21169,33328,-4087,579,-1688,-2267,1910,4671,164,584,-180,1,0,14,8,240,1,53298,1
2,36296,36370,34070,21170,33337,-4419,300,-1671,-707,3241,6271,138,580,-196,1,0,14,8,280,1,53298,1
2,34611,36292,34060,21171,33347,-4789,-66,-741,645,3595,6650,110,588,-200,1,0,14,8,320,1,53298,1
2,33910,36206,34062,21172,33356,-4740,-219,-685,-528,3289,5772,101,583,-211,1,0,14,8,360,1,53298,1
2,33632,36183,34022,21173,33365,-4756,-607,-597,-2702,2502,3935,88,586,-204,1,0,14,8,400,1,53298,1
2,33650,36195,34017,21174,33373,-4809,-984,-635,-3356,1400,1576,85,583,-213,1,0,14,8,440,1,53298,1
2,33838,36194,33995,21175,33383,-4823,-933,-565,-1219,-324,-773,96,576,-208,1,0,14,8,480,1,53298,1
2,34694,36261,34022,21176,33392,-4746,-939,-757,247,-1855,-3289,94,580,-202,1,0,14,8,520,1,53298,1
2,36317,36342,34043,21177,33402,-4561,-373,-635,965,-2932,-5625,114,590,-192,1,0,14,8,560,1,53298,1
2,36380,36458,34063,21178,33411,-4242,-2,-1043,953,-3497,-6721,146,580,-186,1,0,14,8,600,1,53298,1
2,35315,36661,34108,21179,33420,-4114,248,-1470,591,-2971,-6916,164,572,-178,1,0,14,8,640,1,53298,1
2,34863,36839,34093,21180,33429,-4082,703,-1545,1423,-2135,-5950,171,587,-195,1,0,14,8,680,1,53298,1
2,34831,36946,34092,21181,33438,-4091,1216,-1364,2701,-1391,-3695,187,591,-185,1,0,14,8,720,1,53298,1
2,35124,36961,34085,21182,33448,-4160,1331,-1062,3043,-876,-564,185,593,-183,1,0,14,8,760,1,53298,1
2,35862,36787,34070,21183,33457,-4099,1030,-1316,100,143,1935,165,591,-173,1,0,14,8,800,1,53298,1
2,37021,36602,34087,21184,33466,-4117,725,-1520,-1908,1465,3841,165,595,-181,1,0,14,8,840,1,53298,1
2,36690,36393,34081,21185,33475,-4216,287,-1737,-1813,2822,5310,150,596,-192,1,0,14,8,880,1,53298,1
2,35333,36342,34107,21186,33485,-4451,72,-1362,-61,3920,6293,127,593,-187,1,0,14,8,920,1,53298,1
2,34018,36335,34090,21187,33495,-4610,-163,-978,632,4098,6320,118,592,-210,1,0,14,8,960,1,53298,1
1,33644,36360,34103,21188,0,-4638,-325,-759,-377,3952,5319,99,599,-211,1,0,14,9,0,0,53298,1
2,33530,36358,34101,21189,32785,-4714,-861,-809,-2384,3521,3205,85,599,-225,1,0,14,9,40,0,53298,1
2,33540,36332,34104,21190,32793,-4807,-955,-730,-1738,2322,735,86,598,-222,1,0,14,9,80,0,53298,1
2,33698,36361,34100,21191,32803,-4747,-696,-607,892,439,-1361,96,596,-238,1,0,14,9,120,0,53298,1
2,34481,36356,34107,21192,32812,-4657,-540,-767,1384,-1030,-3550,98,594,-226,1,0,14,9,160,0,53298,1
2,36376,36497,34138,21193,32821,-4467,238,-435,1034,-2279,-5292,120,592,-234,1,0,14,9,200,0,53298,1
2,36800,36568,34124,21194,32831,-4295,-172,-1319,-230,-3076,-5903,141,605,-205,1,0,14,9,240,0,53298,1
2,35785,36692,34134,21195,32841,-4167,-108,-1684,-208,-2794,-6516,168,592,-224,1,0,14,9,280,0,53298,1
2,35286,37006,34139,21196,32850,-4160,256,-1713,387,-1930,-6470,181,613,-209,1,0,14,9,320,0,53298,1
2,34967,37105,34136,21197,32859,-4124,801,-1479,2308,-1548,-4825,200,606,-212,1,0,14,9,360,0,53298,1
2,34952,37148,34175,21198,32868,-4124,1220,-1287,4106,-1485,-1878,197,605,-213,1,0,14,9,400,0,53298,1
2,35272,37306,34199,21199,32878,-4181,875,-1150,1529,-541,561,196,604,-204,1,0,14,9,440,0,53298,1
2,35988,37160,34195,21200,32887,-4091,517,-1363,-1021,619,2428,182,610,-200,1,0,14,9,480,0,53298,1
2,36641,36865,34187,21201,32896,-4331,-105,-1388,-742,1283,3961,157,611,-207,1,0,14,9,520,0,53298,1
2,36888,36679,34182,21202,32905,-4489,-507,-1399,158,1783,4292,155,609,-211,1,0,14,9,560,0,53298,1
2,36200,36596,34184,21203,32913,-4474,-403,-1177,932,2069,3610,150,608,-220,1,0,14,9,600,0,53298,1
2,35306,36535,34189,21204,32922,-4534,-335,-861,363,2154,2660,146,616,-214,1,0,14,9,640,0,53298,1
2,34655,36500,34181,21205,32930,-4536,-473,-818,-503,1694,1741,128,616,-224,1,0,14,9,680,0,53298,1
2,34398,36483,34188,21206,32938,-4813,-755,-670,-1448,970,366,123,615,-219,1,0,14,9,720,0,53298,1
2,34588,36461,34185,21207,32947,-4517,-133,-1138,-3789,387,-1380,129,613,-221,1,0,14,9,760,0,53298,1
2,35241,36484,34177,21208,32955,-4450,-292,-1206,-3972,-39,-2237,148,608,-232,1,0,14,9,800,0,53298,1
2,35881,36530,34183,21209,32964,-4439,-243,-968,-3081,-648,-2790,154,610,-226,1,0,14,9,840,0,53298,1
2,35815,36629,34187,21210,32973,-4340,-450,-1158,-1811,-1365,-3087,159,599,-217,1,0,14,9,880,0,53298,1
2,35345,36717,34190,21211,32981,-4217,-341,-1406,-16,-1467,-3423,172,608,-218,1,0,14,9,920,0,53298,1
2,35018,36844,34190,21212,32988,-4116,73,-1505,1041,-1062,-3420,187,603,-217,1,0,14,9,960,0,53298,1
1,34829,36947,34190,21213,0,-4045,563,-1538,2060,-693,-2326,197,603,-215,1,0,14,10,0,1,53298,1
2,34953,37009,34181,21214,32290,-4027,936,-1422,3346,-254,-111,189,619,-213,1,0,14,10,40,1,53298,1
2,35386,36999,34182,21215,32298,-4184,722,-1155,2384,431,1999,186,616,-222,1,0,14,10,80,1,53298,1
2,36062,36804,34191,21216,32307,-4193,541,-1406,308,1274,3566,176,614,-224,1,0,14,10,120,1,53298,1
2,36425,36564,34175,21217,32316,-4254,246,-1525,-395,2097,4630,167,621,-219,1,0,14,10,160,1,53298,1
2,36000,36477,34175,21218,32325,-4305,-13,-1704,-477,2830,5193,142,618,-226,1,0,14,10,200,1,53298,1
2,34644,36370,34150,21219,32334,-4519,-72,-1069,74,3138,5259,121,623,-237,1,0,14,10,240,1,53298,1
2,33937,36321,34140,21220,32344,-4627,-396,-884,-721,2600,4594,97,611,-243,1,0,14,10,280,1,53298,1
2,33669,36279,34111,21221,32353,-4728,-753,-821,-1837,1784,2946,99,603,-243,1,0,14,10,320,1,53298,1
2,33652,36290,34118,21222,32362,-4696,-1039,-775,-2494,724,450,102,606,-250,1,0,14,10,360,1,53298,1
2,33799,36291,34106,21223,32370,-4552,-747,-836,-1294,-585,-1887,108,606,-248,1,0,14,10,400,1,53298,1
2,34544,36330,34123,21224,32379,-4554,-641,-963,-293,-1833,-3786,128,610,-240,1,0,14,10,440,1,53298,1
2,35949,36398,34117,21225,32387,-4484,-175,-939,-481,-2659,-5465,142,614,-236,1,0,14,10,480,1,53298,1
2,36101,36520,34132,21226,32395,-4352,-5,-1332,-228,-3294,-6032,157,611,-221,1,0,14,10,520,1,53298,1
2,35248,36660,34133,21227,32404,-4187,-49,-1853,-132,-2764,-6238,180,608,-220,1,0,14,10,560,1,53298,1
2,34887,36846,34152,21228,32412,-4043,474,-1811,1184,-1797,-5621,199,617,-231,1,0,14,10,600,1,53298,1
2,34690,36890,34154,21229,32421,-3957,1110,-1479,3571,-1384,-3195,209,613,-221,1,0,14,10,640,1,53298,1
2,34910,36921,34152,21230,32429,-3984,1169,-1432,3482,-706,-46,211,619,-219,1,0,14,10,680,1,53298,1
2,35415,36877,34139,21231,32437,-4097,781,-1214,973,370,2352,203,615,-217,1,0,14,10,720,1,53298,1
2,36000,36684,34127,21232,32445,-4296,298,-1443,-1149,1378,4059,184,620,-214,1,0,14,10,760,1,53298,1
2,36458,36463,34100,21233,32453,-4355,-161,-1617,-1844,2188,4799,166,614,-228,1,0,14,10,800,1,53298,1
2,36048,36335,34090,21234,32461,-4381,-370,-1601,-865,2652,5000,141,617,-235,1,0,14,10,840,1,53298,1
2,34727,36280,34103,21235,32469,-4477,-301,-992,669,2641,4742,133,615,-239,1,0,14,10,880,1,53298,1
2,33973,35992,34068,21236,32478,-4459,-462,-972,1081,2393,4009,126,620,-244,1,0,14,10,920,1,53298,1
2,33627,33057,34014,21237,32487,-4522,-556,-828,903,2030,2433,115,625,-235,1,0,14,10,960,1,53298,1
1,33546,35221,34017,21238,0,-4683,-728,-663,109,1206,483,115,615,-251,1,0,14,11,0,1,53298,1
2,33610,33914,34027,21239,31796,-4630,-327,-1181,-986,-80,-1033,122,618,-250,1,0,14,11,40,1,53298,1
2,33809,33896,34004,21240,31804,-4460,-97,-1353,-641,-964,-2180,119,619,-239,1,0,14,11,80,1,53298,1
2,34602,34079,34011,21241,31812,-4548,-451,-1220,-1222,-1154,-3205,137,619,-241,1,0,14,11,120,1,53298,1
2,36162,34073,34008,21242,31821,-4432,-107,-697,-2016,-1574,-4389,154,620,-228,1,0,14,11,160,1,53298,1
2,35718,34166,34006,21243,31829,-4337,-444,-1254,-1346,-2579,-4402,161,613,-231,1,0,14,11,200,1,53298,1
2,34979,33913,33977,21244,31838,-4241,-379,-1584,-390,-2340,-4780,176,612,-238,1,0,14,11,240,1,53298,1
2,34480,33935,33994,21245,31846,-4174,-30,-1754,437,-1490,-4994,200,614,-236,1,0,14,11,280,1,53298,1
2,34103,33865,33981,21246,31856,-4093,922,-1693,1664,-772,-3813,214,622,-222,1,0,14,11,320,1,53298,1
2,34081,33853,33983,21247,31865,-3985,1329,-1565,2790,-381,-767,205,613,-223,1,0,14,11,360,1,53298,1
2,34302,33901,33939,21248,31874,-4139,703,-1181,2332,334,2106,200,622,-212,1,0,14,11,400,1,53298,1
2,34911,33844,33952,21249,31883,-4093,686,-1266,301,1039,3953,188,618,-234,1,0,14,11,440,1,53298,1
2,35530,33756,33951,21250,31892,-4245,374,-1427,-1598,1861,5387,168,610,-232,1,0,14,11,480,1,53298,1
2,35567,33590,33946,21251,31901,-4372,-32,-1757,-2364,2593,6189,147,617,-239,1,0,14,11,520,1,53298,1
2,34732,33542,33935,21252,31911,-4452,-289,-1595,-1553,3339,6261,130,610,-248,1,0,14,11,560,1,53298,1
2,33915,33564,33911,21253,31920,-4771,-562,-803,-1582,3217,5342,117,617,-239,1,0,14,11,600,1,53298,1
2,33468,33470,33877,21254,31929,-4749,-1090,-843,-2687,2107,3359,108,604,-250,1,0,14,11,640,1,53298,1
2,33445,33432,33878,21255,31939,-4697,-1262,-681,-2134,415,605,109,603,-261,1,0,14,11,680,1,53298,1
2,33606,33465,33880,21256,31948,-4423,-893,-879,-986,-1119,-2130,109,605,-245,1,0,14,11,720,1,53298,1
2,34319,33491,33888,21257,31959,-4464,-578,-1007,753,-2365,-4067,130,606,-244,1,0,14,11,760,1,53298,1
2,35484,33538,33893,21258,31969,-4444,-180,-1132,1313,-3007,-5455,140,606,-232,1,0,14,11,800,1,53298,1
2,35646,33598,33895,21259,31978,-4343,173,-1540,1205,-3241,-6037,165,609,-227,1,0,14,11,840,1,53298,1
2,34973,33735,33906,21260,31987,-4199,467,-2030,1150,-2590,-5687,182,610,-222,1,0,14,11,880,1,53298,1
2,34750,33798,33905,21261,31997,-4001,978,-1796,2016,-1581,-4222,196,602,-222,1,0,14,11,920,1,53298,1
2,34910,33798,33938,21262,32008,-4018,1325,-1449,2421,-939,-1408,204,608,-218,1,0,14,11,960,1,53298,1
1,35319,33693,33936,21263,0,-4118,947,-1153,1604,-408,1673,193,615,-223,1,0,14,12,0,0,53298,1
2,35780,33611,33928,21264,31304,-4085,574,-1533,-1055,787,3598,171,613,-215,1,0,14,12,40,0,53298,1
2,35875,33525,33920,21265,31314,-4169,297,-1621,-1610,2067,4922,156,610,-224,1,0,14,12,80,0,53298,1
2,35117,33464,33912,21266,31324,-4208,84,-1766,-917,3167,5861,143,613,-239,1,0,14,12,120,0,53298,1
2,33965,33430,33907,21267,31334,-4417,50,-1252,534,3536,6283,124,606,-232,1,0,14,12,160,0,53298,1
2,33486,33391,33896,21268,31343,-4521,-206,-1158,309,3342,5894,112,608,-246,1,0,14,12,200,0,53298,1
2,33327,33414,33895,21269,31353,-4506,-512,-1063,238,2777,4648,95,601,-251,1,0,14,12,240,0,53298,1
2,33296,33349,33896,21270,31362,-4550,-718,-844,-191,1909,2645,81,607,-255,1,0,14,12,280,0,53298,1
2,33380,33335,33910,21271,31372,-4651,-734,-857,-328,635,292,93,599,-269,1,0,14,12,320,0,53298,1
2,33687,33367,33908,21272,31382,-4748,-629,-775,-545,-885,-2203,97,601,-257,1,0,14,12,360,0,53298,1
2,35375,33414,33920,21273,31392,-4641,-152,-600,-1171,-2386,-4480,109,609,-249,1,0,14,12,400,0,53298,1
2,36222,33428,33911,21274,31403,-4468,-421,-1233,-969,-3638,-5551,129,603,-229,1,0,14,12,440,0,53298,1
2,35295,33464,33908,21275,31413,-4325,-381,-1632,-21,-3681,-6469,154,618,-232,1,0,14,12,480,0,53298,1
2,34293,33544,33917,21276,31424,-4266,132,-1969,-292,-2826,-7227,170,602,-228,1,0,14,12,520,0,53298,1
2,33831,33513,33913,21277,31434,-4022,681,-1970,1523,-1891,-6316,198,616,-226,1,0,14,12,560,0,53298,1
2,33665,33496,33929,21278,31445,-3917,1145,-1732,3622,-1003,-3911,196,618,-218,1,0,14,12,600,0,53298,1
2,33773,33552,33941,21279,31455,-3967,1370,-1373,3248,28,-879,203,615,-235,1,0,14,12,640,0,53298,1
2,34107,33548,33941,21280,31465,-4050,930,-1068,1949,604,2028,211,621,-235,1,0,14,12,680,0,53298,1
2,34912,33480,33917,21281,31476,-4238,480,-1373,-958,1359,3819,189,621,-215,1,0,14,12,720,0,53298,1
2,35714,33458,33902,21282,31486,-4469,82,-1479,-2220,1900,4853,162,626,-226,1,0,14,12,760,0,53298,1
2,35975,33352,33899,21283,31495,-4396,-152,-1695,-2467,2279,5244,151,617,-227,1,0,14,12,800,0,53298,1
2,35117,33243,33896,21284,31505,-4374,-306,-1690,-1998,2776,5171,132,618,-242,1,0,14,12,840,0,53298,1
2,34281,33282,33872,21285,31515,-4530,-542,-1040,-1738,2975,4315,123,619,-255,1,0,14,12,880,0,53298,1
2,33766,33377,33879,21286,31524,-4645,-838,-703,-1449,1909,2790,108,608,-246,1,0,14,12,920,0,53298,1
2,33735,33319,33869,21287,31534,-4648,-1001,-671,-1061,497,591,110,602,-248,1,0,14,12,960,0,53298,1
1,34046,33258,33862,21288,0,-4442,-624,-825,-572,-860,-1779,109,607,-247,1,0,14,13,0,0,53298,1
2,35219,33239,33864,21289,30811,-4497,-474,-994,235,-2108,-3492,129,613,-241,1,0,14,13,40,0,53298,1
2,36261,33288,33878,21290,30821,-4433,-150,-1360,545,-2674,-4779,142,616,-242,1,0,14,13,80,0,53298,1
2,35689,33291,33875,21291,30831,-4238,17,-1702,1226,-2583,-5240,161,623,-227,1,0,14,13,120,0,53298,1
2,34884,33276,33908,21292,30841,-4230,260,-1888,768,-1889,-5195,176,620,-216,1,0,14,13,160,0,53298,1
2,34470,33296,33895,21293,30851,-4104,700,-1783,1041,-1242,-4255,181,623,-225,1,0,14,13,200,0,53298,1
2,34350,33272,33911,21294,30860,-3933,1303,-1414,3749,-905,-1565,186,616,-232,1,0,14,13,240,0,53298,1
2,34645,33315,33907,21295,30870,-4074,1094,-1161,2297,28,1210,196,624,-238,1,0,14,13,280,0,53298,1
2,35115,33289,33887,21296,30880,-4088,661,-1439,-1115,988,3114,174,612,-236,1,0,14,13,320,0,53298,1
2,35916,33184,33878,21297,30889,-4253,531,-1292,-2608,1779,4505,161,621,-237,1,0,14,13,360,0,53298,1
2,35912,33134,33889,21298,30899,-4277,100,-1759,-4375,2354,5275,139,605,-221,1,0,14,13,400,0,53298,1
2,35226,33113,33874,21299,30908,-4340,-213,-1769,-3115,2782,5861,116,616,-232,1,0,14,13,440,0,53298,1
2,34053,33085,33854,21300,30917,-4650,-398,-875,-1426,2462,5452,107,605,-247,1,0,14,13,480,0,53298,1
2,33625,33012,33850,21301,30926,-4632,-817,-941,-1722,2049,3897,100,606,-252,1,0,14,13,520,0,53298,1
2,33545,33024,33851,21302,30935,-4600,-907,-783,-419,919,1467,94,598,-252,1,0,14,13,560,0,53298,1
2,33721,32996,33837,21303,30944,-4436,-625,-957,-159,-161,-1149,100,600,-246,1,0,14,13,600,0,53298,1
2,34295,32967,33844,21304,30952,-4559,-605,-1053,328,-1438,-3232,108,606,-246,1,0,14,13,640,0,53298,1
2,35840,32962,33851,21305,30961,-4473,-286,-1116,434,-2358,-5006,122,606,-234,1,0,14,13,680,0,53298,1
2,35706,33006,33875,21306,30971,-4351,10,-1364,904,-3019,-5819,149,607,-237,1,0,14,13,720,0,53298,1
2,34979,33085,33902,21307,30981,-4260,3,-1872,864,-2538,-6118,167,613,-229,1,0,14,13,760,0,53298,1
2,34289,33107,33890,21308,30991,-4199,521,-1842,1225,-1752,-5861,192,616,-232,1,0,14,13,800,0,53298,1
2,33980,33078,33888,21309,31000,-4050,1165,-1564,3347,-1362,-3760,202,620,-228,1,0,14,13,840,0,53298,1
2,33989,33089,33891,21310,31009,-3934,1426,-1569,3217,-531,-791,195,613,-223,1,0,14,13,880,0,53298,1
2,34400,33133,33884,21311,31018,-4156,814,-1082,1427,476,1905,187,625,-231,1,0,14,13,920,0,53298,1
2,34977,33140,33921,21312,31028,-4129,579,-1387,-1052,1350,3736,178,616,-240,1,0,14,13,960,0,53298,1
1,35785,33090,33912,21313,0,-4205,325,-1439,-1682,1804,5087,158,618,-228,1,0,14,14,0,0,53298,1
2,35833,33021,33907,21314,30319,-4221,87,-1706,-1291,2228,6014,134,612,-242,1,0,14,14,40,0,53298,1
2,35100,32975,33872,21315,30330,-4325,-18,-1585,-460,3031,6217,115,611,-247,1,0,14,14,80,0,53298,1
2,33960,32948,33889,21316,30341,-4616,-279,-876,-763,2841,5509,108,608,-256,1,0,14,14,120,0,53298,1
2,33565,32867,33871,21317,30351,-4695,-725,-843,-1647,2117,3899,86,602,-264,1,0,14,14,160,0,53298,1
2,33491,32899,33871,21318,30361,-4674,-1021,-784,-1343,672,1427,85,611,-247,1,0,14,14,200,0,53298,1
2,33688,32910,33848,21319,30371,-4453,-782,-978,-1344,-510,-1484,102,606,-256,1,0,14,14,240,0,53298,1
2,34372,32950,33875,21320,30381,-4535,-735,-978,-348,-1795,-3705,106,598,-252,1,0,14,14,280,0,53298,1
2,36777,32966,33851,21321,30391,-4533,-256,-912,-109,-2795,-5580,127,613,-229,1,0,14,14,320,0,53298,1
2,36410,33012,33883,21322,30400,-4278,227,-1390,633,-3591,-6312,147,613,-235,1,0,14,14,360,0,53298,1
2,35260,33106,33901,21323,30409,-4269,292,-1922,445,-2860,-6473,168,620,-224,1,0,14,14,400,0,53298,1
2,34464,33134,33923,21324,30418,-4183,608,-1799,629,-1912,-6028,184,614,-216,1,0,14,14,440,0,53298,1
2,34157,33105,33924,21325,30427,-3980,1042,-1495,2841,-1614,-3829,191,607,-225,1,0,14,14,480,0,53298,1
2,34174,33133,33908,21326,30437,-3915,1361,-1375,3194,-1085,-852,202,612,-218,1,0,14,14,520,0,53298,1
2,34605,33126,33915,21327,30447,-4156,754,-1039,1005,-79,1711,193,613,-227,1,0,14,14,560,0,53298,1
2,35264,33180,33924,21328,30457,-4139,415,-1486,-1416,1019,3409,177,615,-223,1,0,14,14,600,0,53298,1
2,36631,33037,33932,21329,30466,-4270,182,-1478,-1366,1758,4534,163,613,-217,1,0,14,14,640,0,53298,1
2,36640,32949,33918,21330,30475,-4257,5,-1722,-812,2389,5255,150,618,-218,1,0,14,14,680,0,53298,1
2,35432,32934,33901,21331,30484,-4283,102,-1543,479,2919,5612,131,605,-239,1,0,14,14,720,0,53298,1
2,34035,32903,33908,21332,30493,-4690,-104,-843,-163,2732,5202,111,617,-241,1,0,14,14,760,0,53298,1
2,33601,32865,33891,21333,30501,-4760,-618,-837,-2231,2210,3756,101,611,-253,1,0,14,14,800,0,53298,1
2,33534,32877,33892,21334,30510,-4712,-1047,-782,-2630,1056,1404,100,606,-248,1,0,14,14,840,0,53298,1
2,33727,32910,33891,21335,30520,-4398,-784,-1014,-1228,-284,-1025,110,602,-244,1,0,14,14,880,0,53298,1
2,34273,32925,33871,21336,30530,-4383,-631,-1014,1479,-1761,-2693,117,603,-241,1,0,14,14,920,0,53298,1
2,35902,32929,33894,21337,30540,-4485,-261,-1026,1600,-2385,-4292,126,610,-232,1,0,14,14,960,0,53298,1
1,36735,33030,33901,21338,0,-4400,181,-1187,1936,-3110,-5034,138,604,-230,1,0,14,15,0,0,53298,1
2,35549,33087,33889,21339,29827,-4315,-22,-1727,517,-2553,-5537,170,614,-210,1,0,14,15,40,0,53298,1
2,34673,33261,33877,21340,29837,-4216,234,-1796,465,-1729,-5721,181,615,-225,1,0,14,15,80,0,53298,1
2,34309,33300,33888,21341,29846,-4063,984,-1515,2217,-1267,-4319,198,614,-216,1,0,14,15,120,0,53298,1
2,34290,33294,33888,21342,29855,-3898,1490,-1477,3396,-844,-1393,199,613,-223,1,0,14,15,160,0,53298,1
2,34792,33410,33882,21343,29865,-4154,1055,-1047,1110,205,1458,189,619,-215,1,0,14,15,200,0,53298,1
2,35568,33373,33865,21344,29874,-4016,874,-1485,-1514,1203,3738,183,611,-231,1,0,14,15,240,0,53298,1
2,36280,33223,33869,21345,29883,-4058,530,-1736,-2160,2219,5644,153,609,-233,1,0,14,15,280,0,53298,1
2,35192,33185,33867,21346,29892,-4126,145,-1959,-1375,3375,7035,132,616,-230,1,0,14,15,320,0,53298,1
2,33890,33185,33870,21347,29901,-4501,113,-842,744,3489,7581,111,609,-237,1,0,14,15,360,0,53298,1
2,33322,33194,33866,21348,29910,-4771,-337,-821,-1390,3139,6789,95,607,-245,1,0,14,15,400,0,53298,1
2,33243,33102,33873,21349,29920,-4906,-832,-827,-3503,2163,4557,80,600,-246,1,0,14,15,440,0,53298,1
2,33238,33135,33859,21350,29929,-4900,-1026,-689,-3762,560,1450,82,590,-244,1,0,14,15,480,0,53298,1
2,33362,33121,33858,21351,29938,-4350,-287,-1041,-1472,-1162,-1053,78,592,-228,1,0,14,15,520,0,53298,1
2,33732,33086,33877,21352,29947,-4486,-587,-1034,1091,-2284,-2629,89,595,-237,1,0,14,15,560,0,53298,1
2,35253,33182,33874,21353,29957,-4515,-526,-1163,-217,-2248,-5121,110,594,-222,1,0,14,15,600,0,53298,1
2,37814,34748,33910,21354,29965,-4612,-317,-1300,1281,-3414,-6076,126,594,-216,1,0,14,15,640,0,53298,1
2,35774,35264,33926,21355,29975,-4774,-984,-2251,-617,-2715,-6670,140,604,-200,1,0,14,15,680,0,53298,1
2,34625,35513,33910,21356,29984,-4243,161,-1981,1606,-2125,-6658,164,598,-220,1,0,14,15,720,0,53298,1
2,34167,35651,33911,21357,29994,-4108,1047,-1391,3191,-1750,-5031,179,607,-201,1,0,14,15,760,0,53298,1
2,34065,35716,33933,21358,30004,-3955,1557,-1468,3547,-1492,-2047,183,607,-209,1,0,14,15,800,0,53298,1
2,34415,35771,33908,21359,30014,-4156,1085,-1219,1283,-144,847,177,609,-209,1,0,14,15,840,0,53298,1
2,35068,35732,33919,21360,30024,-4175,678,-1401,-1045,1094,2910,177,599,-219,1,0,14,15,880,0,53298,1
2,36387,35485,33922,21361,30034,-4174,493,-1454,-1943,1960,4380,162,616,-212,1,0,14,15,920,0,53298,1
2,36783,35264,33906,21362,30044,-4144,315,-1735,-1714,2745,5530,140,612,-220,1,0,14,15,960,0,53298,1
1,35198,35231,33896,21363,0,-4314,304,-1539,66,3515,6500,124,612,-224,1,0,14,16,0,1,53298,1
2,33772,35191,33889,21364,29334,-4552,108,-838,308,3364,6628,101,605,-227,1,0,14,16,40,1,53298,1
2,33427,35105,33888,21365,29344,-4542,-274,-838,-426,2661,5879,87,591,-235,1,0,14,16,80,1,53298,1
2,33339,35133,33874,21366,29355,-4537,-451,-833,-41,1664,4320,71,599,-239,1,0,14,16,120,1,53298,1
2,33415,34995,33830,21367,29364,-4542,-445,-1217,-493,845,2030,67,591,-249,1,0,14,16,160,1,53298,1
2,33708,35025,33865,21368,29375,-4561,-284,-1059,377,-307,-131,69,585,-255,1,0,14,16,200,1,53298,1
2,34628,35045,33838,21369,29385,-4572,-417,-1224,-671,-964,-2457,76,590,-238,1,0,14,16,240,1,53298,1
2,37632,35067,33838,21370,29396,-4401,372,-653,-82,-2171,-4214,87,593,-229,1,0,14,16,280,1,53298,1
2,36466,35209,33846,21371,29405,-4029,-244,-1456,-396,-2681,-4893,112,586,-230,1,0,14,16,320,1,53298,1
2,35339,35428,33878,21372,29415,-4047,-119,-1566,-253,-2258,-5870,125,601,-227,1,0,14,16,360,1,53298,1
2,34778,35634,33885,21373,29424,-4111,374,-1560,556,-1867,-6070,145,603,-227,1,0,14,16,400,1,53298,1
2,34617,35680,33885,21374,29434,-4023,1271,-1509,3090,-1888,-4434,155,595,-219,1,0,14,16,440,1,53298,1
2,35089,35721,33879,21375,29443,-4073,1599,-1200,3311,-1515,-1665,158,608,-216,1,0,14,16,480,1,53298,1
2,36003,35503,33886,21376,29453,-4054,1138,-1626,-448,-459,584,152,616,-200,1,0,14,16,520,1,53298,1
2,36566,35306,33871,21377,29463,-3932,816,-1839,-1916,875,2447,148,610,-220,1,0,14,16,560,1,53298,1
2,34854,35177,33833,21378,29473,-3971,531,-2021,-1213,2320,4104,133,609,-225,1,0,14,16,600,1,53298,1
2,33641,35115,33849,21379,29483,-4374,354,-1005,396,2997,5294,110,602,-230,1,0,14,16,640,1,53298,1
2,33156,35079,33752,21380,29493,-4577,-109,-927,-612,2843,5321,101,605,-233,1,0,14,16,680,1,53298,1
2,33034,35057,33750,21381,29502,-4665,-551,-1037,-2403,2326,3851,87,595,-241,1,0,14,16,720,1,53298,1
2,32671,34888,33294,21382,29512,-4756,-860,-694,-2720,1413,1459,94,596,-240,1,0,14,16,760,1,53298,1
2,32601,34845,33226,21383,29522,-4523,-387,-620,-913,-297,-898,91,597,-239,1,0,14,16,800,1,53298,1
2,32773,34845,33232,21384,29532,-4627,-752,-921,316,-1961,-2812,101,595,-239,1,0,14,16,840,1,53298,1
2,33378,34858,33120,21385,29542,-4464,-671,-1242,-300,-2485,-5300,118,598,-222,1,0,14,16,880,1,53298,1
2,35770,34745,32996,21386,29552,-4296,312,-1059,1196,-2794,-6766,147,605,-227,1,0,14,16,920,1,53298,1
2,34711,34821,32968,21387,29561,-3999,603,-1558,2983,-3326,-5782,165,595,-223,1,0,14,16,960,1,53298,1
1,33698,35006,32931,21388,0,-4007,755,-2042,1337,-2144,-4622,168,606,-214,1,0,14,17,0,0,53298,1
2,33657,35105,32920,21389,28842,-4000,1129,-2074,925,-567,-3017,177,607,-209,1,0,14,17,40,0,53298,1
2,34192,35265,32920,21390,28852,-4187,1555,-885,2229,357,-80,174,608,-216,1,0,14,17,80,0,53298,1
2,34984,35045,32909,21391,28863,-4001,1172,-1589,1282,196,3202,172,608,-228,1,0,14,17,120,0,53298,1
2,35373,34824,32905,21392,28874,-3944,732,-1952,-861,1710,5299,151,607,-225,1,0,14,17,160,0,53298,1
2,34233,34661,32892,21393,28884,-4127,372,-1643,-1355,3680,6624,124,604,-228,1,0,14,17,200,0,53298,1
2,32723,34569,32888,21394,28893,-4649,-75,-961,-1281,4126,6982,105,599,-235,1,0,14,17,240,0,53298,1
2,32339,34546,32854,21395,28903,-4857,-607,-853,-1425,3209,6105,83,601,-245,1,0,14,17,280,0,53298,1
2,32256,34542,32844,21396,28911,-4864,-957,-800,-1688,1803,3560,77,591,-245,1,0,14,17,320,0,53298,1
2,32258,34558,32856,21397,28921,-4731,-1097,-670,-1844,415,195,87,585,-245,1,0,14,17,360,0,53298,1
2,32334,34545,32852,21398,28931,-4486,-714,-753,-189,-1219,-2511,90,592,-242,1,0,14,17,400,0,53298,1
2,32775,34511,32841,21399,28940,-4438,-667,-963,1044,-2407,-4639,104,598,-238,1,0,14,17,440,0,53298,1
2,34314,34548,32828,21400,28951,-4511,-357,-1107,1039,-3049,-6620,122,602,-230,1,0,14,17,480,0,53298,1
2,36145,34610,32807,21401,28960,-4445,675,-897,2258,-3971,-7219,145,603,-223,1,0,14,17,520,0,53298,1
2,34115,34700,32821,21402,28971,-4293,542,-1851,1493,-3669,-6530,167,605,-213,1,0,14,17,560,0,53298,1
2,33460,34913,32824,21403,28981,-4078,928,-2106,751,-2435,-5430,186,612,-200,1,0,14,17,600,0,53298,1
2,33390,34914,32838,21404,28991,-3969,1153,-1967,446,-876,-3150,188,600,-208,1,0,14,17,640,0,53298,1
2,33887,34990,32833,21405,29001,-4093,1349,-841,2311,-195,344,196,612,-208,1,0,14,17,680,0,53298,1
2,34542,34900,32854,21406,29011,-3996,967,-1531,1209,302,3467,168,608,-196,1,0,14,17,720,0,53298,1
2,35846,34674,32834,21407,29021,-4117,595,-1673,-1122,2007,5206,153,607,-215,1,0,14,17,760,0,53298,1
2,35191,34460,32813,21408,29031,-4226,290,-1658,-1978,3540,6266,143,611,-221,1,0,14,17,800,0,53298,1
2,33615,34426,32815,21409,29041,-4445,39,-1468,-1079,4158,6807,104,604,-220,1,0,14,17,840,0,53298,1
2,32542,34365,32824,21410,29051,-4705,-112,-842,88,3465,6695,99,603,-243,1,0,14,17,880,0,53298,1
2,32273,34330,32810,21411,29061,-4808,-637,-797,-1864,2640,5025,82,592,-244,1,0,14,17,920,0,53298,1
2,32180,34340,32788,21412,29071,-4730,-1058,-765,-3183,1512,2122,89,591,-249,1,0,14,17,960,0,53298,1
1,32182,34353,32767,21413,0,-4524,-1019,-700,-2092,148,-849,92,592,-240,1,0,14,18,0,0,53298,1
2,32283,34377,32804,21414,28351,-4367,-574,-880,629,-1318,-2864,93,591,-251,1,0,14,18,40,0,53298,1
2,32578,34373,32816,21415,28361,-4511,-497,-1002,1574,-2262,-4506,108,602,-234,1,0,14,18,80,0,53298,1
2,33429,34415,32811,21416,28371,-4555,-305,-1158,348,-2671,-6392,124,606,-220,1,0,14,18,120,0,53298,1
2,35358,34500,32816,21417,28382,-4561,219,-754,838,-3444,-7438,148,612,-220,1,0,14,18,160,0,53298,1
2,34386,34623,32822,21418,28391,-4448,131,-1275,407,-4412,-7457,170,600,-214,1,0,14,18,200,0,53298,1
2,33352,34678,32810,21419,28401,-4387,167,-1865,-845,-3706,-7631,203,601,-201,1,0,14,18,240,0,53298,1
2,32850,34716,32830,21420,28412,-4093,1522,-2006,919,-2426,-6502,214,604,-208,1,0,14,18,280,0,53298,1
2,32775,34718,32824,21421,28422,-3821,1888,-1754,2228,-663,-2390,219,599,-205,1,0,14,18,320,0,53298,1
2,32998,34849,32832,21422,28432,-4102,1015,-902,3038,358,2092,213,601,-203,1,0,14,18,360,0,53298,1
2,33442,34867,32806,21423,28442,-4022,746,-1140,557,1187,4871,194,602,-206,1,0,14,18,400,0,53298,1
2,34868,34841,32819,21424,28453,-4192,456,-1394,-1545,2242,6604,174,602,-208,1,0,14,18,440,0,53298,1
2,35877,34618,32816,21425,28463,-4496,169,-1509,-1323,3010,7739,150,608,-212,1,0,14,18,480,0,53298,1
2,34183,34532,32819,21426,28474,-4633,-145,-1634,-520,3676,8070,123,599,-211,1,0,14,18,520,0,53298,1
2,32945,34498,32818,21427,28484,-4724,-220,-896,211,3648,7464,106,600,-224,1,0,14,18,560,0,53298,1
2,32440,34384,32801,21428,28494,-4665,-609,-862,-984,3023,5932,93,587,-229,1,0,14,18,600,0,53298,1
2,32285,34304,32796,21429,28505,-4684,-926,-767,-1905,2060,3450,83,589,-233,1,0,14,18,640,0,53298,1
2,32302,34305,32802,21430,28515,-4712,-1050,-709,-1897,875,415,79,591,-239,1,0,14,18,680,0,53298,1
2,32438,34320,32799,21431,28526,-4610,-686,-781,-485,-501,-2361,95,599,-249,1,0,14,18,720,0,53298,1
2,33123,34314,32802,21432,28537,-4584,-607,-948,552,-1701,-4715,116,590,-248,1,0,14,18,760,0,53298,1
2,35132,34380,32806,21433,28548,-4478,-199,-909,572,-2464,-6762,127,601,-231,1,0,14,18,800,0,53298,1
2,35116,34541,32831,21434,28559,-4230,720,-850,1618,-3696,-7157,144,598,-210,1,0,14,18,840,0,53298,1
2,33745,34884,32834,21435,28569,-4139,422,-1762,387,-3235,-6869,177,603,-209,1,0,14,18,880,0,53298,1
2,33186,35382,32864,21436,28579,-4063,833,-1923,885,-2090,-6050,193,605,-209,1,0,14,18,920,0,53298,1
2,33068,35380,32898,21437,28590,-3977,1335,-1838,1640,-830,-3751,195,605,-217,1,0,14,18,960,0,53298,1
1,33364,35539,32912,21438,0,-4081,1703,-923,3863,-355,178,189,607,-215,1,0,14,19,0,0,53298,1
2,33966,35731,32920,21439,27861,-3968,1273,-1401,1409,270,3609,179,607,-197,1,0,14,19,40,0,53298,1
2,35592,35323,32933,21440,27871,-4040,871,-1603,-1503,1878,5909,169,607,-211,1,0,14,19,80,0,53298,1
2,35279,35109,32938,21441,27881,-4131,427,-1840,-1911,3389,7646,138,606,-218,1,0,14,19,120,0,53298,1
2,33236,34987,32993,21442,27892,-4461,57,-1744,-909,4435,8504,105,601,-229,1,0,14,19,160,0,53298,1
2,32502,34877,32940,21443,27902,-4869,-208,-978,321,4224,8185,89,595,-235,1,0,14,19,200,0,53298,1
2,32316,34945,32952,21444,27912,-4820,-654,-1090,-160,3418,6343,71,581,-245,1,0,14,19,240,0,53298,1
2,32270,34817,32954,21445,27923,-4739,-732,-829,-329,2485,3488,59,581,-251,1,0,14,19,280,0,53298,1
2,32280,34835,32970,21446,27933,-4455,-938,-830,-1284,1136,375,67,575,-257,1,0,14,19,320,0,53298,1
2,32287,34795,32946,21447,27943,-4295,-576,-818,211,-514,-1945,69,585,-253,1,0,14,19,360,0,53298,1
2,32451,34762,32954,21448,27953,-4267,-549,-959,760,-1711,-3979,82,586,-250,1,0,14,19,400,0,53298,1
2,33046,34820,32980,21449,27964,-4420,-304,-1026,481,-2547,-5998,111,595,-243,1,0,14,19,440,0,53298,1
2,35521,34841,33009,21450,27975,-4544,284,-913,451,-3481,-7382,122,604,-246,1,0,14,19,480,0,53298,1
2,34675,34904,33038,21451,27986,-4440,246,-1395,1096,-4481,-7342,149,605,-229,1,0,14,19,520,0,53298,1
2,33758,35003,33209,21452,27997,-4385,460,-1676,1416,-3971,-7235,162,612,-220,1,0,14,19,560,0,53298,1
2,33277,35053,33279,21453,28008,-4173,778,-1871,289,-2723,-6594,184,608,-212,1,0,14,19,600,0,53298,1
2,33358,35188,33378,21454,28018,-3940,1123,-1849,584,-1475,-4327,193,613,-217,1,0,14,19,640,0,53298,1
2,33790,35331,33577,21455,28030,-3910,1218,-1637,1164,-237,-943,196,604,-214,1,0,14,19,680,0,53298,1
2,34556,35467,33641,21456,28041,-4151,1089,-627,2695,-136,2599,185,615,-217,1,0,14,19,720,0,53298,1
2,35499,35271,33708,21457,28052,-4037,848,-1483,691,722,5195,174,610,-210,1,0,14,19,760,0,53298,1
2,36510,35182,34022,21458,28064,-4274,194,-1657,-1029,2216,6286,137,615,-207,1,0,14,19,800,0,53298,1
2,35142,35050,33995,21459,28075,-4483,-102,-1595,-560,3278,6655,123,611,-215,1,0,14,19,840,0,53298,1
2,33968,34975,33960,21460,28086,-4708,-188,-1026,-170,3283,6264,110,596,-224,1,0,14,19,880,0,53298,1
2,33445,34953,33966,21461,28098,-4763,-413,-1083,-1441,2439,5204,93,593,-225,1,0,14,19,920,0,53298,1
2,33315,34924,33974,21462,28108,-4757,-757,-1049,-2801,1868,3180,94,582,-238,1,0,14,19,960,0,53298,1
1,33285,34896,33954,21463,0,-4663,-1031,-1006,-3418,1445,442,85,593,-239,1,0,14,20,0,1,53298,1
2,33306,34901,33952,21464,27369,-4447,-731,-905,-1896,345,-2052,109,589,-243,1,0,14,20,40,1,53298,1
2,33423,34896,33949,21465,27378,-4418,-721,-907,231,-1021,-3661,117,597,-239,1,0,14,20,80,1,53298,1
2,34010,34925,33946,21466,27387,-4376,-592,-1113,524,-1902,-5453,127,605,-227,1,0,14,20,120,1,53298,1
2,35796,34986,33954,21467,27398,-4380,-2,-1118,816,-2416,-6872,141,595,-219,1,0,14,20,160,1,53298,1
2,35729,35091,33970,21468,27408,-4215,908,-1061,2278,-3462,-6407,167,601,-227,1,0,14,20,200,1,53298,1
2,34441,35116,33941,21469,27418,-4128,673,-1856,1253,-2765,-5317,185,607,-219,1,0,14,20,240,1,53298,1
2,34060,35166,33946,21470,27428,-4007,875,-2062,691,-1263,-4127,198,600,-220,1,0,14,20,280,1,53298,1
2,34098,35243,33929,21471,27437,-3934,1184,-1850,1271,436,-1698,196,610,-206,1,0,14,20,320,1,53298,1
2,34616,35329,33944,21472,27447,-4288,1209,-357,3134,858,1770,196,606,-224,1,0,14,20,360,1,53298,1
2,35224,35107,33940,21473,27456,-4020,1003,-1351,1919,739,4927,170,606,-220,1,0,14,20,400,1,53298,1
2,36233,34936,33940,21474,27465,-4128,543,-1567,-1142,2011,6647,147,609,-227,1,0,14,20,440,1,53298,1
2,35543,34746,33900,21475,27475,-4231,173,-1720,-1623,3382,7705,121,607,-231,1,0,14,20,480,1,53298,1
2,34139,34642,33897,21476,27484,-4540,-97,-1442,-807,4107,7985,106,594,-242,1,0,14,20,520,1,53298,1
2,33404,34628,33895,21477,27494,-4831,-385,-818,-485,3363,7203,82,598,-236,1,0,14,20,560,1,53298,1
2,33241,34630,33862,21478,27504,-4727,-732,-870,-1230,2088,5075,70,586,-250,1,0,14,20,600,1,53298,1
2,33221,34623,33873,21479,27513,-4632,-843,-888,-1525,749,2179,72,586,-258,1,0,14,20,640,1,53298,1
2,33202,34610,33840,21480,27523,-4496,-665,-927,-752,-511,-639,71,581,-243,1,0,14,20,680,1,53298,1
2,33353,34597,33865,21481,27534,-4622,-658,-897,421,-1928,-2974,90,588,-238,1,0,14,20,720,1,53298,1
2,33721,34676,33893,21482,27544,-4615,-613,-1103,-522,-2875,-5426,99,593,-227,1,0,14,20,760,1,53298,1
2,34759,34769,33890,21483,27554,-4556,-520,-1407,-1018,-3411,-7667,117,591,-233,1,0,14,20,800,1,53298,1
2,35185,34920,33880,21484,27564,-4381,16,-1652,461,-3448,-8853,149,605,-211,1,0,14,20,840,1,53298,1
2,34462,35081,33877,21485,27574,-4161,674,-1558,2641,-3138,-8361,169,601,-211,1,0,14,20,880,1,53298,1
2,34050,35148,33866,21486,27585,-4148,1173,-1598,2750,-2511,-6526,195,603,-213,1,0,14,20,920,1,53298,1
2,34007,35159,33878,21487,27594,-4016,1457,-1523,1760,-1373,-3830,205,603,-215,1,0,14,20,960,1,53298,1
1,34303,35177,33871,21488,0,-4082,1336,-980,1527,-548,-255,199,601,-213,1,0,14,21,0,1,53298,1
2,34841,35150,33890,21489,26879,-4029,829,-1498,-973,492,2682,195,615,-207,1,0,14,21,40,1,53298,1
2,35701,35000,33873,21490,26889,-4071,553,-1501,-1454,1424,4931,173,607,-213,1,0,14,21,80,1,53298,1
2,35919,34863,33870,21491,26899,-4241,174,-1787,-1689,2478,6446,156,604,-210,1,0,14,21,120,1,53298,1
2,34959,34779,33897,21492,26910,-4425,-30,-1684,-329,3502,7054,133,601,-215,1,0,14,21,160,1,53298,1
2,33797,34772,33888,21493,26920,-4734,-104,-955,142,3814,6716,116,598,-232,1,0,14,21,200,1,53298,1
2,33445,34617,33866,21494,26930,-4741,-420,-1007,-739,3346,5497,98,604,-240,1,0,14,21,240,1,53298,1
2,33360,34660,33891,21495,26939,-4688,-536,-879,-358,2359,3658,99,591,-245,1,0,14,21,280,1,53298,1
2,33374,34566,33873,21496,26948,-4499,-704,-838,-606,1295,1443,89,593,-249,1,0,14,21,320,1,53298,1
2,33563,34608,33890,21497,26958,-4480,-672,-775,-758,41,-678,87,599,-245,1,0,14,21,360,1,53298,1
2,34202,34659,33870,21498,26967,-4530,-759,-895,-1651,-1046,-3178,107,583,-241,1,0,14,21,400,1,53298,1
2,36691,34732,33864,21499,26976,-4463,-8,-491,-1509,-2362,-5252,116,598,-236,1,0,14,21,440,1,53298,1
2,35836,34766,33834,21500,26985,-4336,-386,-1260,-297,-3698,-5679,142,602,-236,1,0,14,21,480,1,53298,1
2,34801,34792,33803,21501,26994,-4274,-163,-1415,1714,-3784,-6279,160,594,-224,1,0,14,21,520,1,53298,1
2,34035,34817,33803,21502,27003,-4294,187,-1599,1249,-2988,-6825,174,600,-212,1,0,14,21,560,1,53298,1
2,33769,34848,33813,21503,27013,-4236,671,-1690,1708,-2385,-5847,186,600,-206,1,0,14,21,600,1,53298,1
2,33810,34926,33789,21504,27023,-4120,1113,-1681,2690,-1805,-3499,204,608,-212,1,0,14,21,640,1,53298,1
2,34333,35077,33850,21505,27032,-4129,1138,-1498,1634,-611,-653,196,606,-212,1,0,14,21,680,1,53298,1
2,34980,35083,33819,21506,27042,-4197,948,-944,1033,-303,2164,195,601,-207,1,0,14,21,720,1,53298,1
2,36169,34838,33835,21507,27051,-4056,612,-1548,-1000,854,4226,171,607,-201,1,0,14,21,760,1,53298,1
2,36566,34674,33812,21508,27060,-4133,215,-1760,-2134,2393,5203,160,596,-212,1,0,14,21,800,1,53298,1
2,35249,34584,33785,21509,27069,-4349,12,-1641,-1136,3592,5983,142,604,-212,1,0,14,21,840,1,53298,1
2,33853,34547,33798,21510,27079,-4569,-188,-1359,-352,3885,6110,133,595,-223,1,0,14,21,880,1,53298,1
2,33398,34517,33776,21511,27089,-4810,-359,-717,-707,3238,5370,110,598,-228,1,0,14,21,920,1,53298,1
2,33224,34464,33760,21512,27099,-4767,-748,-878,-1869,2252,3672,94,588,-230,1,0,14,21,960,1,53298,1
1,33252,34475,33765,21513,0,-4689,-877,-730,-1977,1186,1252,97,595,-245,1,0,14,22,0,0,53298,1
2,33370,34448,33746,21514,26388,-4573,-720,-760,-1417,57,-1091,97,593,-235,1,0,14,22,40,0,53298,1
2,34083,34473,33764,21515,26396,-4538,-614,-786,122,-1393,-3032,114,592,-234,1,0,14,22,80,0,53298,1
2,36320,34534,33737,21516,26405,-4506,-308,-831,49,-2433,-4867,127,593,-233,1,0,14,22,120,0,53298,1
2,37230,34709,33757,21517,26414,-4419,360,-964,1112,-3665,-5531,143,599,-209,1,0,14,22,160,0,53298,1
2,35222,34776,33745,21518,26424,-4480,-192,-1435,-727,-3414,-5933,178,598,-218,1,0,14,22,200,0,53298,1
2,34389,34807,33732,21519,26433,-4315,104,-1758,-38,-2753,-6381,187,597,-211,1,0,14,22,240,0,53298,1
2,33945,34866,33738,21520,26443,-4114,613,-1831,1500,-1771,-5464,203,589,-219,1,0,14,22,280,0,53298,1
2,33913,34992,33704,21521,26452,-4070,1365,-1309,3853,-1137,-2849,198,602,-208,1,0,14,22,320,0,53298,1
2,34196,34971,33732,21522,26462,-4180,1336,-943,4280,-836,760,203,603,-207,1,0,14,22,360,0,53298,1
2,35025,35022,33745,21523,26471,-4041,790,-1456,-438,635,2909,191,605,-203,1,0,14,22,400,0,53298,1
2,36641,34817,33823,21524,26481,-4308,579,-1258,-1479,1885,4716,185,601,-205,1,0,14,22,440,0,53298,1
2,37207,34636,33803,21525,26490,-4351,289,-1520,-1513,2712,6293,153,589,-211,1,0,14,22,480,0,53298,1
2,35406,34485,33806,21526,26501,-4644,-140,-1781,-231,3304,7140,126,600,-222,1,0,14,22,520,0,53298,1
2,34257,34456,33815,21527,26512,-4679,-259,-1368,-70,3914,6526,111,595,-227,1,0,14,22,560,0,53298,1
2,33540,34435,33792,21528,26522,-5002,-466,-458,-2017,3739,4819,103,595,-237,1,0,14,22,600,0,53298,1
2,33373,34415,33782,21529,26532,-4872,-1072,-773,-3371,2203,2565,95,593,-243,1,0,14,22,640,0,53298,1
2,33390,34420,33748,21530,26543,-4738,-1053,-574,-1545,293,-167,97,597,-237,1,0,14,22,680,0,53298,1
2,33853,34444,33805,21531,26553,-4578,-1019,-701,-498,-997,-2870,110,594,-224,1,0,14,22,720,0,53298,1
2,35125,34469,33837,21532,26563,-4546,-934,-917,500,-2235,-5352,126,600,-228,1,0,14,22,760,0,53298,1
2,37673,34496,33830,21533,26572,-4490,-71,-630,1166,-3333,-7213,147,589,-231,1,0,14,22,800,0,53298,1
2,35298,34629,33824,21534,26581,-4704,-709,-1668,822,-3989,-7504,167,597,-223,1,0,14,22,840,0,53298,1
2,34255,34689,33817,21535,26591,-4327,360,-1815,1131,-3527,-7375,195,595,-215,1,0,14,22,880,0,53298,1
2,33849,34710,33813,21536,26601,-4147,914,-1879,545,-2277,-6098,199,591,-199,1,0,14,22,920,0,53298,1
2,33850,34782,33818,21537,26611,-3975,1351,-1821,1002,-953,-3284,228,598,-218,1,0,14,22,960,0,53298,1
1,34190,34834,33826,21538,0,-4138,1493,-738,2943,-383,831,205,605,-211,1,0,14,23,0,1,53298,1
2,35010,34880,33827,21539,25899,-4038,1112,-1491,189,702,4316,197,605,-211,1,0,14,23,40,1,53298,1
2,36307,34633,33833,21540,25909,-4217,591,-1500,-2009,2280,6437,173,607,-209,1,0,14,23,80,1,53298,1
2,36104,34523,33831,21541,25919,-4263,93,-1752,-2243,3557,7824,154,596,-212,1,0,14,23,120,1,53298,1
2,34459,34496,33829,21542,25929,-4492,-229,-1591,-939,4244,8311,117,607,-211,1,0,14,23,160,1,53298,1
2,33679,34413,33822,21543,25937,-4908,-425,-600,-94,4061,7569,108,598,-236,1,0,14,23,200,1,53298,1
2,33357,34427,33817,21544,25946,-5083,-948,-558,-1272,2772,5292,93,587,-243,1,0,14,23,240,1,53298,1
2,33251,34429,33811,21545,25955,-5017,-1250,-660,-2361,1240,1800,88,590,-232,1,0,14,23,280,1,53298,1
2,33264,34440,33817,21546,25964,-4624,-1253,-920,-1840,-217,-1681,102,586,-230,1,0,14,23,320,1,53298,1
2,33481,34405,33820,21547,25974,-4498,-1076,-990,637,-1597,-4369,116,596,-232,1,0,14,23,360,1,53298,1
2,34045,34431,33820,21548,25983,-4473,-819,-1123,1383,-2443,-6690,122,590,-234,1,0,14,23,400,1,53298,1
2,35382,34439,33830,21549,25993,-4467,-240,-930,1887,-3006,-8360,170,596,-230,1,0,14,23,440,1,53298,1
2,35046,34269,33842,21550,26003,-4394,579,-1014,2263,-4060,-8529,185,599,-213,1,0,14,23,480,1,53298,1
2,34248,33880,33823,21551,26014,-4179,734,-1722,995,-3467,-7759,214,596,-206,1,0,14,23,520,1,53298,1
2,33896,34608,33839,21552,26023,-4047,1150,-1808,1054,-2313,-5903,227,605,-211,1,0,14,23,560,1,53298,1
2,33861,35234,33847,21553,26032,-3885,1372,-1880,909,-820,-2726,234,596,-208,1,0,14,23,600,1,53298,1
2,34299,36140,33873,21554,26042,-3943,1300,-1466,1339,605,1260,225,603,-215,1,0,14,23,640,1,53298,1
2,35192,36545,33873,21555,26052,-4116,1094,-926,1766,1070,5069,195,595,-211,1,0,14,23,680,1,53298,1
2,35761,36004,33860,21556,26062,-4149,655,-1638,-257,2141,7722,185,593,-221,1,0,14,23,720,1,53298,1
2,35355,35738,33834,21557,26071,-4281,264,-1906,-945,3849,9099,147,605,-211,1,0,14,23,760,1,53298,1
2,33966,35590,33821,21558,26081,-4698,78,-1309,-566,5128,9610,119,603,-223,1,0,14,23,800,1,53298,1
2,33412,35579,33850,21559,26090,-5069,-329,-958,-1407,4586,9095,89,593,-243,1,0,14,23,840,1,53298,1
2,33214,35629,33837,21560,26100,-5062,-705,-986,-1988,3173,7321,77,585,-245,1,0,14,23,880,1,53298,1
2,33172,35976,33860,21561,26109,-4800,-1019,-1078,-2344,1919,4315,65,583,-245,1,0,14,23,920,1,53298,1
2,33181,36072,33873,21562,26118,-4562,-1122,-990,-1935,897,860,69,579,-251,1,0,14,23,960,1,53298,1
1,33243,36199,33892,21563,0,-4364,-892,-866,-872,-320,-2268,82,580,-252,1,0,14,24,0,1,53298,1
2,33343,36386,33894,21564,25409,-4324,-806,-818,386,-1654,-4775,89,583,-249,1,0,14,24,40,1,53298,1
2,33684,36461,33915,21565,25418,-4425,-667,-897,276,-2631,-7096,121,589,-243,1,0,14,24,80,1,53298,1
2,34877,36537,33935,21566,25429,-4569,-352,-953,465,-3531,-8886,149,599,-243,1,0,14,24,120,1,53298,1
2,35509,36715,33929,21567,25439,-4633,184,-846,1748,-4521,-9695,172,612,-214,1,0,14,24,160,1,53298,1
2,34611,36785,33906,21568,25450,-4579,227,-1416,1190,-4821,-9630,199,601,-221,1,0,14,24,200,1,53298,1
2,33798,36595,33878,21569,25461,-4451,722,-1723,1291,-4105,-8776,236,586,-214,1,0,14,24,240,1,53298,1
2,33543,36812,33918,21570,25473,-4138,1234,-1818,2118,-2890,-6439,246,598,-204,1,0,14,24,280,1,53298,1
2,33479,36808,33905,21571,25483,-3875,1635,-1964,2138,-1292,-2657,255,591,-203,1,0,14,24,320,1,53298,1
2,33663,36906,33863,21572,25494,-3864,1190,-1856,1269,877,1531,247,597,-215,1,0,14,24,360,1,53298,1
2,34212,37115,33862,21573,25504,-4286,856,-489,2212,1983,5411,223,601,-207,1,0,14,24,400,1,53298,1
2,35200,36867,33822,21574,25514,-4357,743,-1094,1196,2095,8280,189,599,-201,1,0,14,24,440,1,53298,1
2,36102,36320,33834,21575,25525,-4444,90,-1693,-2747,3404,9101,158,604,-216,1,0,14,24,480,1,53298,1
2,35808,36055,33841,21576,25535,-4590,-197,-1794,-2947,4586,9282,136,594,-214,1,0,14,24,520,1,53298,1
2,34339,35883,33807,21577,25545,-4835,-446,-1304,-1772,4991,8891,108,588,-224,1,0,14,24,560,1,53298,1
2,33563,35643,33752,21578,25556,-4806,-739,-987,-170,3743,7812,85,581,-235,1,0,14,24,600,1,53298,1
2,33286,35526,33720,21579,25567,-4713,-829,-761,391,2451,5580,65,585,-253,1,0,14,24,640,1,53298,1
2,33265,35505,33730,21580,25578,-4604,-1022,-785,-1484,1647,2198,79,591,-255,1,0,14,24,680,1,53298,1
2,33355,35695,33785,21581,25589,-4499,-835,-863,-1865,558,-1184,86,590,-258,1,0,14,24,720,1,53298,1
2,33797,35760,33819,21582,25599,-4484,-728,-813,-121,-990,-3579,96,592,-246,1,0,14,24,760,1,53298,1
2,34935,36286,33825,21583,25610,-4529,-598,-952,767,-2325,-5708,111,601,-237,1,0,14,24,800,1,53298,1
2,36724,36459,33834,21584,25622,-4495,328,-524,1144,-3576,-7312,131,605,-229,1,0,14,24,840,1,53298,1
2,35110,36445,33852,21585,25633,-4484,-57,-1337,343,-4414,-7692,149,595,-217,1,0,14,24,880,1,53298,1
2,34300,36568,33873,21586,25645,-4319,398,-1774,301,-4079,-7856,178,606,-214,1,0,14,24,920,1,53298,1
2,33936,36718,33855,21587,25656,-4105,893,-1866,1125,-2935,-6755,200,604,-212,1,0,14,24,960,1,53298,1
1,33900,36812,33873,21588,0,-4043,1373,-1743,2280,-1696,-3980,205,603,-211,1,0,14,25,0,1,53298,1
2,34112,36834,33852,21589,24920,-4177,1538,-911,3310,-837,-101,197,609,-217,1,0,14,25,40,1,53298,1
2,34707,36910,33870,21590,24931,-4090,1068,-1477,480,257,3070,190,614,-196,1,0,14,25,80,1,53298,1
2,35742,36758,33882,21591,24942,-4234,605,-1536,-2061,1818,5031,171,599,-211,1,0,14,25,120,1,53298,1
2,36440,36452,33873,21592,24953,-4298,280,-1559,-1920,2648,6491,147,597,-217,1,0,14,25,160,1,53298,1
2,35151,36026,33861,21593,24964,-4367,-9,-1862,-963,3290,7409,120,606,-218,1,0,14,25,200,1,53298,1
2,34004,35870,33861,21594,24975,-4590,-131,-1443,-155,3775,7467,108,598,-220,1,0,14,25,240,1,53298,1
2,33417,35946,33815,21595,24985,-4828,-385,-744,-1192,3357,6437,91,593,-237,1,0,14,25,280,1,53298,1
2,33181,35755,33833,21596,24996,-4679,-706,-1001,-1970,2337,4593,79,589,-247,1,0,14,25,320,1,53298,1
2,33094,33889,33718,21597,25006,-4559,-939,-934,-1148,1121,1983,71,585,-245,1,0,14,25,360,1,53298,1
2,33196,33293,33722,21598,25017,-4406,-554,-800,572,260,-633,82,588,-240,1,0,14,25,400,1,53298,1
2,33246,31930,33582,21599,25028,-4436,-426,-841,1578,-830,-2742,88,596,-252,1,0,14,25,440,1,53298,1
2,34090,30824,33547,21600,25039,-4546,-218,-759,748,-1773,-4812,114,586,-242,1,0,14,25,480,1,53298,1
2,37536,33684,33586,21601,25049,-4446,456,-496,-652,-2740,-6375,135,595,-237,1,0,14,25,520,1,53298,1
2,36131,36817,33893,21602,25060,-3985,172,-1351,-544,-3858,-6217,143,605,-227,1,0,14,25,560,1,53298,1
2,34903,36922,33852,21603,25070,-4092,252,-1564,171,-3425,-5931,163,597,-215,1,0,14,25,600,1,53298,1
2,34328,37105,33905,21604,25081,-4112,499,-1795,345,-2346,-5271,174,604,-208,1,0,14,25,640,1,53298,1
2,34237,37286,33909,21605,25091,-4067,942,-1825,1778,-1271,-3370,187,599,-209,1,0,14,25,680,1,53298,1
2,34706,37561,33944,21606,25101,-4221,1353,-1156,3059,-277,-579,186,608,-212,1,0,14,25,720,1,53298,1
2,35357,37631,33995,21607,25112,-4147,1053,-1184,1916,-186,2177,179,605,-207,1,0,14,25,760,1,53298,1
2,36747,37263,34051,21608,25122,-4040,786,-1649,69,955,4266,165,603,-219,1,0,14,25,800,1,53298,1
2,37059,36883,33991,21609,25132,-4183,597,-1524,-944,2373,5581,142,600,-212,1,0,14,25,840,1,53298,1
2,35062,36681,33985,21610,25142,-4310,243,-1800,-174,3380,6914,110,590,-212,1,0,14,25,880,1,53298,1
2,33878,36632,33952,21611,25152,-4386,48,-1604,1113,3886,7392,102,596,-240,1,0,14,25,920,1,53298,1
2,33245,36557,33887,21612,25161,-4689,51,-576,1040,3655,6964,85,583,-245,1,0,14,25,960,1,53298,1
1,33172,36542,33912,21613,0,-4560,-362,-1144,-655,2821,5637,66,580,-250,1,0,14,26,0,1,53298,1
2,33190,36488,33892,21614,24430,-4683,-351,-633,-1040,1913,3483,64,574,-248,1,0,14,26,40,1,53298,1
2,33172,36552,33898,21615,24440,-4622,-692,-1137,-2663,1054,649,69,577,-255,1,0,14,26,80,1,53298,1
2,33255,36585,33953,21616,24450,-4533,-321,-860,-567,-453,-1603,67,579,-253,1,0,14,26,120,1,53298,1
2,33501,36601,33961,21617,24460,-4417,-437,-998,-320,-1583,-3608,71,583,-237,1,0,14,26,160,1,53298,1
2,34228,36670,33965,21618,24470,-4361,-402,-1128,-514,-2221,-5672,104,588,-246,1,0,14,26,200,1,53298,1
2,37121,36788,33995,21619,24480,-4395,56,-894,113,-2790,-7184,113,605,-227,1,0,14,26,240,1,53298,1
2,36244,36698,34028,21620,24490,-3504,1645,-735,2023,-4324,-6900,143,605,-227,1,0,14,26,280,1,53298,1
2,34707,36488,33942,21621,24500,-3971,688,-1417,97,-4079,-6278,154,602,-210,1,0,14,26,320,1,53298,1
2,33469,36049,33202,21622,24509,-4186,615,-1618,299,-3190,-5798,177,601,-203,1,0,14,26,360,1,53298,1
2,33029,35960,33046,21623,24519,-4206,874,-1694,257,-2062,-4358,185,593,-203,1,0,14,26,400,1,53298,1
2,33102,36037,32961,21624,24528,-4076,1130,-1682,1250,-1125,-1880,180,604,-204,1,0,14,26,440,1,53298,1
2,33766,36218,32917,21625,24537,-4223,1180,-902,1471,-101,996,186,600,-206,1,0,14,26,480,1,53298,1
2,34529,36184,32889,21626,24547,-4055,914,-1298,312,371,3640,161,595,-199,1,0,14,26,520,1,53298,1
2,35540,35830,32884,21627,24556,-4010,645,-1620,-472,1453,5552,153,595,-193,1,0,14,26,560,1,53298,1
2,34673,35581,32879,21628,24566,-4149,340,-1766,-479,2901,6786,127,591,-203,1,0,14,26,600,1,53298,1
2,33342,35512,32871,21629,24576,-4417,110,-1574,183,3801,7406,99,597,-215,1,0,14,26,640,1,53298,1
2,32643,35488,32875,21630,24586,-4709,-130,-1297,130,4014,7099,71,593,-225,1,0,14,26,680,1,53298,1
2,32336,35426,32864,21631,24596,-4877,-404,-801,-933,3458,5503,75,579,-237,1,0,14,26,720,1,53298,1
2,32267,35412,32842,21632,24606,-4727,-666,-805,-1765,2434,3134,72,578,-240,1,0,14,26,760,1,53298,1
2,32268,35452,32846,21633,24616,-4455,-582,-707,-979,986,661,67,573,-251,1,0,14,26,800,1,53298,1
2,32343,35409,32835,21634,24627,-4288,-419,-742,300,-428,-1303,74,584,-236,1,0,14,26,840,1,53298,1
2,32590,35425,32825,21635,24637,-4367,-341,-864,592,-1480,-3142,83,587,-237,1,0,14,26,880,1,53298,1
2,33642,35442,32829,21636,24647,-4506,-239,-953,-488,-2163,-5131,109,601,-233,1,0,14,26,920,1,53298,1
2,35801,35468,32811,21637,24657,-4524,-91,-1083,-777,-2778,-6654,124,594,-232,1,0,14,26,960,1,53298,1
1,35256,35655,32815,21638,0,-4293,721,-926,683,-3619,-7048,134,602,-206,1,0,14,27,0,0,53298,1
2,33528,35759,32823,21639,23940,-4244,638,-1438,1577,-3733,-6248,157,605,-211,1,0,14,27,40,0,53298,1
2,33009,35599,32826,21640,23951,-4066,954,-1635,1642,-2865,-5110,177,599,-213,1,0,14,27,80,0,53298,1
2,32896,35683,32826,21641,23960,-3994,1187,-1634,1088,-1543,-3015,189,603,-207,1,0,14,27,120,0,53298,1
2,33157,35574,32815,21642,23969,-3968,1166,-1687,700,-293,-124,181,605,-205,1,0,14,27,160,0,53298,1
2,34087,35767,32822,21643,23979,-4016,991,-1676,764,972,2771,159,597,-203,1,0,14,27,200,0,53298,1
2,36381,35479,32808,21644,23988,-4466,930,-463,642,1775,4960,143,593,-209,1,0,14,27,240,0,53298,1
2,35019,35283,32818,21645,23998,-4199,335,-1697,-1366,2181,6363,126,592,-198,1,0,14,27,280,0,53298,1
2,33563,35144,32843,21646,24007,-4333,205,-1563,-839,2954,6789,112,592,-212,1,0,14,27,320,0,53298,1
2,32670,35017,32836,21647,24017,-4498,-132,-1515,-1393,3773,6353,89,587,-225,1,0,14,27,360,0,53298,1
2,32391,34993,32845,21648,24027,-4567,-312,-1332,-132,3558,5583,77,583,-241,1,0,14,27,400,0,53298,1
2,32285,34957,32845,21649,24037,-4669,-387,-837,628,2883,4120,64,580,-252,1,0,14,27,440,0,53298,1
2,32265,34868,32836,21650,24048,-4731,-669,-634,-1350,1926,1486,59,591,-239,1,0,14,27,480,0,53298,1
2,32334,34801,32832,21651,24059,-4526,-508,-558,-1639,465,-1186,69,583,-249,1,0,14,27,520,0,53298,1
2,32603,34850,32836,21652,24069,-4431,-476,-636,-224,-1307,-3135,83,577,-249,1,0,14,27,560,0,53298,1
2,33238,34854,32855,21653,24079,-4404,-446,-927,379,-2589,-5011,101,593,-237,1,0,14,27,600,0,53298,1
2,34524,35015,32861,21654,24090,-4432,-141,-1045,886,-3275,-6628,114,592,-226,1,0,14,27,640,0,53298,1
2,34960,35209,32867,21655,24100,-4483,288,-1092,668,-3692,-7504,133,599,-225,1,0,14,27,680,0,53298,1
2,33801,35596,32877,21656,24111,-4485,470,-1379,641,-3946,-7226,171,599,-205,1,0,14,27,720,0,53298,1
2,33093,35455,32865,21657,24122,-4338,653,-1502,656,-3499,-6329,186,596,-206,1,0,14,27,760,0,53298,1
2,32714,35484,32854,21658,24132,-4180,801,-1569,710,-2536,-4844,193,597,-193,1,0,14,27,800,0,53298,1
2,32640,35417,32819,21659,24143,-3991,915,-1614,857,-1335,-2703,203,593,-203,1,0,14,27,840,0,53298,1
2,32844,35450,32823,21660,24154,-3943,1020,-1608,1119,-69,-7,200,600,-204,1,0,14,27,880,0,53298,1
2,33476,35544,32819,21661,24164,-3989,916,-1624,768,1266,2795,184,598,-202,1,0,14,27,920,0,53298,1
2,35259,35438,32775,21662,24175,-4298,701,-1009,392,2414,5160,170,598,-210,1,0,14,27,960,0,53298,1
1,35190,35181,32807,21663,0,-4288,346,-1389,-499,2424,6827,134,598,-198,1,0,14,28,0,0,53298,1
2,33756,34926,32793,21664,23452,-4326,126,-1637,-438,3182,7589,124,590,-212,1,0,14,28,40,0,53298,1
2,32845,34834,32785,21665,23464,-4489,-132,-1457,-665,4136,7258,102,592,-226,1,0,14,28,80,0,53298,1
2,32364,34856,32807,21666,23475,-4649,-390,-1301,-614,4250,6329,92,594,-240,1,0,14,28,120,0,53298,1
2,32225,34765,32791,21667,23487,-4841,-473,-676,-63,3272,4770,83,593,-247,1,0,14,28,160,0,53298,1
2,32181,34830,32785,21668,23499,-4748,-756,-740,-1291,2082,2187,74,584,-262,1,0,14,28,200,0,53298,1
2,32214,34816,32781,21669,23510,-4495,-567,-600,-1481,645,-682,80,590,-252,1,0,14,28,240,0,53298,1
2,32333,34801,32799,21670,23521,-4380,-582,-671,-733,-912,-2847,88,592,-248,1,0,14,28,280,0,53298,1
2,32805,34757,32805,21671,23532,-4373,-456,-857,180,-2271,-4686,99,591,-243,1,0,14,28,320,0,53298,1
2,33846,34846,32773,21672,23543,-4475,-279,-993,606,-3232,-6302,120,602,-240,1,0,14,28,360,0,53298,1
2,34765,34602,32794,21673,23553,-4541,31,-1167,556,-3829,-7515,140,600,-232,1,0,14,28,400,0,53298,1
2,33651,34689,32806,21674,23564,-4507,415,-1372,763,-4173,-7707,171,605,-199,1,0,14,28,440,0,53298,1
2,32918,34666,32817,21675,23573,-4316,810,-1553,1531,-3848,-6740,186,602,-210,1,0,14,28,480,0,53298,1
2,32568,34649,32834,21676,23584,-4079,1117,-1640,1696,-2849,-4755,196,596,-202,1,0,14,28,520,0,53298,1
2,32534,34494,32834,21677,23594,-3916,1203,-1720,1055,-1341,-1989,190,604,-210,1,0,14,28,560,0,53298,1
2,32664,34447,32852,21678,23606,-3946,1059,-1669,359,248,1078,189,603,-205,1,0,14,28,600,0,53298,1
2,33263,34584,32852,21679,23617,-4093,733,-1650,-370,1737,3784,175,601,-213,1,0,14,28,640,0,53298,1
2,34639,34490,32862,21680,23627,-4260,497,-1530,-429,2881,5821,159,589,-219,1,0,14,28,680,0,53298,1
2,35570,34240,32860,21681,23638,-4574,323,-847,-581,3223,6990,138,598,-214,1,0,14,28,720,0,53298,1
2,33739,34085,32879,21682,23649,-4531,-211,-1489,-1644,3419,7206,108,602,-238,1,0,14,28,760,0,53298,1
2,32860,34026,32887,21683,23661,-4503,-347,-1342,-932,3581,6416,105,587,-235,1,0,14,28,800,0,53298,1
2,32506,34087,32905,21684,23672,-4528,-441,-1023,-581,3463,5091,84,580,-234,1,0,14,28,840,0,53298,1
2,32383,34007,32928,21685,23684,-4556,-553,-852,99,2376,3520,81,591,-249,1,0,14,28,880,0,53298,1
2,32366,33996,32934,21686,23695,-4547,-573,-777,188,1090,1421,77,587,-257,1,0,14,28,920,0,53298,1
2,32451,33984,32928,21687,23707,-4461,-464,-834,-467,95,-1035,79,591,-259,1,0,14,28,960,0,53298,1
1,32691,33992,32947,21688,0,-4485,-338,-798,-296,-990,-3073,90,596,-250,1,0,14,29,0,1,53298,1
2,33289,33880,32975,21689,22965,-4508,-323,-966,-269,-2020,-4758,103,593,-243,1,0,14,29,40,1,53298,1
2,34997,33903,32980,21690,22976,-4463,-131,-1078,258,-2797,-6062,124,604,-232,1,0,14,29,80,1,53298,1
2,35057,34070,33025,21691,22987,-4374,480,-941,913,-3532,-6532,144,604,-226,1,0,14,29,120,1,53298,1
2,33936,34150,33028,21692,22998,-4353,346,-1415,911,-3793,-6023,167,607,-215,1,0,14,29,160,1,53298,1
2,33180,34162,33120,21693,23010,-4243,520,-1608,582,-3173,-5411,175,601,-213,1,0,14,29,200,1,53298,1
2,32875,34038,33026,21694,23022,-4121,755,-1679,907,-2164,-3951,184,600,-202,1,0,14,29,240,1,53298,1
2,32763,34062,32989,21695,23034,-4018,926,-1684,1390,-1071,-1733,186,608,-204,1,0,14,29,280,1,53298,1
2,32945,34120,32962,21696,23045,-3993,902,-1695,1156,163,819,187,607,-213,1,0,14,29,320,1,53298,1
2,33611,34161,32944,21697,23056,-4068,727,-1663,427,1540,3171,182,606,-218,1,0,14,29,360,1,53298,1
2,35723,34099,32941,21698,23067,-4402,617,-563,414,2438,5117,159,607,-215,1,0,14,29,400,1,53298,1
2,35276,33867,32926,21699,23078,-4279,196,-1402,-225,1961,6556,141,601,-223,1,0,14,29,440,1,53298,1
2,33960,33755,32932,21700,23088,-4345,16,-1686,-218,2622,6849,110,600,-216,1,0,14,29,480,1,53298,1
2,32867,33686,32926,21701,23099,-4411,-105,-1600,-433,3738,6245,102,596,-238,1,0,14,29,520,1,53298,1
2,32471,33638,32913,21702,23111,-4501,-184,-1393,236,3954,5574,76,596,-242,1,0,14,29,560,1,53298,1
2,32293,33583,32910,21703,23122,-4621,-181,-833,1182,3133,4694,72,590,-260,1,0,14,29,600,1,53298,1
2,32249,33609,32908,21704,23133,-4525,-328,-956,659,2147,3047,63,591,-271,1,0,14,29,640,1,53298,1
2,32247,33616,32908,21705,23143,-4542,-366,-671,-325,1151,793,68,586,-266,1,0,14,29,680,1,53298,1
2,32301,33638,32911,21706,23154,-4484,-390,-754,-1592,-3,-1465,73,587,-259,1,0,14,29,720,1,53298,1
2,32467,33592,32915,21707,23164,-4463,-490,-862,-1127,-1471,-3451,82,590,-246,1,0,14,29,760,1,53298,1
2,32935,33705,32915,21708,23175,-4437,-426,-1042,-1044,-2630,-5353,96,596,-242,1,0,14,29,800,1,53298,1
2,34477,33758,32912,21709,23186,-4459,-247,-1091,-520,-3389,-6844,123,609,-237,1,0,14,29,840,1,53298,1
2,34747,33808,32920,21710,23197,-4522,123,-1008,33,-3997,-7683,139,603,-217,1,0,14,29,880,1,53298,1
2,33521,33898,32938,21711,23208,-4546,103,-1277,52,-4394,-7823,174,612,-218,1,0,14,29,920,1,53298,1
2,32641,33832,32961,21712,23219,-4454,337,-1407,181,-4177,-7531,197,611,-197,1,0,14,29,960,1,53298,1
1,32420,33753,32972,21713,0,-4309,619,-1511,579,-3497,-6422,203,601,-201,1,0,14,30,0,1,53298,1
2,32336,33721,32982,21714,22476,-4137,862,-1622,980,-2512,-4358,217,595,-205,1,0,14,30,40,1,53298,1
2,32322,33700,32957,21715,22487,-3952,984,-1713,909,-1167,-1566,229,595,-203,1,0,14,30,80,1,53298,1
2,32380,33765,32961,21716,22498,-3929,900,-1739,422,480,1500,213,597,-199,1,0,14,30,120,1,53298,1
2,32728,33807,32959,21717,22509,-3992,680,-1723,-161,2124,4290,195,595,-205,1,0,14,30,160,1,53298,1
2,34080,34047,32954,21718,22519,-4177,513,-1624,121,3476,6564,177,605,-217,1,0,14,30,200,1,53298,1
2,36131,33772,32946,21719,22530,-4853,580,480,900,3109,8159,147,603,-221,1,0,14,30,240,1,53298,1
2,33793,33634,32950,21720,22541,-4487,-31,-1976,-1255,3233,8975,124,604,-222,1,0,14,30,280,1,53298,1
2,32716,33580,32956,21721,22552,-4457,-18,-1778,286,4178,8421,95,591,-229,1,0,14,30,320,1,53298,1
2,32312,33636,32946,21722,22563,-4577,-163,-1550,-189,5441,7427,70,590,-238,1,0,14,30,360,1,53298,1
2,32226,33603,32944,21723,22574,-4618,-284,-1302,733,5057,6368,58,588,-264,1,0,14,30,400,1,53298,1
2,32182,33635,32933,21724,22585,-4578,-316,-978,1752,3859,4859,50,580,-284,1,0,14,30,440,1,53298,1
2,32185,33625,32937,21725,22596,-4588,-396,-537,769,2547,2482,49,583,-281,1,0,14,30,480,1,53298,1
2,32190,33635,32940,21726,22607,-4393,-200,-704,-1113,952,-196,55,583,-275,1,0,14,30,520,1,53298,1
2,32218,33625,32945,21727,22618,-4219,304,-526,-1200,-1024,-2047,66,574,-282,1,0,14,30,560,1,53298,1
2,32325,33520,32960,21728,22630,-4462,-423,-992,-2529,-2170,-3784,62,576,-274,1,0,14,30,600,1,53298,1
2,32661,33526,32969,21729,22640,-4526,-445,-1176,-1599,-3344,-5662,86,592,-262,1,0,14,30,640,1,53298,1
2,34605,33524,32973,21730,22649,-4454,-298,-1405,-1448,-3858,-7550,114,592,-238,1,0,14,30,680,1,53298,1
2,35087,33646,33021,21731,22658,-4389,741,-937,136,-4573,-8326,136,600,-240,1,0,14,30,720,1,53298,1
2,33672,33700,33075,21732,22667,-4312,426,-1811,815,-4752,-7575,165,603,-229,1,0,14,30,760,1,53298,1
2,32936,33657,33169,21733,22676,-4090,805,-1959,779,-3553,-6780,172,612,-222,1,0,14,30,800,1,53298,1
2,32883,33613,33305,21734,22685,-3944,1098,-1880,1002,-2072,-4725,190,598,-218,1,0,14,30,840,1,53298,1
2,33029,33735,33648,21735,22693,-3889,1135,-1943,1115,-581,-1909,197,603,-213,1,0,14,30,880,1,53298,1
2,33946,33903,34230,21736,22702,-4006,1030,-1666,1484,929,1101,189,605,-213,1,0,14,30,920,1,53298,1
2,34355,33927,34120,21737,22710,-4327,844,-681,2446,1296,3877,164,608,-218,1,0,14,30,960,1,53298,1
1,35348,33874,34178,21738,0,-4201,611,-1347,846,1558,5738,148,606,-224,1,0,14,31,0,1,53298,1
2,36059,33700,34184,21739,21987,-4227,256,-1657,-1333,2603,6326,125,599,-221,1,0,14,31,40,1,53298,1
2,35669,33715,34190,21740,21996,-4219,83,-1851,-1341,3616,6653,106,584,-234,1,0,14,31,80,1,53298,1
2,34363,33661,34201,21741,22005,-4528,-78,-1481,-404,4217,6527,89,591,-249,1,0,14,31,120,1,53298,1
2,33804,33838,34186,21742,22013,-4893,-357,-719,-875,3377,5458,79,587,-259,1,0,14,31,160,1,53298,1
2,33685,34183,34190,21743,22022,-5175,-902,-391,-2537,2355,2825,77,585,-257,1,0,14,31,200,1,53298,1
2,33894,35441,34191,21744,22031,-4881,-1345,-786,-5704,1037,-1344,82,580,-250,1,0,14,31,240,1,53298,1
2,34540,33911,34112,21745,22040,-4571,-1408,-879,-4025,-1204,-5010,89,585,-245,1,0,14,31,280,1,53298,1
2,36084,33626,34113,21746,22050,-4175,-410,-1409,44,-3022,-7327,123,589,-235,1,0,14,31,320,1,53298,1
2,35204,33877,34046,21747,22058,-3872,1008,-1366,4083,-4238,-7097,142,586,-226,1,0,14,31,360,1,53298,1
2,34822,34583,34072,21748,22067,-3919,1438,-2279,2463,-2970,-5494,161,595,-225,1,0,14,31,400,1,53298,1
2,35519,34906,34165,21749,22076,-3881,2760,-1532,3117,-1408,-2324,156,598,-230,1,0,14,31,440,1,53298,1
2,37210,35011,34080,21750,22085,-3838,2108,-1707,1329,-492,2201,147,599,-223,1,0,14,31,480,1,53298,1
2,37453,33861,34054,21751,22093,-3881,1014,-2448,-3195,1674,5674,126,590,-222,1,0,14,31,520,1,53298,1
2,34340,33658,34007,21752,22102,-4833,-80,-901,-855,3319,7696,107,585,-229,1,0,14,31,560,1,53298,1
2,33704,33805,33982,21753,22111,-5322,-1874,-644,-1558,2886,6035,95,585,-221,1,0,14,31,600,1,53298,1
2,34102,35426,34070,21754,22120,-5496,-2975,-316,-2221,863,380,105,583,-233,1,0,14,31,640,1,53298,1
2,39038,36920,34205,21755,22128,-4820,-1214,108,235,-2425,-5612,129,577,-229,1,0,14,31,680,1,53298,1
2,37125,34910,34461,21756,22137,-3062,2105,-1434,4473,-5087,-7703,144,590,-210,1,0,14,31,720,1,53298,1
2,35499,35544,34466,21757,22146,-4026,1689,-2563,-621,-2459,-8389,168,598,-200,1,0,14,31,760,1,53298,1
2,35881,36195,34520,21758,22155,-3910,3251,-1903,3875,-764,-5205,182,590,-212,1,0,14,31,800,1,53298,1
2,37497,35763,34489,21759,22163,-3985,2631,-450,4902,-779,1576,166,588,-218,1,0,14,31,840,1,53298,1
2,38200,36154,34516,21760,22172,-4085,1966,-1910,-4911,1851,5469,145,595,-225,1,0,14,31,880,1,53298,1
2,35403,35825,34526,21761,22180,-4924,603,-2009,-4494,4161,8250,116,586,-238,1,0,14,31,920,1,53298,1
2,34083,35810,34462,21762,22189,-5264,-924,-241,-1393,4451,7374,96,590,-240,1,0,14,31,960,1,53298,1
1,33849,35270,34435,21763,0,-5477,-2245,-326,-1861,2406,3636,93,585,-239,1,0,14,32,0,0,53298,1
2,34090,35286,34458,21764,21499,-4901,-1640,-508,-810,-624,-1776,110,590,-230,1,0,14,32,40,0,53298,1
2,37739,35531,34521,21765,21508,-4541,-1056,-787,-708,-2687,-5791,128,586,-240,1,0,14,32,80,0,53298,1
2,40025,35990,34646,21766,21518,-5215,465,-1343,5535,-5467,-5776,143,593,-225,1,0,14,32,120,0,53298,1
2,38366,36202,34699,21767,21529,-4589,-138,-2101,3875,-4580,-4616,151,593,-215,1,0,14,32,160,0,53298,1
2,38800,36354,34755,21768,21539,-4571,132,-2501,2858,-2999,-4098,161,607,-211,1,0,14,32,200,0,53298,1
2,38945,32149,34856,21769,21549,-3855,2108,-1232,7500,-1344,-2205,163,599,-209,1,0,14,32,240,0,53298,1
2,40070,34981,33802,21770,21559,-4095,1172,-1423,1361,-509,1083,161,595,-203,1,0,14,32,280,0,53298,1
2,39813,32829,34230,21771,21570,-3502,182,-1638,-6716,1431,2181,153,595,-203,1,0,14,32,320,0,53298,1
2,39306,37550,34788,21772,21580,-3962,92,-2083,-3237,2413,4890,135,591,-209,1,0,14,32,360,0,53298,1
2,37835,34705,34520,21773,21590,-5461,-2,-1404,4562,3023,6691,113,597,-229,1,0,14,32,400,0,53298,1
2,35861,33173,34585,21774,21601,-5311,-535,144,2191,2295,4444,108,584,-224,1,0,14,32,440,0,53298,1
2,35893,33825,34594,21775,21611,-5096,-1373,-389,-2682,1337,1489,107,595,-221,1,0,14,32,480,0,53298,1
2,38649,33717,34773,21776,21621,-4506,-744,-336,-2475,-885,-1506,115,593,-221,1,0,14,32,520,0,53298,1
2,40198,35229,34882,21777,21632,-4231,-791,-753,-527,-2671,-3049,113,595,-211,1,0,14,32,560,0,53298,1
2,39760,32710,34785,21778,21643,-3790,40,-1349,4344,-3439,-3828,130,594,-210,1,0,14,32,600,0,53298,1
2,38483,33347,34216,21779,21654,-4114,174,-1684,1503,-2400,-4624,147,595,-203,1,0,14,32,640,0,53298,1
2,39718,31719,34757,21780,21664,-4326,581,-1981,973,-1059,-4149,155,593,-199,1,0,14,32,680,0,53298,1
2,40357,32957,34784,21781,21675,-3937,2600,-1135,4474,-588,-1320,147,599,-189,1,0,14,32,720,0,53298,1
2,40533,32965,34755,21782,21686,-4259,1533,-1496,-5585,433,1455,152,596,-206,1,0,14,32,760,0,53298,1
2,39839,33744,34721,21783,21697,-3656,488,-1818,-9817,1934,3088,139,595,-211,1,0,14,32,800,0,53298,1
2,39275,35835,34726,21784,21708,-4812,-70,-1713,539,2948,6175,122,598,-200,1,0,14,32,840,0,53298,1
2,37569,37009,34806,21785,21719,-4849,-676,117,-398,3191,4735,105,583,-221,1,0,14,32,880,0,53298,1
2,37871,37319,34832,21786,21730,-5133,-1387,-96,-1902,1464,2340,100,584,-206,1,0,14,32,920,0,53298,1
2,40360,37319,34786,21787,21741,-4773,-570,-203,-3037,-858,-1239,126,582,-218,1,0,14,32,960,0,53298,1
1,39969,37011,34705,21788,0,-4652,-223,-1143,-2735,-2001,-3466,127,581,-213,1,0,14,33,0,1,53298,1
2,39115,37230,34711,21789,21013,-3813,344,-1624,596,-1734,-4148,147,577,-205,1,0,14,33,40,1,53298,1
2,39888,36847,34791,21790,21024,-4048,582,-1862,3396,-961,-2825,141,585,-201,1,0,14,33,80,1,53298,1
2,40440,37295,34819,21791,21035,-3909,2238,-1009,6452,-460,-278,140,584,-206,1,0,14,33,120,1,53298,1
2,40334,37447,34731,21792,21046,-4797,2137,-1082,-4523,632,1381,137,579,-203,1,0,14,33,160,1,53298,1
2,39436,34554,34732,21793,21057,-4078,925,-1767,-6800,1438,3071,128,590,-214,1,0,14,33,200,1,53298,1
2,38129,34155,34386,21794,21068,-5070,499,-1248,630,2293,4891,105,585,-203,1,0,14,33,240,1,53298,1
2,36181,34425,34330,21795,21079,-5136,-718,-223,-1706,2234,3192,109,579,-215,1,0,14,33,280,1,53298,1
2,36555,34159,34269,21796,21090,-4975,-1277,-284,-2436,854,531,103,583,-215,1,0,14,33,320,1,53298,1
2,38433,34248,34208,21797,21101,-4647,-596,-459,-2573,-907,-2643,123,583,-213,1,0,14,33,360,1,53298,1
2,38830,34150,34048,21798,21111,-4606,-234,-1119,-699,-2080,-4352,134,584,-208,1,0,14,33,400,1,53298,1
2,37778,34053,33875,21799,21122,-4060,226,-1446,2561,-2265,-4857,148,582,-202,1,0,14,33,440,1,53298,1
2,36981,34226,34030,21800,21132,-4273,675,-1672,3661,-1438,-4387,151,577,-205,1,0,14,33,480,1,53298,1
2,37175,35815,34126,21801,21142,-4251,1093,-1513,6481,-1182,-2290,157,591,-199,1,0,14,33,520,1,53298,1
2,38214,35215,33965,21802,21152,-4251,1197,-1087,1316,-369,146,156,602,-194,1,0,14,33,560,1,53298,1
2,38834,34612,33971,21803,21163,-4011,-241,-1678,-6361,868,1769,148,584,-200,1,0,14,33,600,1,53298,1
2,37803,34415,34010,21804,21173,-4107,-401,-1774,-4233,1470,3333,144,586,-206,1,0,14,33,640,1,53298,1
2,37129,34275,33936,21805,21183,-4805,-542,-1234,11,2064,3922,127,583,-197,1,0,14,33,680,1,53298,1
2,36519,34280,33895,21806,21194,-5070,-1086,142,-1144,1312,1903,128,586,-210,1,0,14,33,720,1,53298,1
2,37550,34276,33894,21807,21206,-4668,-1244,-504,-1818,-479,-747,134,578,-212,1,0,14,33,760,1,53298,1
2,38326,34203,33844,21808,21215,-4424,-423,-710,359,-2285,-2762,142,578,-208,1,0,14,33,800,1,53298,1
2,37700,34406,33815,21809,21226,-3938,-38,-1437,2136,-2147,-3758,152,586,-198,1,0,14,33,840,1,53298,1
2,37180,34440,33775,21810,21237,-4043,337,-1753,3319,-1557,-3358,152,580,-196,1,0,14,33,880,1,53298,1
2,37391,34528,33710,21811,21248,-4086,1370,-1546,5517,-571,-1917,158,582,-200,1,0,14,33,920,1,53298,1
2,38330,35361,33679,21812,21258,-4114,1778,-1038,3743,78,552,151,599,-207,1,0,14,33,960,1,53298,1
1,38649,34572,33677,21813,0,-4415,603,-1312,-5443,1179,2073,153,591,-199,1,0,14,34,0,1,53298,1
2,37818,34442,33723,21814,20525,-4205,-72,-1629,-5199,1931,3389,143,587,-209,1,0,14,34,40,1,53298,1
2,37622,34459,33755,21815,20535,-4612,-374,-1150,-462,2341,4189,137,587,-207,1,0,14,34,80,1,53298,1
2,37146,34646,33744,21816,20545,-4876,-888,-242,-564,2035,2709,127,589,-217,1,0,14,34,120,1,53298,1
2,37552,34593,33698,21817,20555,-4753,-1068,-376,-2039,487,273,136,572,-220,1,0,14,34,160,1,53298,1
2,37542,34600,33685,21818,20564,-4720,-870,-753,-3308,-829,-2340,133,591,-205,1,0,14,34,200,1,53298,1
2,36331,34729,33658,21819,20574,-4317,-614,-1458,-2673,-1162,-4488,161,579,-217,1,0,14,34,240,1,53298,1
2,35570,34935,33651,21820,20584,-3969,577,-1523,1778,-1133,-4753,163,591,-217,1,0,14,34,280,1,53298,1
2,35457,34930,33650,21821,20594,-3809,1640,-1272,5059,-712,-2811,174,582,-220,1,0,14,34,320,1,53298,1
2,36725,34860,33663,21822,20605,-4024,1737,-1110,2723,-155,384,168,588,-212,1,0,14,34,360,1,53298,1
2,37689,34495,33617,21823,20615,-4450,1652,-1370,-1335,811,3110,160,584,-212,1,0,14,34,400,1,53298,1
2,36313,34381,33646,21824,20625,-4134,1021,-1971,-1013,1635,6047,132,584,-220,1,0,14,34,440,1,53298,1
2,34313,34364,33663,21825,20635,-4746,-98,-1286,-601,3564,7289,102,586,-216,1,0,14,34,480,1,53298,1
2,33590,34339,33692,21826,20645,-5185,-1088,-461,-1567,3312,5418,101,583,-231,1,0,14,34,520,1,53298,1
2,33653,34320,33680,21827,20655,-5030,-1748,-199,-2337,1394,1941,106,582,-230,1,0,14,34,560,1,53298,1
2,34618,34318,33670,21828,20666,-4408,-1347,-407,-1630,-923,-2015,121,573,-229,1,0,14,34,600,1,53298,1
2,36823,34344,33619,21829,20677,-4192,-425,-586,851,-2826,-4664,135,581,-219,1,0,14,34,640,1,53298,1
2,36585,34483,33646,21830,20688,-4102,138,-1293,3319,-3393,-5610,147,573,-219,1,0,14,34,680,1,53298,1
2,35507,34797,33710,21831,20698,-4424,205,-1761,2174,-2575,-6157,169,589,-215,1,0,14,34,720,1,53298,1
2,34876,35857,33748,21832,20708,-4770,-90,-2070,3464,-1897,-5407,177,589,-197,1,0,14,34,760,1,53298,1
2,35394,36440,33728,21833,20719,-4384,1814,-1293,6881,-1987,-2301,171,599,-199,1,0,14,34,800,1,53298,1
2,37395,35120,34230,21834,20729,-4346,1085,-922,-712,-1432,446,177,593,-199,1,0,14,34,840,1,53298,1
2,37604,34942,34223,21835,20739,-4458,1050,-1431,-2687,90,2681,157,591,-183,1,0,14,34,880,1,53298,1
2,35915,34789,34179,21836,20749,-4327,366,-1697,-2026,1565,4075,153,593,-203,1,0,14,34,920,1,53298,1
2,34571,34741,34124,21837,20760,-4511,-280,-818,-903,2661,4404,142,588,-222,1,0,14,34,960,1,53298,1
1,33942,34740,34132,21838,0,-4894,-931,-463,-755,2034,3567,135,591,-217,1,0,14,35,0,0,53298,1
2,34064,34736,34131,21839,20038,-5083,-1465,-403,-2411,868,701,137,589,-217,1,0,14,35,40,0,53298,1
2,34845,34754,34165,21840,20048,-4676,-1177,-464,-2170,-485,-2693,149,583,-203,1,0,14,35,80,0,53298,1
2,37367,34856,34127,21841,20058,-4397,-350,-675,415,-2077,-4801,161,585,-201,1,0,14,35,120,0,53298,1
2,36536,34914,34119,21842,20068,-3801,840,-1440,2886,-2760,-4860,173,587,-205,1,0,14,35,160,0,53298,1
2,35942,34970,34092,21843,20079,-3886,1224,-1744,2651,-1542,-3533,179,585,-207,1,0,14,35,200,0,53298,1
2,37052,35063,34095,21844,20089,-4069,1540,-1680,1847,-8,-1078,175,595,-197,1,0,14,35,240,0,53298,1
2,37915,34768,34107,21845,20099,-4086,924,-967,898,558,2167,168,590,-192,1,0,14,35,280,0,53298,1
2,37391,34709,34091,21846,20109,-4065,83,-1637,-2074,1048,4444,162,590,-192,1,0,14,35,320,0,53298,1
2,35788,34505,34084,21847,20119,-4721,-185,-1191,-513,2178,5275,141,591,-207,1,0,14,35,360,0,53298,1
2,34677,34500,34027,21848,20128,-4842,-965,-487,-2079,2514,3824,133,583,-213,1,0,14,35,400,0,53298,1
2,34439,34592,34020,21849,20139,-4812,-1414,-388,-1860,1308,1609,129,569,-215,1,0,14,35,440,0,53298,1
2,35268,34646,34013,21850,20149,-4483,-1192,-673,-2098,-109,-1573,140,584,-212,1,0,14,35,480,0,53298,1
2,37424,34616,34021,21851,20159,-4333,-364,-644,101,-1488,-3525,149,579,-207,1,0,14,35,520,0,53298,1
2,37831,34054,33751,21852,20169,-4291,770,-1451,3235,-2359,-3785,157,587,-207,1,0,14,35,560,0,53298,1
2,37617,34149,33820,21853,20179,-4059,1172,-1837,3910,-1401,-3024,170,594,-200,1,0,14,35,600,0,53298,1
2,38480,34203,33807,21854,20189,-4182,2002,-1437,4848,-198,-768,158,590,-200,1,0,14,35,640,0,53298,1
2,38925,34558,33790,21855,20198,-4476,1567,-1038,-1300,889,1483,164,594,-200,1,0,14,35,680,0,53298,1
2,38536,35657,33985,21856,20207,-4135,327,-1687,-5733,1541,3457,148,590,-214,1,0,14,35,720,0,53298,1
2,36470,34676,33767,21857,20217,-4396,-178,-1330,1186,1848,5477,124,584,-212,1,0,14,35,760,0,53298,1
2,34765,34363,33692,21858,20227,-4573,-724,-258,497,2209,4282,125,591,-223,1,0,14,35,800,0,53298,1
2,34254,34183,33610,21859,20237,-4739,-1216,-422,-804,1362,2163,120,588,-216,1,0,14,35,840,0,53298,1
2,35063,34165,33625,21860,20246,-4572,-1057,-483,-706,-182,-767,126,586,-222,1,0,14,35,880,0,53298,1
2,37238,34091,33595,21861,20257,-4478,-669,-610,-199,-1678,-3283,136,588,-214,1,0,14,35,920,0,53298,1
2,37586,33828,33516,21862,20268,-4359,134,-1147,1980,-3159,-4543,143,589,-209,1,0,14,35,960,0,53298,1
1,36556,33828,33479,21863,0,-4248,145,-1579,1246,-2848,-5211,161,585,-207,1,0,14,36,0,1,53298,1
2,36111,34076,33514,21864,19551,-4337,577,-1572,1439,-1998,-4780,174,594,-196,1,0,14,36,40,1,53298,1
2,36281,34222,33526,21865,19561,-4180,1270,-1279,2279,-1472,-2970,172,588,-186,1,0,14,36,80,1,53298,1
2,36994,34231,33524,21866,19570,-4177,1141,-901,760,-943,-172,179,585,-193,1,0,14,36,120,1,53298,1
2,37880,34001,33534,21867,19579,-4242,819,-1408,-2647,240,1909,172,586,-196,1,0,14,36,160,1,53298,1
2,37389,33747,33500,21868,19588,-3873,-26,-1511,-3887,1487,3258,162,586,-200,1,0,14,36,200,1,53298,1
2,35840,33699,33462,21869,19598,-4600,-100,-1692,-213,2361,4869,147,581,-201,1,0,14,36,240,1,53298,1
2,34180,33620,33457,21870,19608,-4912,-289,-233,44,2911,4249,134,592,-198,1,0,14,36,280,1,53298,1
2,33646,33602,33430,21871,19618,-4939,-967,-561,-1634,1926,2634,129,585,-207,1,0,14,36,320,1,53298,1
2,33772,33575,33435,21872,19627,-4667,-1023,-533,-1661,485,78,139,587,-209,1,0,14,36,360,1,53298,1
2,34871,33551,33406,21873,19637,-4426,-896,-701,-842,-577,-2221,146,588,-214,1,0,14,36,400,1,53298,1
2,37463,33509,33405,21874,19646,-4352,-560,-752,984,-1728,-3650,149,591,-201,1,0,14,36,440,1,53298,1
2,36675,33451,33408,21875,19655,-4021,1195,-665,4159,-3012,-3933,175,587,-193,1,0,14,36,480,1,53298,1
2,34926,33580,33392,21876,19664,-4420,96,-1496,-26,-2174,-4178,182,588,-192,1,0,14,36,520,1,53298,1
2,34404,33665,33395,21877,19673,-4242,525,-1694,1485,-1382,-3688,181,589,-191,1,0,14,36,560,1,53298,1
2,34581,33844,33393,21878,19682,-4102,1127,-1503,2072,-336,-2036,188,596,-190,1,0,14,36,600,1,53298,1
2,35265,33791,33415,21879,19690,-4232,1192,-804,3135,17,986,188,590,-186,1,0,14,36,640,1,53298,1
2,36670,33672,33375,21880,19700,-4291,757,-1313,173,1077,3085,164,586,-184,1,0,14,36,680,1,53298,1
2,36937,33508,33366,21881,19709,-4387,563,-1211,-1511,2186,4463,153,593,-193,1,0,14,36,720,1,53298,1
2,35214,33504,33390,21882,19720,-4665,237,-1612,-1255,3106,5831,138,590,-204,1,0,14,36,760,1,53298,1
2,33893,33509,33361,21883,19731,-4836,-163,-921,-1207,3655,5784,117,599,-217,1,0,14,36,800,1,53298,1
2,33177,33457,33368,21884,19742,-5077,-809,-544,-3694,3118,4233,109,587,-219,1,0,14,36,840,1,53298,1
2,33087,33559,33373,21885,19752,-4878,-1139,-616,-3681,1786,1770,109,587,-217,1,0,14,36,880,1,53298,1
2,33312,33539,33372,21886,19762,-4547,-1044,-709,-2066,222,-970,120,590,-218,1,0,14,36,920,1,53298,1
2,34448,33585,33365,21887,19773,-4388,-895,-817,26,-1070,-3269,133,587,-219,1,0,14,36,960,1,53298,1
1,36824,33681,33389,21888,0,-4430,-117,-472,1545,-2196,-4938,143,593,-213,1,0,14,37,0,0,53298,1
2,35171,33766,33372,21889,19064,-4051,343,-946,1440,-3186,-5422,157,589,-211,1,0,14,37,40,0,53298,1
2,34195,33808,33366,21890,19074,-4266,212,-1491,-26,-2702,-5738,178,598,-198,1,0,14,37,80,0,53298,1
2,33835,33836,33383,21891,19084,-4241,520,-1688,667,-1969,-5362,196,596,-196,1,0,14,37,120,0,53298,1
2,33827,33940,33375,21892,19095,-4129,1188,-1399,1910,-1176,-3396,201,591,-199,1,0,14,37,160,0,53298,1
2,34129,33959,33399,21893,19105,-4108,1331,-919,3131,-805,-21,194,592,-202,1,0,14,37,200,0,53298,1
2,34825,33955,33412,21894,19116,-4091,800,-1471,-285,526,2437,188,592,-200,1,0,14,37,240,0,53298,1
2,35885,33621,33393,21895,19125,-4159,623,-1391,-1243,1701,4383,170,596,-200,1,0,14,37,280,0,53298,1
2,35274,33523,33366,21896,19136,-4222,184,-1708,-1556,2707,5876,152,596,-202,1,0,14,37,320,0,53298,1
2,33754,33515,33365,21897,19146,-4490,-55,-1411,122,3377,6667,129,589,-215,1,0,14,37,360,0,53298,1
2,33075,33640,33372,21898,19156,-4834,-274,-560,498,3095,6324,119,589,-225,1,0,14,37,400,0,53298,1
2,32877,33725,33400,21899,19166,-4861,-830,-688,-1926,2507,4414,113,587,-223,1,0,14,37,440,0,53298,1
2,32922,33608,33425,21900,19177,-4752,-1132,-670,-2598,1435,1600,114,576,-222,1,0,14,37,480,0,53298,1
2,33065,33690,33363,21901,19188,-4510,-912,-701,-1068,177,-1072,112,594,-214,1,0,14,37,520,0,53298,1
2,33715,33822,33377,21902,19197,-4447,-742,-791,1105,-1268,-3094,121,591,-219,1,0,14,37,560,0,53298,1
2,36631,33831,33431,21903,19207,-4511,-371,-776,1619,-2240,-4903,141,597,-215,1,0,14,37,600,0,53298,1
2,35944,33850,33419,21904,19216,-4430,805,-725,2499,-3453,-5579,155,593,-207,1,0,14,37,640,0,53298,1
2,34414,33918,33441,21905,19226,-4461,305,-1493,19,-3127,-5573,174,594,-206,1,0,14,37,680,0,53298,1
2,34034,34096,33479,21906,19236,-4232,593,-1750,1128,-2263,-5106,190,598,-198,1,0,14,37,720,0,53298,1
2,34042,34125,33466,21907,19246,-4106,1100,-1457,1806,-1186,-3432,180,602,-188,1,0,14,37,760,0,53298,1
2,34326,33997,33478,21908,19256,-4097,1253,-952,3016,-838,-314,194,594,-202,1,0,14,37,800,0,53298,1
2,34959,33888,33500,21909,19266,-4061,811,-1538,340,219,2148,183,597,-201,1,0,14,37,840,0,53298,1
2,35549,33677,33505,21910,19276,-4145,533,-1511,-1079,1521,3861,165,591,-207,1,0,14,37,880,0,53298,1
2,35025,33739,33520,21911,19286,-4213,209,-1657,-1249,2691,5209,152,602,-210,1,0,14,37,920,0,53298,1
2,34040,33637,33519,21912,19296,-4466,-75,-1435,-232,3347,5905,133,591,-213,1,0,14,37,960,0,53298,1
1,33357,33644,33554,21913,0,-4771,-336,-837,-634,3637,5279,117,605,-209,1,0,14,38,0,0,53298,1
2,33140,33664,33508,21914,18578,-4887,-817,-663,-2624,2878,3396,108,590,-224,1,0,14,38,40,0,53298,1
2,33147,33644,33534,21915,18588,-4700,-1028,-652,-2560,1409,999,107,591,-229,1,0,14,38,80,0,53298,1
2,33318,33596,33329,21916,18598,-4468,-890,-724,-910,-83,-1316,110,592,-230,1,0,14,38,120,0,53298,1
2,34071,33757,33355,21917,18608,-4460,-812,-837,293,-1187,-3336,130,600,-228,1,0,14,38,160,0,53298,1
2,35253,33782,33333,21918,18617,-4532,-484,-811,726,-1962,-5234,149,597,-219,1,0,14,38,200,0,53298,1
2,34348,33957,33318,21919,18627,-4507,-86,-903,1284,-3012,-6121,172,600,-204,1,0,14,38,240,0,53298,1
2,33520,33939,33347,21920,18636,-4444,-72,-1235,1497,-3250,-6488,189,603,-209,1,0,14,38,280,0,53298,1
2,33045,34064,33329,21921,18646,-4382,227,-1371,1987,-3035,-6395,207,599,-209,1,0,14,38,320,0,53298,1
2,32858,34317,33370,21922,18655,-4279,595,-1404,3014,-2554,-5155,228,594,-208,1,0,14,38,360,0,53298,1
2,32784,34430,33360,21923,18663,-4133,818,-1494,3117,-1717,-3035,216,602,-194,1,0,14,38,400,0,53298,1
2,32885,34678,33388,21924,18671,-4053,868,-1598,1904,-476,-498,217,597,-197,1,0,14,38,440,0,53298,1
2,33082,35219,33402,21925,18681,-4050,695,-1616,541,1022,2052,216,594,-204,1,0,14,38,480,0,53298,1
2,33759,35666,33370,21926,18690,-4172,445,-1609,14,2313,4386,202,610,-206,1,0,14,38,520,0,53298,1
2,35665,35745,33363,21927,18699,-4712,339,-82,543,2961,6168,176,604,-212,1,0,14,38,560,0,53298,1
2,34982,35657,33414,21928,18708,-4344,-257,-1538,-520,2161,7235,151,605,-207,1,0,14,38,600,0,53298,1
2,33852,35939,33429,21929,18717,-4404,-233,-1633,-327,2908,6970,139,601,-209,1,0,14,38,640,0,53298,1
2,33110,35953,33478,21930,18727,-4506,-289,-1453,-1316,4075,5967,113,599,-221,1,0,14,38,680,0,53298,1
2,32886,36104,33501,21931,18736,-4826,-464,-828,-1679,3857,4872,104,598,-242,1,0,14,38,720,0,53298,1
2,32780,36052,33480,21932,18745,-4713,-747,-917,-1424,2556,3377,90,598,-226,1,0,14,38,760,0,53298,1
2,32818,36087,33477,21933,18755,-4568,-800,-733,-1242,1294,1036,98,590,-244,1,0,14,38,800,0,53298,1
2,32877,36108,33494,21934,18763,-4396,-602,-706,-1050,144,-1211,97,597,-245,1,0,14,38,840,0,53298,1
2,33086,36069,33441,21935,18772,-4463,-602,-770,-510,-1119,-3058,114,596,-236,1,0,14,38,880,0,53298,1
2,33738,36160,33501,21936,18781,-4543,-588,-929,-659,-2142,-4924,132,600,-232,1,0,14,38,920,0,53298,1
2,34667,36261,33507,21937,18789,-4565,-403,-1097,-196,-2911,-6456,154,602,-226,1,0,14,38,960,0,53298,1
1,34282,36537,33504,21938,0,-4517,105,-1081,769,-3559,-7176,181,603,-213,1,0,14,39,0,1,53298,1
2,33525,36536,33442,21939,18091,-4439,174,-1411,1214,-3669,-6940,194,604,-212,1,0,14,39,40,1,53298,1
2,33057,36473,33440,21940,18100,-4312,451,-1572,902,-3091,-6286,214,602,-216,1,0,14,39,80,1,53298,1
2,32965,36440,33463,21941,18109,-4148,738,-1565,1218,-2120,-4625,224,602,-194,1,0,14,39,120,1,53298,1
2,32981,36499,33468,21942,18119,-4031,908,-1598,1367,-1015,-2105,227,607,-207,1,0,14,39,160,1,53298,1
2,33140,36593,33457,21943,18128,-4071,819,-1352,1070,129,840,226,598,-200,1,0,14,39,200,1,53298,1
2,33536,36785,33490,21944,18138,-4183,609,-915,1118,729,3605,196,600,-188,1,0,14,39,240,1,53298,1
2,34155,36819,33539,21945,18147,-4274,386,-1133,121,1163,5566,187,599,-201,1,0,14,39,280,1,53298,1
2,34900,36510,33489,21946,18157,-4380,-2,-1461,-1607,2045,6385,156,600,-196,1,0,14,39,320,1,53298,1
2,34662,36270,33525,21947,18167,-4464,-371,-1699,-1776,2891,6488,144,606,-208,1,0,14,39,360,1,53298,1
2,33678,36216,33532,21948,18177,-4660,-544,-1061,-577,3192,6046,130,598,-222,1,0,14,39,400,1,53298,1
2,33237,36159,33526,21949,18186,-4649,-562,-840,186,2414,5145,114,598,-226,1,0,14,39,440,1,53298,1
2,33103,36129,33513,21950,18197,-4731,-819,-725,-1896,1685,3188,116,598,-226,1,0,14,39,480,1,53298,1
2,33100,36116,33493,21951,18208,-4782,-1025,-663,-3400,811,523,105,597,-219,1,0,14,39,520,1,53298,1
2,33253,36067,33410,21952,18217,-4704,-787,-719,-2546,-295,-2049,127,599,-219,1,0,14,39,560,1,53298,1
2,33771,36096,33392,21953,18227,-4628,-770,-882,-688,-1503,-4048,147,595,-219,1,0,14,39,600,1,53298,1
2,35087,36183,33358,21954,18236,-4484,-577,-1022,471,-2201,-5767,159,603,-211,1,0,14,39,640,1,53298,1
2,34655,36469,33371,21955,18246,-4388,166,-685,1496,-2996,-6655,181,603,-215,1,0,14,39,680,1,53298,1
2,33682,36601,33380,21956,18255,-4360,-55,-1318,890,-3189,-6493,184,604,-196,1,0,14,39,720,1,53298,1
2,33179,36579,33405,21957,18265,-4276,301,-1499,1564,-2757,-5922,209,611,-199,1,0,14,39,760,1,53298,1
2,33025,36546,33383,21958,18275,-4199,660,-1530,1784,-1861,-4550,219,601,-201,1,0,14,39,800,1,53298,1
2,33057,36582,33369,21959,18285,-4157,1190,-1370,2793,-1112,-1907,222,596,-206,1,0,14,39,840,1,53298,1
2,33297,36730,33383,21960,18295,-4294,645,-998,2167,-306,1138,214,592,-202,1,0,14,39,880,1,53298,1
2,33782,36845,33379,21961,18306,-4173,558,-1234,-45,665,3252,201,599,-195,1,0,14,39,920,1,53298,1
2,34892,36686,33376,21962,18317,-4274,151,-1273,-834,1486,4885,174,594,-184,1,0,14,39,960,1,53298,1
1,35343,36234,33309,21963,0,-4477,-264,-1480,-1187,2201,5666,163,597,-201,1,0,14,40,0,1,53298,1
2,34730,36074,33325,21964,17605,-4423,-409,-1699,-727,2861,5656,147,599,-203,1,0,14,40,40,1,53298,1
2,33483,35976,33320,21965,17616,-4585,-319,-673,186,2986,5178,128,598,-210,1,0,14,40,80,1,53298,1
2,32986,35960,33326,21966,17626,-4500,-417,-1027,-34,2373,4526,117,595,-215,1,0,14,40,120,1,53298,1
2,32764,35930,33296,21967,17636,-4672,-483,-751,-896,1907,3050,113,595,-221,1,0,14,40,160,1,53298,1
2,32750,35919,33284,21968,17645,-4737,-740,-771,-2717,1607,998,119,601,-229,1,0,14,40,200,1,53298,1
2,32844,35931,33316,21969,17654,-4644,-697,-908,-2389,648,-1176,128,600,-222,1,0,14,40,240,1,53298,1
2,33168,35931,33286,21970,17664,-4593,-671,-804,-736,-665,-2781,141,595,-225,1,0,14,40,280,1,53298,1
2,34020,36017,33313,21971,17674,-4513,-644,-959,-664,-1550,-4434,161,597,-217,1,0,14,40,320,1,53298,1
2,35403,36122,33305,21972,17684,-4423,-134,-852,672,-2184,-5406,167,603,-219,1,0,14,40,360,1,53298,1
2,34519,36272,33285,21973,17694,-4263,162,-996,2060,-2932,-5132,176,596,-214,1,0,14,40,400,1,53298,1
2,33781,36459,33291,21974,17705,-4290,-37,-1565,1022,-2325,-4899,209,603,-205,1,0,14,40,440,1,53298,1
2,33333,36474,33242,21975,17715,-4237,191,-1642,1432,-1472,-4463,211,597,-209,1,0,14,40,480,1,53298,1
2,33252,36551,33270,21976,17724,-4181,576,-1570,2446,-690,-3066,220,604,-218,1,0,14,40,520,1,53298,1
2,33403,36635,33270,21977,17734,-4119,1050,-1233,3606,-395,-480,214,606,-208,1,0,14,40,560,1,53298,1
2,33800,36660,33265,21978,17744,-4232,712,-897,2576,-102,2188,204,602,-206,1,0,14,40,600,1,53298,1
2,34335,36550,33269,21979,17754,-4179,378,-1357,-1122,967,3762,183,611,-209,1,0,14,40,640,1,53298,1
2,34914,36258,33260,21980,17763,-4258,170,-1370,-1536,1916,5062,184,598,-208,1,0,14,40,680,1,53298,1
2,34663,36060,33270,21981,17772,-4331,-115,-1725,-850,2712,6086,155,607,-217,1,0,14,40,720,1,53298,1
2,33695,35943,33273,21982,17781,-4499,-205,-1558,853,3332,6517,135,599,-221,1,0,14,40,760,1,53298,1
2,32984,35888,33267,21983,17791,-4684,-172,-903,761,3520,6020,109,611,-223,1,0,14,40,800,1,53298,1
2,32656,35863,33273,21984,17801,-4575,-423,-1166,-458,3091,4838,104,600,-250,1,0,14,40,840,1,53298,1
2,32570,35846,33251,21985,17811,-4561,-441,-877,-151,2463,3281,93,605,-237,1,0,14,40,880,1,53298,1
2,32564,35860,33253,21986,17822,-4493,-567,-861,-430,1698,1496,98,600,-252,1,0,14,40,920,1,53298,1
2,32598,35850,33237,21987,17832,-4447,-410,-811,108,484,-226,91,599,-249,1,0,14,40,960,1,53298,1
1,32680,35877,33256,21988,0,-4458,-422,-847,-114,-841,-1813,107,605,-243,1,0,14,41,0,0,53298,1
2,33011,35908,33255,21989,17119,-4493,-451,-985,-1128,-1732,-3567,119,603,-243,1,0,14,41,40,0,53298,1
2,33697,35918,33225,21990,17130,-4527,-369,-1038,-1142,-2478,-5084,136,610,-242,1,0,14,41,80,0,53298,1
2,35025,36029,33224,21991,17139,-4536,-214,-1102,-493,-3016,-6122,157,607,-223,1,0,14,41,120,0,53298,1
2,34526,36259,33215,21992,17149,-4438,213,-996,489,-3485,-6407,177,609,-217,1,0,14,41,160,0,53298,1
2,33655,36345,33228,21993,17160,-4361,223,-1281,897,-3571,-5914,195,607,-197,1,0,14,41,200,0,53298,1
2,33015,36228,33143,21994,17169,-4264,359,-1342,496,-3099,-5169,202,600,-208,1,0,14,41,240,0,53298,1
2,32834,36168,33146,21995,17179,-4250,393,-1445,-188,-2355,-3897,215,597,-197,1,0,14,41,280,0,53298,1
2,32786,36162,33152,21996,17189,-4212,492,-1544,-259,-1484,-2154,220,598,-198,1,0,14,41,320,0,53298,1
2,32841,36174,33125,21997,17199,-4129,252,-1595,-377,-315,-201,217,605,-199,1,0,14,41,360,0,53298,1
2,33086,36289,33110,21998,17209,-4191,153,-1313,150,714,1521,217,607,-203,1,0,14,41,400,0,53298,1
2,33562,36445,33099,21999,17219,-4309,-39,-1211,-77,1442,2728,202,600,-200,1,0,14,41,440,0,53298,1
2,34271,36413,33104,22000,17230,-4565,-164,-727,-325,1662,3362,191,615,-201,1,0,14,41,480,0,53298,1
2,34370,36119,33102,22001,17240,-4530,-268,-1102,-403,1216,3634,185,601,-205,1,0,14,41,520,0,53298,1
2,34354,35988,33087,22002,17251,-4332,-270,-1417,-353,1446,3485,171,607,-207,1,0,14,41,560,0,53298,1
2,34355,35875,33083,22003,17261,-4276,-136,-1338,269,1901,3411,159,599,-219,1,0,14,41,600,0,53298,1
2,34276,35835,33098,22004,17271,-4372,-192,-1275,21,2199,3372,152,604,-220,1,0,14,41,640,0,53298,1
2,33860,35779,33092,22005,17281,-4509,-236,-835,150,1989,3159,138,610,-216,1,0,14,41,680,0,53298,1
2,33495,35769,33096,22006,17291,-4512,-212,-812,194,1297,2699,133,603,-233,1,0,14,41,720,0,53298,1
2,33308,35740,33075,22007,17302,-4598,-399,-789,-1089,901,1544,132,610,-228,1,0,14,41,760,0,53298,1
2,33313,35754,33079,22008,17311,-4613,-565,-859,-1692,343,89,134,602,-228,1,0,14,41,800,0,53298,1
2,33504,35775,33088,22009,17320,-4530,-583,-927,-872,-503,-1285,141,609,-227,1,0,14,41,840,0,53298,1
2,33907,35816,33092,22010,17329,-4427,-519,-998,7,-1356,-2498,145,609,-217,1,0,14,41,880,0,53298,1
2,34691,35883,33055,22011,17339,-4404,-343,-1060,205,-1855,-3524,162,604,-208,1,0,14,41,920,0,53298,1
2,34812,36044,33108,22012,17349,-4379,74,-927,591,-2220,-3981,171,601,-217,1,0,14,41,960,0,53298,1
1,34218,36139,33110,22013,0,-4363,119,-1172,651,-2382,-3697,183,603,-199,1,0,14,42,0,1,53298,1
2,33844,36234,33105,22014,16634,-4307,226,-1435,429,-1994,-3172,205,605,-201,1,0,14,42,40,1,53298,1
2,33744,36281,33098,22015,16643,-4231,382,-1610,218,-1250,-2266,193,601,-195,1,0,14,42,80,1,53298,1
2,34098,36307,33064,22016,16653,-4132,554,-1589,626,-402,-787,203,589,-197,1,0,14,42,120,1,53298,1
2,34744,36221,33053,22017,16664,-4216,549,-1159,822,291,1073,192,596,-202,1,0,14,42,160,1,53298,1
2,35105,36018,33025,22018,16674,-4175,415,-1266,252,783,2780,187,599,-199,1,0,14,42,200,1,53298,1
2,34823,35822,33020,22019,16684,-4173,237,-1553,58,1688,4055,169,601,-201,1,0,14,42,240,1,53298,1
2,33981,35717,33007,22020,16694,-4291,197,-1370,592,2679,4972,145,601,-211,1,0,14,42,280,1,53298,1
2,33006,35669,33007,22021,16704,-4508,62,-1065,614,2922,5466,131,609,-217,1,0,14,42,320,1,53298,1
2,32655,35629,33012,22022,16715,-4562,-131,-1057,-105,2621,5266,109,603,-219,1,0,14,42,360,1,53298,1
2,32525,35644,33028,22023,16725,-4563,-312,-1035,-981,2263,4302,93,591,-229,1,0,14,42,400,1,53298,1
2,32480,35622,33037,22024,16735,-4594,-547,-937,-1470,1779,2745,105,595,-233,1,0,14,42,440,1,53298,1
2,32523,35624,33024,22025,16745,-4573,-625,-925,-1130,912,930,109,601,-241,1,0,14,42,480,1,53298,1
2,32648,35625,33003,22026,16756,-4551,-601,-837,-436,-153,-926,108,592,-240,1,0,14,42,520,1,53298,1
2,33170,35673,33042,22027,16766,-4505,-591,-844,-447,-1043,-2825,119,595,-233,1,0,14,42,560,1,53298,1
2,34166,35735,33011,22028,16776,-4450,-460,-887,-67,-1957,-4367,126,600,-220,1,0,14,42,600,1,53298,1
2,35253,35873,33031,22029,16786,-4488,-99,-830,450,-2738,-5404,151,605,-219,1,0,14,42,640,1,53298,1
2,34343,36088,33038,22030,16797,-4435,81,-1119,737,-3467,-5552,168,598,-206,1,0,14,42,680,1,53298,1
2,33610,36207,33040,22031,16807,-4385,208,-1501,641,-3200,-5364,177,601,-199,1,0,14,42,720,1,53298,1
2,33175,36212,33032,22032,16817,-4309,416,-1550,551,-2400,-4753,204,602,-200,1,0,14,42,760,1,53298,1
2,33097,36272,33057,22033,16827,-4218,464,-1569,544,-1571,-3423,206,600,-188,1,0,14,42,800,1,53298,1
2,33182,36343,33054,22034,16838,-4093,562,-1512,1072,-744,-1576,209,601,-199,1,0,14,42,840,1,53298,1
2,33511,36439,33052,22035,16849,-4199,605,-1020,1230,60,458,207,599,-199,1,0,14,42,880,1,53298,1
2,33853,36385,33042,22036,16860,-4196,536,-1147,517,535,2374,185,601,-199,1,0,14,42,920,1,53298,1
2,34593,36125,33021,22037,16870,-4217,316,-1412,-332,1329,3812,178,602,-194,1,0,14,42,960,1,53298,1
1,34832,35866,33012,22038,0,-4324,61,-1422,-489,2166,4773,160,604,-206,1,0,14,43,0,0,53298,1
2,34178,35714,33011,22039,16149,-4437,-163,-1506,-488,2873,5242,145,597,-211,1,0,14,43,40,0,53298,1
2,33084,35660,33006,22040,16159,-4562,-191,-921,-84,3004,5092,131,607,-215,1,0,14,43,80,0,53298,1
2,32660,35637,33009,22041,16170,-4660,-356,-829,-844,2562,4368,123,601,-223,1,0,14,43,120,0,53298,1
2,32504,35617,33005,22042,16181,-4665,-641,-865,-2260,2036,2823,120,602,-232,1,0,14,43,160,0,53298,1
2,32469,35618,33003,22043,16191,-4645,-818,-780,-1971,1195,889,120,604,-232,1,0,14,43,200,0,53298,1
2,32527,35613,32993,22044,16201,-4619,-677,-714,-1108,-75,-1076,124,598,-230,1,0,14,43,240,0,53298,1
2,32853,35627,32994,22045,16210,-4649,-714,-697,-1023,-1372,-2999,137,597,-225,1,0,14,43,280,0,53298,1
2,33621,35728,33025,22046,16221,-4586,-657,-933,-1841,-2230,-4972,134,596,-200,1,0,14,43,320,0,53298,1
2,34809,35834,32993,22047,16230,-4529,-368,-1073,-1187,-2705,-6457,175,607,-207,1,0,14,43,360,0,53298,1
2,33949,36061,33006,22048,16240,-4396,292,-791,1418,-3508,-6462,188,588,-212,1,0,14,43,400,0,53298,1
2,33214,36170,33045,22049,16250,-4326,68,-1486,661,-3226,-6010,209,591,-199,1,0,14,43,440,0,53298,1
2,32813,36118,33020,22050,16261,-4226,315,-1575,308,-2227,-5479,217,593,-199,1,0,14,43,480,0,53298,1
2,32667,36094,33042,22051,16271,-4105,633,-1512,1205,-1345,-3731,232,598,-196,1,0,14,43,520,0,53298,1
2,32692,36146,33031,22052,16281,-4031,923,-1552,1933,-527,-1112,231,601,-199,1,0,14,43,560,0,53298,1
2,32909,36280,33035,22053,16292,-4119,728,-1332,1631,567,1720,223,591,-193,1,0,14,43,600,0,53298,1
2,33479,36333,33005,22054,16302,-4222,551,-915,1233,1286,4222,204,596,-198,1,0,14,43,640,0,53298,1
2,34148,36102,33020,22055,16312,-4300,345,-1213,126,1794,6036,182,602,-194,1,0,14,43,680,0,53298,1
2,34408,35856,33023,22056,16321,-4432,-89,-1630,-793,2744,6945,167,597,-205,1,0,14,43,720,0,53298,1
2,33514,35686,33024,22057,16332,-4520,-137,-1522,713,3626,7259,141,595,-207,1,0,14,43,760,0,53298,1
2,32754,35644,33029,22058,16342,-4726,-104,-923,809,3903,6952,117,599,-219,1,0,14,43,800,0,53298,1
2,32423,35609,33002,22059,16352,-4708,-519,-991,-1569,3676,5769,112,588,-230,1,0,14,43,840,0,53298,1
2,32365,35626,33013,22060,16362,-4693,-724,-695,-1897,3095,3781,98,592,-234,1,0,14,43,880,0,53298,1
2,32365,35597,32997,22061,16372,-4691,-965,-456,-2461,1900,1241,97,597,-245,1,0,14,43,920,0,53298,1
2,32490,35601,33000,22062,16381,-4529,-793,-660,-1533,59,-1112,110,586,-236,1,0,14,43,960,0,53298,1
1,32869,35625,32982,22063,0,-4620,-708,-731,-77,-1692,-3252,122,594,-230,1,0,14,44,0,1,53298,1
2,34718,35685,32965,22064,15663,-4568,-720,-911,-724,-2648,-5656,136,598,-220,1,0,14,44,40,1,53298,1
2,34417,35945,32994,22065,15674,-4452,351,-483,1199,-4086,-6752,158,588,-202,1,0,14,44,80,1,53298,1
2,33317,36094,32996,22066,15684,-4311,-108,-1799,1037,-4375,-6563,174,604,-198,1,0,14,44,120,1,53298,1
2,32711,36053,32980,22067,15694,-4148,634,-2035,1237,-3069,-6286,194,592,-194,1,0,14,44,160,1,53298,1
2,32560,36019,32995,22068,15705,-4077,1470,-1934,1830,-1519,-4200,203,595,-189,1,0,14,44,200,1,53298,1
2,32581,36050,32983,22069,15715,-4007,1356,-1500,1957,-132,-414,194,604,-196,1,0,14,44,240,1,53298,1
2,32785,36188,32974,22070,15724,-4279,413,-965,3448,514,2833,183,599,-193,1,0,14,44,280,1,53298,1
2,33134,36274,32958,22071,15734,-4364,52,-990,1406,1172,3824,173,605,-203,1,0,14,44,320,1,53298,1
2,33770,36238,32957,22072,15744,-4446,-143,-951,351,1463,4062,158,596,-200,1,0,14,44,360,1,53298,1
2,34268,35940,32956,22073,15754,-4447,-216,-1266,-561,1744,3843,152,608,-206,1,0,14,44,400,1,53298,1
2,34417,35773,32972,22074,15763,-4300,-264,-1262,-912,1974,3479,130,600,-208,1,0,14,44,440,1,53298,1
2,33763,35648,32971,22075,15773,-4281,-67,-1357,-176,1913,3278,116,594,-214,1,0,14,44,480,1,53298,1
2,33188,35551,32955,22076,15784,-4576,-221,-910,-1603,1884,2456,125,597,-221,1,0,14,44,520,1,53298,1
2,32920,35529,32941,22077,15793,-4507,-265,-874,-2079,1208,1332,111,601,-213,1,0,14,44,560,1,53298,1
2,33202,35240,33039,22078,15802,-4578,-388,-809,-2666,665,-220,122,594,-222,1,0,14,44,600,1,53298,1
2,34113,36374,33910,22079,15811,-4783,-489,-1139,-2256,249,-1381,124,598,-204,1,0,14,44,640,1,53298,1
2,34735,36796,33982,22080,15819,-4969,-770,-755,-99,-589,-2438,134,606,-206,1,0,14,44,680,1,53298,1
2,35184,36863,34018,22081,15828,-4639,-1059,-1005,-120,-1721,-4448,158,594,-208,1,0,14,44,720,1,53298,1
2,35023,36999,34057,22082,15838,-4224,-636,-895,1230,-2237,-5921,175,597,-209,1,0,14,44,760,1,53298,1
2,34390,37170,34069,22083,15848,-4271,-446,-855,1153,-2602,-6714,197,593,-213,1,0,14,44,800,1,53298,1
2,33982,37211,34076,22084,15858,-4266,566,-1499,-2842,-2038,-7317,216,600,-212,1,0,14,44,840,1,53298,1
2,33833,37178,34100,22085,15868,-3941,1883,-1868,530,-1786,-4298,223,597,-207,1,0,14,44,880,1,53298,1
2,33906,37210,34080,22086,15879,-3822,1179,-1916,1446,-397,-129,220,594,-206,1,0,14,44,920,1,53298,1
2,34229,37285,34077,22087,15890,-3903,186,-1476,1827,1011,2549,210,596,-206,1,0,14,44,960,1,53298,1
1,34995,37240,34076,22088,0,-3930,596,-769,3523,1483,4478,188,604,-216,1,0,14,45,0,1,53298,1
2,35412,37000,34044,22089,15179,-4458,87,-961,2348,1655,6205,172,614,-200,1,0,14,45,40,1,53298,1
2,34853,36538,33760,22090,15189,-5250,-1102,-1201,847,2244,5944,145,609,-205,1,0,14,45,80,1,53298,1
2,34053,36536,33820,22091,15199,-4975,-893,-574,-883,2144,3413,147,605,-211,1,0,14,45,120,1,53298,1
2,33683,36512,33792,22092,15210,-4410,-781,-830,-2916,1349,1402,146,610,-218,1,0,14,45,160,1,53298,1
2,33627,36557,33859,22093,15220,-4692,-747,-689,-1792,203,-83,153,607,-215,1,0,14,45,200,1,53298,1
2,33725,36540,33887,22094,15230,-4924,-645,-1003,-2697,-244,-1657,157,601,-209,1,0,14,45,240,1,53298,1
2,34019,36639,33930,22095,15239,-4647,-580,-877,-2665,-626,-2881,161,601,-215,1,0,14,45,280,1,53298,1
2,34689,36867,34089,22096,15248,-4604,-1250,-585,-1308,-1782,-4393,180,596,-208,1,0,14,45,320,1,53298,1
2,35098,37024,34060,22097,15258,-4463,-880,-784,-849,-2927,-5952,205,587,-207,1,0,14,45,360,1,53298,1
2,34539,37246,34098,22098,15268,-4284,552,-1216,440,-3559,-6329,215,597,-191,1,0,14,45,400,1,53298,1
2,34030,37273,34103,22099,15277,-4079,942,-2111,-2016,-1878,-5095,235,583,-201,1,0,14,45,440,1,53298,1
2,33874,37222,34060,22100,15286,-3905,1331,-1798,1001,-581,-1680,235,593,-203,1,0,14,45,480,1,53298,1
2,33913,37232,34053,22101,15296,-4120,230,-1583,2262,663,1712,216,592,-192,1,0,14,45,520,1,53298,1
2,34281,37255,34050,22102,15307,-4093,263,-1060,3698,1257,3767,217,599,-203,1,0,14,45,560,1,53298,1
2,34895,37203,34042,22103,15317,-4170,665,-835,2681,1594,5498,186,596,-208,1,0,14,45,600,1,53298,1
2,35491,37018,34019,22104,15327,-4602,-128,-1171,609,2122,6861,171,611,-207,1,0,14,45,640,1,53298,1
2,35112,36883,34032,22105,15336,-5085,-1081,-1135,519,2593,6252,145,605,-211,1,0,14,45,680,1,53298,1
2,34304,36736,34020,22106,15346,-4650,-591,-1069,-68,2752,4541,133,605,-213,1,0,14,45,720,1,53298,1
2,33721,36695,34016,22107,15356,-4333,-302,-883,-410,2234,3498,123,609,-217,1,0,14,45,760,1,53298,1
2,33564,36640,33978,22108,15367,-4623,-551,-756,-853,1440,2564,124,598,-218,1,0,14,45,800,1,53298,1
2,33538,36600,33991,22109,15377,-4720,-780,-782,-1581,635,740,125,609,-215,1,0,14,45,840,1,53298,1
2,33580,36548,33985,22110,15387,-4430,-160,-967,-1386,-226,-1141,135,601,-229,1,0,14,45,880,1,53298,1
2,33710,36537,33969,22111,15397,-4614,39,-937,-1358,-701,-2213,132,606,-206,1,0,14,45,920,1,53298,1
2,33920,36603,33898,22112,15406,-4973,-868,-751,-3883,-920,-3771,156,596,-212,1,0,14,45,960,1,53298,1
1,35103,36825,33979,22113,0,-4959,-1503,-766,-4907,-1886,-6036,179,591,-209,1,0,14,46,0,0,53298,1
2,34827,37029,33985,22114,14694,-4668,-787,-449,-861,-3643,-7259,202,580,-200,1,0,14,46,40,0,53298,1
2,33842,37120,34004,22115,14703,-4472,-566,-825,-97,-4810,-8686,231,575,-199,1,0,14,46,80,0,53298,1
2,33564,36924,34016,22116,14713,-4216,334,-2363,-3529,-3324,-9456,251,575,-205,1,0,14,46,120,0,53298,1
2,33471,36610,33981,22117,14723,-3426,1513,-1599,5001,-457,-4138,254,584,-198,1,0,14,46,160,0,53298,1
2,33442,36369,33957,22118,14733,-4061,389,-1169,6796,621,446,244,582,-202,1,0,14,46,200,0,53298,1
2,33490,35535,33941,22119,14744,-4104,194,-1053,1952,1570,3545,231,591,-207,1,0,14,46,240,0,53298,1
2,33730,35524,33945,22120,14754,-3950,384,-1381,468,1866,5253,227,591,-203,1,0,14,46,280,0,53298,1
2,34743,34894,33925,22121,14765,-4161,245,-1266,603,2924,6899,191,613,-201,1,0,14,46,320,0,53298,1
2,35623,34437,33895,22122,14776,-4921,-508,-640,3314,2715,8335,169,617,-201,1,0,14,46,360,0,53298,1
2,34839,33984,33876,22123,14787,-5376,-1374,-1115,4440,2667,7176,153,611,-213,1,0,14,46,400,0,53298,1
2,33894,34745,33874,22124,14797,-4709,-426,-507,1415,2581,3754,134,614,-220,1,0,14,46,440,0,53298,1
2,33455,35048,33865,22125,14806,-4235,-100,-922,-1571,2033,2440,122,602,-206,1,0,14,46,480,0,53298,1
2,33329,35607,33859,22126,14815,-4459,-304,-1024,-3233,1635,2026,125,609,-223,1,0,14,46,520,0,53298,1
2,33380,36620,33980,22127,14824,-4691,-842,-1233,-2970,1306,923,118,612,-206,1,0,14,46,560,0,53298,1
2,33370,36655,33972,22128,14833,-4722,-267,-710,-632,172,-637,128,602,-224,1,0,14,46,600,0,53298,1
2,33443,36594,33912,22129,14841,-4523,118,-1005,-593,-629,-1631,139,605,-225,1,0,14,46,640,0,53298,1
2,33249,36216,33779,22130,14850,-4815,-802,-1089,-1547,-1173,-2700,146,602,-218,1,0,14,46,680,0,53298,1
2,32920,35534,32967,22131,14859,-4942,-1531,-874,-2426,-1856,-4996,167,603,-207,1,0,14,46,720,0,53298,1
2,33812,35546,32858,22132,14868,-4483,-1001,-1016,-114,-2486,-7082,197,603,-215,1,0,14,46,760,0,53298,1
2,33381,32617,32828,22133,14877,-4141,-69,-891,2955,-3910,-7491,219,595,-209,1,0,14,46,800,0,53298,1
2,32524,33865,32745,22134,14887,-4179,203,-1596,1893,-3375,-7261,232,596,-208,1,0,14,46,840,0,53298,1
2,32264,32378,32742,22135,14897,-4095,908,-2041,1012,-1805,-6034,252,590,-202,1,0,14,46,880,0,53298,1
2,32203,31131,32693,22136,14906,-3760,1725,-1787,4344,-793,-2355,254,588,-218,1,0,14,46,920,0,53298,1
2,32266,33738,32685,22137,14917,-4114,396,-1640,3708,764,1652,242,598,-208,1,0,14,46,960,0,53298,1
1,32555,33500,32671,22138,0,-3943,270,-1239,3310,1846,4030,222,602,-202,1,0,14,47,0,0,53298,1
2,33305,32884,32682,22139,14209,-4094,642,-956,1986,2670,5733,200,618,-208,1,0,14,47,40,0,53298,1
2,34061,32543,32677,22140,14220,-4824,-4,-519,437,2678,7414,182,618,-218,1,0,14,47,80,0,53298,1
2,33434,32418,32675,22141,14231,-5524,-1809,-1323,-311,2732,6537,165,627,-231,1,0,14,47,120,0,53298,1
2,32430,32347,32655,22142,14240,-4731,-1154,-614,-204,2144,3553,150,614,-214,1,0,14,47,160,0,53298,1
2,32126,32216,32667,22143,14250,-4039,49,-1043,-1894,1478,2840,138,610,-210,1,0,14,47,200,0,53298,1
2,32009,32194,32620,22144,14260,-4630,-847,-1097,-3410,1723,2618,142,618,-228,1,0,14,47,240,0,53298,1
2,31985,32283,32655,22145,14270,-5121,-1282,-803,-2223,970,762,139,613,-223,1,0,14,47,280,0,53298,1
2,32010,32543,32655,22146,14280,-4648,-576,-787,-1887,-555,-1673,154,610,-226,1,0,14,47,320,0,53298,1
2,32146,32493,32686,22147,14290,-4517,-770,-790,-2253,-1454,-3166,167,611,-215,1,0,14,47,360,0,53298,1
2,32671,32414,32686,22148,14301,-4651,-925,-787,-2182,-2297,-4451,181,595,-217,1,0,14,47,400,0,53298,1
2,33465,34125,32719,22149,14311,-4702,-822,-1001,-2222,-2915,-5843,194,596,-216,1,0,14,47,440,0,53298,1
2,33220,31150,32767,22150,14322,-4214,334,-1494,1110,-3227,-5708,219,597,-213,1,0,14,47,480,0,53298,1
2,32909,30477,32866,22151,14333,-3921,944,-1322,2835,-3338,-4419,222,592,-204,1,0,14,47,520,0,53298,1
2,32779,30440,32848,22152,14344,-3803,1112,-2236,-1890,-1156,-2629,219,601,-193,1,0,14,47,560,0,53298,1
2,33315,30445,32868,22153,14356,-3907,1489,-1861,1647,270,1248,218,600,-196,1,0,14,47,600,0,53298,1
2,34025,30484,32806,22154,14366,-4264,1338,-899,2975,1357,5359,191,599,-201,1,0,14,47,640,0,53298,1
2,33946,30679,32793,22155,14378,-4480,601,-1485,585,2245,8280,155,601,-207,1,0,14,47,680,0,53298,1
2,32861,30359,32823,22156,14389,-4485,208,-1835,-2068,4224,9389,136,606,-216,1,0,14,47,720,0,53298,1
2,32307,30339,32802,22157,14401,-4655,20,-1285,-2756,5450,9731,113,593,-225,1,0,14,47,760,0,53298,1
2,32128,30330,32765,22158,14412,-5007,-749,-890,-2628,5103,8996,91,583,-239,1,0,14,47,800,0,53298,1
2,32096,30366,32779,22159,14423,-4967,-1462,-837,-2110,3796,6278,80,590,-246,1,0,14,47,840,0,53298,1
2,32086,30360,32755,22160,14433,-4796,-1530,-493,-1721,2044,2248,79,581,-243,1,0,14,47,880,0,53298,1
2,32178,30361,32759,22161,14443,-4547,-748,-334,-1334,-128,-1482,85,587,-241,1,0,14,47,920,0,53298,1
