sensorStatus,cap1,cap2,cap3,counter,microseconds_since_last_tick,accX,accY,accZ,gyroX,gyroY,gyroZ,magnetX,magnetY,magnetZ,day,hour,min,sec,msec,sync,battery_fuel,crc_good
2,31982,30433,32265,17214,31937,-4161,188,-1495,27,13,29,86,618,-252,1,0,11,30,40,0,53298,1
2,31980,30435,32268,17215,31939,-4162,187,-1491,23,13,20,94,618,-248,1,0,11,30,80,0,53298,1
2,31981,30447,32274,17216,31941,-4160,173,-1491,6,13,20,95,615,-257,1,0,11,30,120,0,53298,1
2,31970,30438,32248,17217,31943,-4162,181,-1487,29,11,24,95,621,-251,1,0,11,30,160,0,53298,1
2,31983,30440,32272,17218,31944,-4172,174,-1481,50,23,27,97,619,-253,1,0,11,30,200,0,53298,1
2,31964,30414,32235,17219,31946,-4175,174,-1491,35,20,19,93,615,-255,1,0,11,30,240,0,53298,1
2,31948,30412,32228,17220,31949,-4162,178,-1487,28,22,11,97,623,-241,1,0,11,30,280,0,53298,1
2,31936,30400,32219,17221,31951,-4150,185,-1509,47,29,12,95,607,-255,1,0,11,30,320,0,53298,1
2,31924,30407,32209,17222,31953,-4152,188,-1480,50,24,16,83,625,-249,1,0,11,30,360,0,53298,1
2,31900,30398,32188,17223,31955,-4158,175,-1497,43,17,10,90,624,-248,1,0,11,30,400,0,53298,1
2,31898,30351,32177,17224,31957,-4163,180,-1493,39,31,24,87,613,-249,1,0,11,30,440,0,53298,1
2,31896,30374,32165,17225,31958,-4170,174,-1499,39,17,13,91,615,-251,1,0,11,30,480,0,53298,1
2,31894,30350,32174,17226,31960,-4143,182,-1509,26,4,7,93,621,-249,1,0,11,30,520,0,53298,1
2,31891,30371,32179,17227,31962,-4161,179,-1493,21,2,13,98,620,-252,1,0,11,30,560,0,53298,1
2,31896,30358,32183,17228,31964,-4153,188,-1487,33,-4,17,92,616,-248,1,0,11,30,600,0,53298,1
2,31890,30409,32173,17229,31966,-4170,168,-1503,16,0,18,93,619,-251,1,0,11,30,640,0,53298,1
2,31891,30395,32173,17230,31968,-4166,168,-1508,4,-5,17,91,623,-251,1,0,11,30,680,0,53298,1
2,31888,30383,32174,17231,31970,-4171,172,-1508,-8,-6,19,95,615,-259,1,0,11,30,720,0,53298,1
2,31892,30380,32174,17232,31972,-4158,178,-1505,-7,-27,26,95,621,-247,1,0,11,30,760,0,53298,1
2,31882,30374,32162,17233,31973,-4157,170,-1493,-28,-43,21,92,618,-258,1,0,11,30,800,0,53298,1
2,31885,30373,32167,17234,31975,-4149,189,-1509,-39,-59,19,98,624,-248,1,0,11,30,840,0,53298,1
2,31881,30373,32160,17235,31977,-4169,171,-1493,-48,-61,26,100,624,-244,1,0,11,30,880,0,53298,1
2,31887,30361,32165,17236,31979,-4162,179,-1488,-54,-68,22,97,619,-253,1,0,11,30,920,0,53298,1
2,31890,30385,32165,17237,31980,-4188,185,-1498,-55,-80,38,93,619,-241,1,0,11,30,960,0,53298,1
1,31885,30372,32155,17238,0,-4181,199,-1512,-189,-148,92,99,621,-249,1,0,11,31,0,1,53298,1
2,31896,30390,32156,17239,31426,-4148,226,-1630,-471,-264,241,93,613,-253,1,0,11,31,40,1,53298,1
2,31596,30345,31807,17240,31427,-4184,379,-1807,-1623,-222,598,94,610,-256,1,0,11,31,80,1,53298,1
2,31643,30448,31807,17241,31429,-4156,92,-1859,-4254,-407,1263,93,621,-243,1,0,11,31,120,1,53298,1
2,32227,31450,32021,17242,31432,-3852,416,-1564,-2536,-1079,1436,86,618,-250,1,0,11,31,160,1,53298,1
2,32781,35291,32668,17243,31434,-3563,1264,-1651,-1684,-371,1866,84,618,-262,1,0,11,31,200,1,53298,1
2,33225,35258,32627,17244,31437,-4029,982,-1790,-2851,1145,2656,79,619,-265,1,0,11,31,240,1,53298,1
2,33636,35235,32659,17245,31440,-5110,1430,873,-3576,1736,2624,65,617,-269,1,0,11,31,280,1,53298,1
2,33126,35164,32572,17246,31442,-4734,-584,-1363,-6276,1790,2077,71,621,-271,1,0,11,31,320,1,53298,1
2,32997,35130,32538,17247,31444,-4531,-418,-784,-2519,181,878,68,604,-264,1,0,11,31,360,1,53298,1
2,33435,35113,32564,17248,31447,-4049,-638,-1233,-1855,-915,-649,71,607,-253,1,0,11,31,400,1,53298,1
2,34960,32141,32475,17249,31449,-4121,-557,-1248,494,-2013,-2119,70,608,-248,1,0,11,31,440,1,53298,1
2,37818,33477,32549,17250,31452,-4647,-203,-1040,4805,-3352,-2724,89,611,-239,1,0,11,31,480,1,53298,1
2,35809,35283,32631,17251,31456,-4157,-707,-1922,-239,-2699,-4478,103,609,-235,1,0,11,31,520,1,53298,1
2,34280,35421,32646,17252,31459,-3784,822,-1631,621,-2073,-4967,116,622,-234,1,0,11,31,560,1,53298,1
2,33465,35374,32636,17253,31464,-3771,1379,-1622,1558,-1375,-4315,129,615,-237,1,0,11,31,600,1,53298,1
2,33373,35180,32629,17254,31467,-3756,1857,-1616,2482,-801,-1800,137,621,-245,1,0,11,31,640,1,53298,1
2,33889,35406,32525,17255,31471,-3920,1728,-1457,2405,-210,1557,128,624,-246,1,0,11,31,680,1,53298,1
2,35525,34279,32391,17256,31474,-4052,1500,-1532,424,984,4408,115,621,-249,1,0,11,31,720,1,53298,1
2,36924,31458,32325,17257,31477,-4297,1208,-1667,-2089,2520,6237,97,619,-245,1,0,11,31,760,1,53298,1
2,34543,31367,32325,17258,31481,-4739,846,-1881,-365,3658,7728,65,613,-255,1,0,11,31,800,1,53298,1
2,32684,31108,32325,17259,31485,-4707,430,-723,1218,4149,7587,50,602,-276,1,0,11,31,840,1,53298,1
2,32010,31060,32294,17260,31489,-4578,-72,-860,-156,3594,6241,31,585,-283,1,0,11,31,880,1,53298,1
2,31847,31021,32293,17261,31493,-4560,-451,-696,-1652,2319,3680,29,589,-277,1,0,11,31,920,1,53298,1
2,31887,31001,32297,17262,31496,-4422,-636,-859,-2787,734,526,33,575,-279,1,0,11,31,960,1,53298,1
1,32264,31069,32324,17263,0,-4398,-298,-879,-1225,-1173,-2078,33,577,-267,1,0,11,32,0,1,53298,1
2,33679,31138,32317,17264,30919,-4406,-111,-939,98,-2526,-4369,46,584,-280,1,0,11,32,40,1,53298,1
2,37531,34641,32397,17265,30922,-4303,306,-783,792,-4126,-5748,62,604,-254,1,0,11,32,80,1,53298,1
2,35601,34074,32371,17266,30926,-3860,36,-2081,24,-4112,-6370,72,592,-234,1,0,11,32,120,1,53298,1
2,34230,33488,32322,17267,30930,-3840,743,-1741,-1489,-2921,-7026,99,615,-233,1,0,11,32,160,1,53298,1
2,33500,33278,32318,17268,30934,-3945,896,-1814,-238,-2066,-6344,109,615,-233,1,0,11,32,200,1,53298,1
2,33086,32985,32303,17269,30937,-3902,1526,-1547,3231,-1832,-4015,125,619,-225,1,0,11,32,240,1,53298,1
2,33231,32900,32314,17270,30941,-3951,1947,-1226,4864,-1373,-886,131,617,-231,1,0,11,32,280,1,53298,1
2,33788,33257,32329,17271,30946,-4078,1308,-1289,478,123,1267,112,622,-232,1,0,11,32,320,1,53298,1
2,34583,32734,32340,17272,30950,-4022,1017,-1409,-1966,1360,3002,111,613,-229,1,0,11,32,360,1,53298,1
2,35880,32111,32328,17273,30954,-3987,797,-1654,-1133,1906,4719,99,613,-237,1,0,11,32,400,1,53298,1
2,36649,32936,32331,17274,30958,-3858,528,-1660,-270,2489,5890,88,604,-246,1,0,11,32,440,1,53298,1
2,35464,32507,32356,17275,30962,-4408,550,-1578,1419,3044,6584,59,599,-257,1,0,11,32,480,1,53298,1
2,33864,32247,32399,17276,30966,-4635,347,-705,-65,3105,5604,55,593,-257,1,0,11,32,520,1,53298,1
2,32818,32344,32401,17277,30970,-4597,-184,-964,-2046,2668,3883,30,598,-254,1,0,11,32,560,1,53298,1
2,32742,32212,32426,17278,30973,-4534,-362,-703,-1649,1379,1615,39,583,-259,1,0,11,32,600,1,53298,1
2,33121,32100,32422,17279,30977,-4610,-496,-813,-1777,67,-934,44,588,-260,1,0,11,32,640,1,53298,1
2,35105,32128,32396,17280,30981,-4582,-498,-738,-1467,-1470,-3738,50,592,-270,1,0,11,32,680,1,53298,1
2,37030,31682,32447,17281,30985,-4636,-530,-1082,-271,-3125,-5888,69,599,-251,1,0,11,32,720,1,53298,1
2,34692,31903,32457,17282,30989,-4411,-645,-1820,-639,-3259,-7486,87,591,-237,1,0,11,32,760,1,53298,1
2,33553,32211,32479,17283,30994,-3910,613,-1724,2378,-2967,-7546,112,620,-226,1,0,11,32,800,1,53298,1
2,33221,32284,32714,17284,30997,-3901,1266,-1770,2715,-2177,-6293,130,616,-234,1,0,11,32,840,1,53298,1
2,32960,32299,32742,17285,31000,-3859,2049,-1599,3626,-1547,-3575,143,631,-237,1,0,11,32,880,1,53298,1
2,33190,32661,32714,17286,31004,-4059,2057,-1268,3535,-883,255,140,638,-224,1,0,11,32,920,1,53298,1
2,33845,32760,32698,17287,31008,-4121,1279,-1482,157,486,2966,126,636,-234,1,0,11,32,960,1,53298,1
1,35919,32584,32698,17288,0,-4057,1087,-1381,-1027,1545,4876,105,619,-217,1,0,11,33,0,1,53298,1
2,36739,32369,32671,17289,30409,-3958,891,-1718,-1480,2498,6349,85,611,-243,1,0,11,33,40,1,53298,1
2,34424,32257,32682,17290,30412,-4214,681,-1978,1182,3414,7880,60,608,-250,1,0,11,33,80,1,53298,1
2,32900,32167,32690,17291,30416,-4580,611,-744,1665,4043,8013,40,604,-252,1,0,11,33,120,1,53298,1
2,32335,32090,32679,17292,30418,-4602,-64,-1341,-855,3872,6970,23,591,-265,1,0,11,33,160,1,53298,1
2,32106,31819,32616,17293,30421,-4658,-180,-812,-928,3111,4715,19,585,-281,1,0,11,33,200,1,53298,1
2,32141,31209,32618,17294,30424,-4457,-498,-985,-2096,2085,1835,12,568,-278,1,0,11,33,240,1,53298,1
2,32274,31045,32579,17295,30427,-4360,-123,-716,210,-14,-467,10,576,-280,1,0,11,33,280,1,53298,1
2,33342,31059,32613,17296,30431,-4443,-170,-900,-53,-1579,-2845,21,583,-267,1,0,11,33,320,1,53298,1
2,37615,31223,33331,17297,30435,-4417,200,-828,-1345,-2471,-5589,34,592,-260,1,0,11,33,360,1,53298,1
2,36582,34230,32953,17298,30439,-3030,1623,-849,3320,-4284,-6249,58,596,-262,1,0,11,33,400,1,53298,1
2,34503,34374,33280,17299,30442,-4311,-97,-1410,-5939,-2804,-8463,88,604,-244,1,0,11,33,440,1,53298,1
2,33703,35202,33615,17300,30446,-4267,132,-1698,-2217,-3161,-9402,117,623,-233,1,0,11,33,480,1,53298,1
2,33287,34568,33722,17301,30450,-4079,1184,-1873,1478,-3027,-8588,135,617,-225,1,0,11,33,520,1,53298,1
2,33240,34269,33825,17302,30454,-3853,2179,-1673,4471,-2537,-5600,151,625,-237,1,0,11,33,560,1,53298,1
2,33255,33848,33855,17303,30459,-3791,2226,-1723,1840,-766,-2042,163,627,-231,1,0,11,33,600,1,53298,1
2,33476,33878,33839,17304,30464,-3944,1418,-1536,-658,1102,1438,157,633,-235,1,0,11,33,640,1,53298,1
2,34025,34181,33843,17305,30468,-4087,1125,-978,-389,1736,4352,136,632,-236,1,0,11,33,680,1,53298,1
2,35133,34185,33840,17306,30473,-4039,798,-1349,-796,1922,6423,116,628,-248,1,0,11,33,720,1,53298,1
2,37915,34118,33890,17307,30477,-4192,746,-1632,-488,2471,7553,93,613,-247,1,0,11,33,760,1,53298,1
2,37893,34130,33771,17308,30481,-3541,80,-2151,-650,3292,8111,67,615,-255,1,0,11,33,800,1,53298,1
2,35225,33472,33771,17309,30485,-4438,527,-845,2485,3603,8679,42,592,-262,1,0,11,33,840,1,53298,1
2,33773,33563,33783,17310,30489,-4536,79,-1322,419,3142,7631,18,588,-274,1,0,11,33,880,1,53298,1
2,33298,32992,33747,17311,30494,-4553,45,-927,-127,2479,5637,13,573,-281,1,0,11,33,920,1,53298,1
2,33142,32398,33707,17312,30499,-4379,-323,-899,-1262,1727,3146,-1,561,-271,1,0,11,33,960,1,53298,1
1,33185,32774,33689,17313,0,-4277,-349,-1010,-1049,294,477,3,555,-277,1,0,11,34,0,1,53298,1
2,33493,32745,33691,17314,29899,-4349,-156,-909,-105,-1318,-1989,6,572,-276,1,0,11,34,40,1,53298,1
2,34660,32782,33744,17315,29903,-4427,-230,-1177,-1317,-2059,-4825,24,578,-262,1,0,11,34,80,1,53298,1
2,38781,32394,33103,17316,29908,-4285,556,-964,-754,-2892,-7189,43,585,-267,1,0,11,34,120,1,53298,1
2,37101,32833,32955,17317,29913,-2975,1495,-1600,3520,-4156,-7011,68,600,-250,1,0,11,34,160,1,53298,1
2,35461,32926,32969,17318,29917,-3703,882,-1778,-2246,-2121,-7462,74,608,-238,1,0,11,34,200,1,53298,1
2,34670,32730,33008,17319,29920,-3984,1337,-1905,-1682,-1297,-6465,98,616,-240,1,0,11,34,240,1,53298,1
2,34235,32261,33000,17320,29925,-3916,2110,-1664,507,-887,-3750,101,623,-239,1,0,11,34,280,1,53298,1
2,34325,31941,33037,17321,29929,-3835,2076,-1359,2807,-813,163,101,621,-237,1,0,11,34,320,1,53298,1
2,34773,31843,33045,17322,29933,-3856,1275,-1389,284,443,2601,90,616,-238,1,0,11,34,360,1,53298,1
2,36304,32176,33037,17323,29938,-3945,1165,-1465,-1931,1667,4062,87,609,-237,1,0,11,34,400,1,53298,1
2,37592,32185,33025,17324,29942,-3987,1046,-1771,-724,2289,5756,62,602,-242,1,0,11,34,440,1,53298,1
2,36749,31597,33040,17325,29946,-3848,841,-1973,2071,2720,7438,37,593,-255,1,0,11,34,480,1,53298,1
2,34161,31551,33046,17326,29951,-4214,965,-775,3524,2995,8078,21,589,-271,1,0,11,34,520,1,53298,1
2,32864,31451,33033,17327,29955,-4244,586,-1385,769,3287,7553,1,575,-279,1,0,11,34,560,1,53298,1
2,32434,31317,33025,17328,29959,-4146,529,-1431,78,3083,6245,-10,556,-274,1,0,11,34,600,1,53298,1
2,32326,31234,33022,17329,29963,-4067,355,-1507,239,3155,4704,-17,553,-291,1,0,11,34,640,1,53298,1
2,32265,31218,32970,17330,29968,-4142,363,-1312,736,2458,3091,-16,544,-300,1,0,11,34,680,1,53298,1
2,32191,31270,32909,17331,29972,-4233,133,-1172,-212,1450,1071,-22,532,-298,1,0,11,34,720,1,53298,1
2,32173,32820,32866,17332,29977,-4220,-74,-1179,-1316,128,-1531,-7,551,-301,1,0,11,34,760,1,53298,1
2,32289,35400,32942,17333,29981,-4324,-170,-1197,-1973,-1115,-4372,-2,550,-292,1,0,11,34,800,1,53298,1
2,32544,31869,32861,17334,29986,-4351,-262,-1247,-2285,-2115,-7331,12,572,-292,1,0,11,34,840,1,53298,1
2,34035,32733,32853,17335,29992,-4242,67,-1019,-48,-3472,-9453,33,591,-285,1,0,11,34,880,1,53298,1
2,36002,34276,32833,17336,29997,-4442,467,-911,3627,-5131,-9947,62,610,-276,1,0,11,34,920,1,53298,1
2,33436,33376,32800,17337,30002,-4456,499,-1551,2568,-5560,-9835,83,623,-257,1,0,11,34,960,1,53298,1
1,32850,35886,32906,17338,0,-3277,7534,-4852,976,-4231,-6594,104,622,-244,1,0,11,35,0,1,53298,1
2,32591,31420,32850,17339,29390,-3235,1298,-2159,892,738,-98,103,629,-257,1,0,11,35,40,1,53298,1
2,32920,31455,32860,17340,29395,-3787,618,-1532,-2046,2684,3178,81,623,-249,1,0,11,35,80,1,53298,1
2,34047,31298,32837,17341,29400,-3793,303,-1831,-864,2853,4935,81,615,-269,1,0,11,35,120,1,53298,1
2,39002,31259,32889,17342,29404,-5327,1038,-524,1862,3217,5559,66,616,-280,1,0,11,35,160,1,53298,1
2,36651,32756,33047,17343,29409,-3470,-242,-2221,-5908,1510,4681,46,598,-282,1,0,11,35,200,1,53298,1
2,33968,32602,33054,17344,29414,-2814,592,-1601,2471,1659,6285,31,593,-283,1,0,11,35,240,1,53298,1
2,33027,32660,33087,17345,29419,-3846,848,-1433,1444,1693,5682,15,575,-279,1,0,11,35,280,1,53298,1
2,32629,32778,33107,17346,29425,-4138,469,-1863,413,1479,5546,2,566,-288,1,0,11,35,320,1,53298,1
2,32459,32816,33089,17347,29430,-4201,499,-1617,1307,1265,4532,-4,564,-298,1,0,11,35,360,1,53298,1
2,32407,32872,33084,17348,29435,-4262,161,-1379,-1474,1799,2214,-6,552,-298,1,0,11,35,400,1,53298,1
2,32406,32815,33082,17349,29440,-4173,-108,-1287,-2612,1280,-237,-11,551,-303,1,0,11,35,440,1,53298,1
2,32426,32619,33082,17350,29446,-4019,385,-1038,-574,-216,-1928,-10,564,-302,1,0,11,35,480,1,53298,1
2,32521,32562,33056,17351,29451,-4154,180,-1175,-750,-1168,-3560,3,569,-291,1,0,11,35,520,1,53298,1
2,33109,32751,33099,17352,29457,-4184,14,-1308,-1406,-1765,-5803,25,581,-279,1,0,11,35,560,1,53298,1
2,35250,32678,33117,17353,29462,-4112,608,-1035,-191,-2834,-7360,45,591,-285,1,0,11,35,600,1,53298,1
2,36653,33097,33044,17354,29467,-4127,471,-1612,1462,-3974,-7246,56,606,-260,1,0,11,35,640,1,53298,1
2,34517,33294,33048,17355,29472,-4237,460,-1874,762,-3602,-7470,79,609,-259,1,0,11,35,680,1,53298,1
2,33666,33214,33054,17356,29477,-3969,1761,-2224,116,-2561,-7093,89,633,-261,1,0,11,35,720,1,53298,1
2,33298,33300,33042,17357,29482,-3694,2931,-2219,252,-1218,-3909,117,631,-255,1,0,11,35,760,1,53298,1
2,33406,33158,33035,17358,29487,-3774,1616,-1874,789,269,621,117,633,-257,1,0,11,35,800,1,53298,1
2,34179,33366,33047,17359,29492,-3730,1245,-1544,1026,1702,3561,101,625,-265,1,0,11,35,840,1,53298,1
2,34997,33440,33051,17360,29498,-4019,1090,-1084,504,1660,5230,75,623,-269,1,0,11,35,880,1,53298,1
2,35737,32688,33032,17361,29503,-3855,864,-1881,-732,2418,6311,66,614,-272,1,0,11,35,920,1,53298,1
2,36567,32766,33025,17362,29508,-3953,962,-1963,996,3137,7116,44,604,-276,1,0,11,35,960,1,53298,1
1,34541,32547,33041,17363,0,-4162,876,-1820,2095,3837,7833,20,592,-294,1,0,11,36,0,1,53298,1
2,33060,32678,33027,17364,28881,-4432,691,-924,2167,3470,7676,0,574,-304,1,0,11,36,40,1,53298,1
2,32545,33074,33017,17365,28886,-4264,283,-1381,965,2687,6429,-14,550,-314,1,0,11,36,80,1,53298,1
2,32438,33217,33049,17366,28890,-4291,50,-1229,-172,1879,4034,-25,549,-319,1,0,11,36,120,1,53298,1
2,32430,33004,33060,17367,28895,-4217,-276,-1191,-1615,911,1209,-17,547,-315,1,0,11,36,160,1,53298,1
2,32490,33050,33063,17368,28900,-4085,115,-1215,-603,-685,-1412,-16,554,-314,1,0,11,36,200,1,53298,1
2,32666,33032,33062,17369,28904,-4089,179,-1336,-153,-1798,-3606,-8,560,-316,1,0,11,36,240,1,53298,1
2,33257,32661,32917,17370,28909,-4175,298,-1342,-1180,-2261,-5771,7,573,-301,1,0,11,36,280,1,53298,1
2,36860,32772,32935,17371,28914,-4183,961,-1153,-1677,-2911,-7207,16,588,-300,1,0,11,36,320,1,53298,1
2,36246,33424,32910,17372,28918,-3670,1556,-1545,-209,-3833,-7035,36,606,-260,1,0,11,36,360,1,53298,1
2,34901,33345,32907,17373,28922,-4009,660,-1816,-1786,-2980,-7350,57,603,-269,1,0,11,36,400,1,53298,1
2,34111,33283,32901,17374,28926,-3931,1229,-1954,-472,-2505,-7274,77,623,-271,1,0,11,36,440,1,53298,1
2,33880,33355,32874,17375,28930,-3665,2783,-2063,702,-1938,-4901,94,634,-260,1,0,11,36,480,1,53298,1
2,34133,33336,32876,17376,28934,-3621,2082,-1569,2247,-1021,-309,89,635,-267,1,0,11,36,520,1,53298,1
2,34502,33415,32879,17377,28939,-4038,706,-1374,-210,505,1966,87,627,-271,1,0,11,36,560,1,53298,1
2,34876,33154,32893,17378,28944,-3968,438,-1386,-2316,1327,2359,81,617,-263,1,0,11,36,600,1,53298,1
2,35476,33099,32890,17379,28949,-3998,511,-1625,-844,1380,2734,63,621,-265,1,0,11,36,640,1,53298,1
2,36190,32929,32881,17380,28954,-4018,671,-1617,1641,1186,3418,59,609,-269,1,0,11,36,680,1,53298,1
2,36338,32915,32889,17381,28959,-4108,770,-1451,1522,1457,3651,40,616,-278,1,0,11,36,720,1,53298,1
2,35103,32840,32900,17382,28963,-4352,485,-1393,-1047,1867,3198,36,602,-270,1,0,11,36,760,1,53298,1
2,34248,32870,32895,17383,28968,-4351,157,-1220,-1937,1572,2270,36,598,-276,1,0,11,36,800,1,53298,1
2,33917,32795,32890,17384,28972,-4310,-49,-1212,-862,689,1083,31,599,-283,1,0,11,36,840,1,53298,1
2,34208,32804,32900,17385,28976,-4130,53,-1273,92,-352,-421,37,589,-283,1,0,11,36,880,1,53298,1
2,34978,32783,32889,17386,28980,-4215,112,-1153,402,-1063,-1810,44,602,-284,1,0,11,36,920,1,53298,1
2,36089,32915,32896,17387,28985,-4266,138,-1208,-452,-1571,-3381,50,606,-286,1,0,11,36,960,1,53298,1
1,35457,32847,32886,17388,0,-4210,104,-1307,-490,-2020,-4651,66,612,-278,1,0,11,37,0,0,53298,1
2,34449,32855,32895,17389,28372,-4175,246,-1486,19,-2221,-5515,74,616,-268,1,0,11,37,40,0,53298,1
2,33546,32825,32898,17390,28376,-4027,1014,-1926,240,-2037,-5582,106,626,-262,1,0,11,37,80,0,53298,1
2,33167,32875,32907,17391,28380,-3775,1883,-1914,990,-1347,-3864,105,643,-263,1,0,11,37,120,0,53298,1
2,33078,32884,32914,17392,28384,-3741,1893,-1597,1084,-404,-835,119,631,-265,1,0,11,37,160,0,53298,1
2,33261,32841,32913,17393,28388,-4001,1020,-1408,687,532,1876,102,626,-262,1,0,11,37,200,0,53298,1
2,33643,32909,32910,17394,28391,-3913,928,-1383,-149,1220,3248,96,632,-270,1,0,11,37,240,0,53298,1
2,34387,32872,32921,17395,28396,-3965,896,-1508,-546,1678,4322,74,618,-268,1,0,11,37,280,0,53298,1
2,35238,32711,32920,17396,28400,-4038,797,-1592,11,1919,5371,55,615,-267,1,0,11,37,320,0,53298,1
2,35902,32616,32904,17397,28405,-4077,746,-1718,475,2144,6008,48,602,-288,1,0,11,37,360,0,53298,1
2,34909,32599,32907,17398,28408,-4109,507,-1838,198,2724,5983,30,602,-290,1,0,11,37,400,0,53298,1
2,33555,32429,32908,17399,28412,-4393,461,-985,-366,2894,5167,28,590,-302,1,0,11,37,440,0,53298,1
2,32823,32423,32891,17400,28416,-4339,-22,-1284,-1913,2195,3636,22,570,-300,1,0,11,37,480,0,53298,1
2,32550,32199,32876,17401,28420,-4258,-119,-1043,-838,1090,1652,15,571,-303,1,0,11,37,520,0,53298,1
2,32580,32159,32884,17402,28424,-4104,-179,-1161,-270,-216,-521,22,574,-306,1,0,11,37,560,0,53298,1
2,32916,32132,32896,17403,28428,-4077,155,-1106,939,-1325,-2302,15,573,-299,1,0,11,37,600,0,53298,1
2,33789,32167,32897,17404,28433,-4236,94,-1177,556,-2153,-4023,29,589,-295,1,0,11,37,640,0,53298,1
2,36103,32283,32894,17405,28438,-4315,324,-953,-212,-2973,-5937,42,602,-278,1,0,11,37,680,0,53298,1
2,35806,32007,32895,17406,28442,-4029,713,-1112,-73,-4039,-6980,59,609,-257,1,0,11,37,720,0,53298,1
2,34313,32051,32892,17407,28447,-4154,518,-1666,-1073,-4160,-7824,92,622,-258,1,0,11,37,760,0,53298,1
2,33505,32198,32910,17408,28451,-3853,2972,-2905,-752,-3262,-6897,114,642,-252,1,0,11,37,800,0,53298,1
2,33299,32218,32895,17409,28455,-3554,2016,-2041,433,-995,-2831,116,634,-246,1,0,11,37,840,0,53298,1
2,33479,32299,32897,17410,28460,-3814,1268,-1300,783,666,775,112,630,-252,1,0,11,37,880,0,53298,1
2,33744,32306,32906,17411,28465,-3956,843,-985,496,888,2935,103,623,-261,1,0,11,37,920,0,53298,1
2,34059,32231,32901,17412,28470,-3944,822,-1562,-916,1415,3883,92,618,-256,1,0,11,37,960,0,53298,1
1,34758,32260,32900,17413,0,-3981,850,-1600,-387,1923,4717,73,623,-263,1,0,11,38,0,1,53298,1
2,35754,32207,32904,17414,27865,-4102,728,-1593,903,2164,5667,55,605,-261,1,0,11,38,40,1,53298,1
2,35377,32149,32896,17415,27870,-4206,573,-1670,1314,2396,5989,39,601,-275,1,0,11,38,80,1,53298,1
2,33968,32113,32877,17416,27875,-4380,273,-1471,-204,2966,5030,29,595,-281,1,0,11,38,120,1,53298,1
2,32837,32100,32883,17417,27880,-4524,-6,-850,-1649,2416,3270,21,579,-289,1,0,11,38,160,1,53298,1
2,32488,32059,32858,17418,27885,-4291,-336,-1142,-1238,1160,1336,22,584,-286,1,0,11,38,200,1,53298,1
2,32379,32100,32835,17419,27890,-4280,-316,-885,535,-354,-874,22,590,-292,1,0,11,38,240,1,53298,1
2,32413,32064,32824,17420,27895,-4305,-264,-1080,-414,-1274,-3433,38,598,-276,1,0,11,38,280,1,53298,1
2,32607,32062,32808,17421,27900,-4376,-45,-1133,-906,-2116,-5722,50,606,-284,1,0,11,38,320,1,53298,1
2,33347,32029,32817,17422,27904,-4427,140,-1086,82,-3009,-7292,74,610,-264,1,0,11,38,360,1,53298,1
2,34577,32015,32844,17423,27910,-4428,376,-1154,475,-3871,-8254,89,617,-255,1,0,11,38,400,1,53298,1
2,35040,32009,32839,17424,27913,-4133,1534,-1751,286,-4331,-8064,121,635,-247,1,0,11,38,440,1,53298,1
2,34307,32038,32819,17425,27918,-3949,1894,-2146,379,-3216,-5650,135,629,-237,1,0,11,38,480,1,53298,1
2,34082,32141,32818,17426,27924,-3865,999,-1769,-644,-1240,-3267,149,629,-233,1,0,11,38,520,1,53298,1
2,34080,32235,32816,17427,27929,-3871,874,-1567,-950,43,-1263,148,634,-240,1,0,11,38,560,1,53298,1
2,34076,32249,32820,17428,27934,-3919,1060,-1228,1585,347,1217,140,628,-240,1,0,11,38,600,1,53298,1
2,34133,32172,32823,17429,27939,-4116,897,-1310,1585,933,3211,125,633,-251,1,0,11,38,640,1,53298,1
2,34399,32134,32826,17430,27944,-4147,624,-1439,-1197,1899,3971,120,622,-258,1,0,11,38,680,1,53298,1
2,34684,32246,32780,17431,27948,-4111,674,-1421,-1205,2266,4780,108,620,-252,1,0,11,38,720,1,53298,1
2,34944,32390,32775,17432,27953,-4166,614,-1581,-238,2357,5646,85,617,-259,1,0,11,38,760,1,53298,1
2,34591,32411,32797,17433,27957,-4211,544,-1656,521,2698,6114,65,607,-269,1,0,11,38,800,1,53298,1
2,33460,32577,32786,17434,27962,-4370,510,-1110,506,2870,5908,46,602,-280,1,0,11,38,840,1,53298,1
2,32691,32544,32787,17435,27967,-4440,48,-1172,-1366,2759,4863,36,594,-274,1,0,11,38,880,1,53298,1
2,32343,32650,32775,17436,27972,-4372,-241,-1145,-1240,2134,3199,30,580,-290,1,0,11,38,920,1,53298,1
2,32270,32617,32779,17437,27977,-4383,-478,-897,-335,976,1007,32,588,-296,1,0,11,38,960,1,53298,1
1,32356,32657,32791,17438,0,-4233,-420,-1035,-304,-424,-1622,39,599,-291,1,0,11,39,0,0,53298,1
2,32625,32549,32792,17439,27357,-4349,-214,-954,421,-1881,-3922,51,601,-289,1,0,11,39,40,0,53298,1
2,33525,32549,32795,17440,27363,-4349,18,-1147,317,-2740,-5941,68,606,-272,1,0,11,39,80,0,53298,1
2,35546,32528,32801,17441,27368,-4366,732,-862,1666,-3770,-6864,92,620,-266,1,0,11,39,120,0,53298,1
2,34522,32811,32805,17442,27373,-4345,347,-1479,518,-4250,-6977,104,628,-260,1,0,11,39,160,0,53298,1
2,33503,33128,32796,17443,27377,-4184,762,-2016,-564,-3632,-7125,130,624,-246,1,0,11,39,200,0,53298,1
2,32825,32975,32805,17444,27382,-4022,1519,-2034,-169,-2422,-5909,143,639,-239,1,0,11,39,240,0,53298,1
2,32645,32968,32805,17445,27387,-3838,1529,-1843,906,-1085,-2997,149,637,-239,1,0,11,39,280,0,53298,1
2,32700,32948,32843,17446,27392,-3925,1442,-1261,2359,-145,464,148,634,-244,1,0,11,39,320,0,53298,1
2,32883,32887,32823,17447,27397,-4097,881,-986,1492,555,2871,132,632,-228,1,0,11,39,360,0,53298,1
2,33267,32903,32813,17448,27402,-4080,485,-1332,-1839,1461,3714,128,628,-234,1,0,11,39,400,0,53298,1
2,34187,32890,32829,17449,27406,-4101,480,-1349,-1044,1624,4541,113,629,-253,1,0,11,39,440,0,53298,1
2,35103,32836,32795,17450,27411,-4179,436,-1446,422,1501,5405,95,617,-249,1,0,11,39,480,0,53298,1
2,35220,32630,32808,17451,27414,-4170,496,-1771,1193,1738,5752,87,607,-253,1,0,11,39,520,0,53298,1
2,33519,32587,32814,17452,27419,-4295,460,-1627,456,2609,5510,67,617,-263,1,0,11,39,560,0,53298,1
2,32570,32489,32801,17453,27424,-4577,198,-888,-1954,2874,4575,48,602,-270,1,0,11,39,600,0,53298,1
2,32243,32523,32796,17454,27429,-4394,-179,-1208,-2475,2663,3172,35,599,-275,1,0,11,39,640,0,53298,1
2,32173,32550,32800,17455,27433,-4361,-155,-770,-507,1498,1527,48,600,-282,1,0,11,39,680,0,53298,1
2,32180,32489,32777,17456,27438,-4420,-376,-804,-1147,258,-508,42,594,-270,1,0,11,39,720,0,53298,1
2,32290,32492,32811,17457,27442,-4316,11,-772,-567,-1207,-2376,50,602,-264,1,0,11,39,760,0,53298,1
2,32585,32656,32789,17458,27446,-4425,-185,-1032,-898,-2194,-4300,65,605,-265,1,0,11,39,800,0,53298,1
2,33733,32500,32796,17459,27451,-4406,-142,-1149,-1027,-2787,-6276,86,610,-254,1,0,11,39,840,0,53298,1
2,36533,32506,32762,17460,27456,-4334,713,-811,969,-3772,-7171,100,620,-244,1,0,11,39,880,0,53298,1
2,34438,32449,32767,17461,27461,-4298,403,-1926,1246,-4021,-6637,124,620,-230,1,0,11,39,920,0,53298,1
2,33370,32480,32763,17462,27466,-3905,1764,-2243,1078,-2891,-5376,141,625,-233,1,0,11,39,960,0,53298,1
1,32915,32427,32776,17463,0,-3769,2129,-2102,-192,-762,-2362,141,623,-229,1,0,11,40,0,1,53298,1
2,32943,32336,32760,17464,26849,-3923,1030,-1670,484,934,1344,132,626,-234,1,0,11,40,40,1,53298,1
2,33375,32404,32754,17465,26855,-4004,1000,-1096,1982,1766,3947,125,627,-243,1,0,11,40,80,1,53298,1
2,33800,32404,32771,17466,26861,-4103,1074,-986,2208,1803,5680,111,623,-249,1,0,11,40,120,1,53298,1
2,34525,32412,32764,17467,26866,-4064,876,-1547,-973,2755,6528,84,612,-250,1,0,11,40,160,1,53298,1
2,36147,32361,32734,17468,26872,-4151,733,-1612,-1150,3274,7339,56,602,-254,1,0,11,40,200,1,53298,1
2,35597,32245,32744,17469,26877,-4195,510,-1722,0,3445,7925,30,592,-264,1,0,11,40,240,1,53298,1
2,33725,32170,32739,17470,26883,-4514,239,-1452,118,3608,7380,17,587,-263,1,0,11,40,280,1,53298,1
2,32505,31997,32713,17471,26888,-4594,-62,-848,-1149,2916,5382,20,570,-280,1,0,11,40,320,1,53298,1
2,32235,31974,32696,17472,26893,-4377,-417,-899,-2156,1988,2693,18,574,-278,1,0,11,40,360,1,53298,1
2,32179,32034,32708,17473,26898,-4204,-516,-927,-708,291,-39,15,561,-283,1,0,11,40,400,1,53298,1
2,32241,32079,32700,17474,26904,-4046,1,-1083,1073,-1170,-2443,14,570,-288,1,0,11,40,440,1,53298,1
2,32459,32002,32707,17475,26909,-4275,290,-1068,1041,-2097,-4302,28,590,-268,1,0,11,40,480,1,53298,1
2,33434,32017,32726,17476,26915,-4400,179,-1289,-1452,-2267,-6436,44,590,-272,1,0,11,40,520,1,53298,1
2,35801,32024,32713,17477,26920,-4498,526,-1126,-1425,-2902,-8001,71,613,-259,1,0,11,40,560,1,53298,1
2,35554,32062,32718,17478,26925,-4160,979,-1161,629,-4134,-8006,92,614,-238,1,0,11,40,600,1,53298,1
2,33814,32142,32721,17479,26930,-4109,787,-1715,51,-3899,-7679,111,621,-233,1,0,11,40,640,1,53298,1
2,33161,32096,32710,17480,26936,-3983,1172,-1925,-204,-2806,-6896,132,620,-238,1,0,11,40,680,1,53298,1
2,32825,32104,32729,17481,26943,-3784,1557,-1811,399,-1417,-4710,150,626,-224,1,0,11,40,720,1,53298,1
2,32824,32010,32717,17482,26948,-3799,1950,-1362,2048,-458,-1213,151,625,-237,1,0,11,40,760,1,53298,1
2,33032,31982,32749,17483,26953,-4024,1471,-1072,1984,205,2333,142,634,-232,1,0,11,40,800,1,53298,1
2,33546,31990,32728,17484,26959,-4051,928,-1422,-1850,1566,4076,133,627,-241,1,0,11,40,840,1,53298,1
2,34290,31880,32741,17485,26965,-4100,738,-1394,-1725,2196,5453,114,620,-250,1,0,11,40,880,1,53298,1
2,35140,31814,32726,17486,26971,-4159,562,-1522,-265,2302,6665,88,614,-252,1,0,11,40,920,1,53298,1
2,35109,31689,32747,17487,26977,-4152,460,-1732,1206,2515,7226,66,610,-252,1,0,11,40,960,1,53298,1
1,33830,31637,32741,17488,0,-4337,543,-1185,1342,3081,6868,45,595,-271,1,0,11,41,0,1,53298,1
2,32627,31579,32738,17489,26341,-4438,201,-1067,-670,2937,5899,34,590,-280,1,0,11,41,40,1,53298,1
2,32310,31570,32745,17490,26346,-4445,-46,-1048,-1221,2316,4322,24,584,-270,1,0,11,41,80,1,53298,1
2,32211,31550,32716,17491,26351,-4377,-260,-1104,-773,1438,2224,22,580,-278,1,0,11,41,120,1,53298,1
2,32228,31599,32735,17492,26355,-4376,-301,-938,-132,325,-209,18,576,-272,1,0,11,41,160,1,53298,1
2,32366,31526,32738,17493,26359,-4349,-76,-880,226,-907,-2561,30,584,-272,1,0,11,41,200,1,53298,1
2,32800,31548,32737,17494,26364,-4363,-75,-1057,84,-1990,-4761,51,595,-275,1,0,11,41,240,1,53298,1
2,34899,31568,32743,17495,26368,-4387,317,-1044,573,-2786,-6555,66,604,-256,1,0,11,41,280,1,53298,1
2,36085,31600,32754,17496,26373,-4210,955,-932,1660,-3754,-7003,79,609,-257,1,0,11,41,320,1,53298,1
2,34217,31632,32771,17497,26379,-4250,462,-1515,-326,-3726,-6927,100,628,-248,1,0,11,41,360,1,53298,1
2,33395,31640,32777,17498,26384,-4175,716,-1881,-2049,-2921,-7026,112,628,-230,1,0,11,41,400,1,53298,1
2,32956,31690,32787,17499,26389,-4013,1342,-1876,-772,-1987,-5754,140,634,-226,1,0,11,41,440,1,53298,1
2,32767,31660,32767,17500,26395,-3899,1537,-1669,1598,-1041,-2993,151,631,-223,1,0,11,41,480,1,53298,1
2,32837,31647,32777,17501,26401,-3980,1646,-1109,2915,-341,335,139,631,-219,1,0,11,41,520,1,53298,1
2,33024,31624,32753,17502,26406,-3976,1127,-1217,860,696,2686,131,633,-231,1,0,11,41,560,1,53298,1
2,33555,31648,32758,17503,26411,-3879,875,-1463,-1490,1808,4173,122,632,-236,1,0,11,41,600,1,53298,1
2,34281,31636,32775,17504,26416,-3934,900,-1413,-20,2097,6066,95,617,-239,1,0,11,41,640,1,53298,1
2,35082,31547,32770,17505,26420,-4129,778,-1512,1112,2132,7642,68,612,-248,1,0,11,41,680,1,53298,1
2,35377,31477,32762,17506,26424,-4328,568,-1718,840,2670,8120,51,605,-243,1,0,11,41,720,1,53298,1
2,34535,31417,32783,17507,26429,-4534,380,-1447,-277,3509,7241,27,593,-253,1,0,11,41,760,1,53298,1
2,33326,31394,32760,17508,26433,-4691,40,-780,-1652,3225,5546,25,587,-269,1,0,11,41,800,1,53298,1
2,32894,31340,32770,17509,26438,-4414,-270,-964,-1045,2029,3592,14,576,-264,1,0,11,41,840,1,53298,1
2,32828,31313,32776,17510,26443,-4280,-272,-831,449,606,1302,10,576,-276,1,0,11,41,880,1,53298,1
2,33207,31321,32771,17511,26448,-4128,-32,-1054,337,-304,-989,17,585,-267,1,0,11,41,920,1,53298,1
2,34163,31355,32788,17512,26453,-4390,115,-980,314,-1149,-3025,22,584,-264,1,0,11,41,960,1,53298,1
1,36576,31421,32764,17513,0,-4433,308,-1073,-1573,-1749,-5357,45,595,-269,1,0,11,42,0,1,53298,1
2,35536,31457,32762,17514,25834,-4140,469,-1191,-135,-2837,-6512,61,605,-253,1,0,11,42,40,1,53298,1
2,34406,31487,32758,17515,25839,-4139,288,-1363,-372,-3030,-7423,85,609,-239,1,0,11,42,80,1,53298,1
2,33418,31493,32760,17516,25843,-4117,318,-1541,-710,-2787,-8110,107,627,-245,1,0,11,42,120,1,53298,1
2,32867,31499,32763,17517,25850,-4118,982,-1546,1349,-2788,-7492,134,626,-238,1,0,11,42,160,1,53298,1
2,32606,31468,32785,17518,25855,-3969,1989,-1543,3560,-2611,-5164,148,626,-234,1,0,11,42,200,1,53298,1
2,32646,31474,32784,17519,25860,-3809,2300,-1721,2965,-1398,-1600,142,632,-240,1,0,11,42,240,1,53298,1
2,32910,31493,32769,17520,25865,-4038,1209,-1468,85,460,1490,142,632,-234,1,0,11,42,280,1,53298,1
2,33500,31504,32805,17521,25871,-4006,916,-1222,-1303,1493,3579,122,620,-236,1,0,11,42,320,1,53298,1
2,34565,31467,32784,17522,25877,-4024,768,-1431,-847,1739,5298,112,618,-240,1,0,11,42,360,1,53298,1
2,35349,31355,32787,17523,25882,-4123,636,-1547,-58,2158,6411,84,622,-248,1,0,11,42,400,1,53298,1
2,35115,31250,32778,17524,25887,-4205,431,-1746,118,2902,6756,68,606,-256,1,0,11,42,440,1,53298,1
2,33707,31211,32805,17525,25893,-4440,284,-1189,183,3468,6387,57,609,-263,1,0,11,42,480,1,53298,1
2,32729,31204,32800,17526,25898,-4552,-20,-970,-470,2783,5241,42,600,-272,1,0,11,42,520,1,53298,1
2,32345,31201,32764,17527,25904,-4514,-290,-1041,-1668,2233,3055,33,585,-283,1,0,11,42,560,1,53298,1
2,32303,31188,32772,17528,25909,-4602,-602,-798,-2517,1405,241,37,587,-285,1,0,11,42,600,1,53298,1
2,32378,31170,32785,17529,25914,-4371,-465,-1021,-1569,21,-2560,41,589,-281,1,0,11,42,640,1,53298,1
2,32746,31184,32788,17530,25919,-4318,-159,-759,1278,-2076,-4246,51,601,-265,1,0,11,42,680,1,53298,1
2,33770,31171,32815,17531,25924,-4533,-60,-973,522,-3219,-6136,77,601,-269,1,0,11,42,720,1,53298,1
2,35992,31216,32803,17532,25930,-4525,427,-957,-294,-3805,-8009,88,614,-242,1,0,11,42,760,1,53298,1
2,34863,31280,32805,17533,25936,-4382,322,-1258,11,-4373,-8372,118,624,-240,1,0,11,42,800,1,53298,1
2,33756,31336,32815,17534,25942,-4285,110,-1559,-1376,-3928,-8748,161,623,-229,1,0,11,42,840,1,53298,1
2,32923,31376,32841,17535,25948,-4278,242,-1662,-981,-3199,-8688,177,629,-221,1,0,11,42,880,1,53298,1
2,32598,31291,32841,17536,25953,-4196,858,-1630,1963,-2543,-7216,209,627,-217,1,0,11,42,920,1,53298,1
2,32488,31288,32859,17537,25958,-4021,1809,-1221,5194,-2008,-4030,210,618,-220,1,0,11,42,960,1,53298,1
1,32562,31273,32855,17538,0,-3994,1601,-1407,2190,-452,-585,214,616,-214,1,0,11,43,0,0,53298,1
2,32836,31293,32870,17539,25327,-3942,848,-1413,-2213,1504,2073,206,618,-220,1,0,11,43,40,0,53298,1
2,33702,31305,32860,17540,25332,-4087,669,-1057,-1426,2001,4780,193,621,-223,1,0,11,43,80,0,53298,1
2,34759,31262,32863,17541,25338,-4227,375,-1295,-1027,2141,6788,158,622,-226,1,0,11,43,120,0,53298,1
2,35343,31193,32862,17542,25342,-4429,-16,-1545,-1313,2673,7399,133,625,-227,1,0,11,43,160,0,53298,1
2,34225,31150,32860,17543,25346,-4557,-368,-1156,-1590,3496,6809,128,614,-240,1,0,11,43,200,0,53298,1
2,33125,31103,32855,17544,25352,-4569,-83,-884,729,2924,6122,89,611,-249,1,0,11,43,240,0,53298,1
2,32632,31102,32850,17545,25357,-4641,-559,-890,-705,2347,4360,80,618,-260,1,0,11,43,280,0,53298,1
2,32476,31099,32863,17546,25362,-4540,-623,-770,-415,1413,2271,79,609,-259,1,0,11,43,320,0,53298,1
2,32507,31080,32870,17547,25367,-4603,-579,-482,-91,254,-55,90,616,-260,1,0,11,43,360,0,53298,1
2,32677,31093,32872,17548,25372,-4624,-474,-853,-1010,-691,-2513,85,609,-241,1,0,11,43,400,0,53298,1
2,33389,31111,32877,17549,25376,-4509,-501,-802,691,-2125,-4412,111,621,-243,1,0,11,43,440,0,53298,1
2,35256,31158,32856,17550,25381,-4391,-307,-852,1009,-3165,-6074,130,618,-236,1,0,11,43,480,0,53298,1
2,36365,31171,32867,17551,25387,-4458,126,-1034,2421,-4206,-6601,152,626,-228,1,0,11,43,520,0,53298,1
2,34631,31171,32892,17552,25391,-4507,156,-1812,2082,-3929,-6347,168,626,-218,1,0,11,43,560,0,53298,1
2,33731,31191,32898,17553,25396,-4217,1115,-2005,2204,-2620,-5458,185,625,-223,1,0,11,43,600,0,53298,1
2,33356,31181,32903,17554,25401,-4117,1493,-1702,1249,-1026,-3180,194,632,-220,1,0,11,43,640,0,53298,1
2,33361,31195,32901,17555,25406,-4122,1354,-1220,2184,-234,536,190,632,-218,1,0,11,43,680,0,53298,1
2,33604,31216,32892,17556,25411,-4199,570,-1043,608,954,3074,170,630,-218,1,0,11,43,720,0,53298,1
2,34182,31209,32890,17557,25416,-4073,318,-1414,-3011,2364,3991,163,635,-229,1,0,11,43,760,0,53298,1
2,35208,31165,32878,17558,25421,-4166,330,-1284,-1331,2840,5288,138,630,-230,1,0,11,43,800,0,53298,1
2,36363,31105,32872,17559,25426,-4342,335,-1421,713,2905,6548,120,632,-234,1,0,11,43,840,0,53298,1
2,35502,31050,32882,17560,25431,-4354,261,-1569,555,3372,6822,98,620,-254,1,0,11,43,880,0,53298,1
2,33800,31012,32877,17561,25436,-4574,162,-722,-1237,3769,6080,86,614,-260,1,0,11,43,920,0,53298,1
2,32705,31003,32859,17562,25441,-4545,-215,-1104,-2276,3342,4989,69,617,-267,1,0,11,43,960,0,53298,1
1,32437,30987,32843,17563,0,-4646,-464,-748,-1206,2348,3246,62,608,-266,1,0,11,44,0,0,53298,1
2,32369,30986,32841,17564,24821,-4673,-707,-648,-791,1111,865,71,601,-273,1,0,11,44,40,0,53298,1
2,32473,30976,32840,17565,24826,-4544,-697,-791,-1691,-300,-2175,68,610,-272,1,0,11,44,80,0,53298,1
2,32837,30992,32834,17566,24830,-4568,-538,-687,-1185,-1824,-4685,83,615,-255,1,0,11,44,120,0,53298,1
2,34919,31039,32844,17567,24835,-4519,-372,-740,-674,-3105,-6757,99,619,-251,1,0,11,44,160,0,53298,1
2,36697,31110,32832,17568,24840,-4437,316,-619,1318,-4771,-7620,132,616,-234,1,0,11,44,200,0,53298,1
2,34732,31111,32850,17569,24846,-4587,-507,-1600,344,-5114,-7970,162,620,-208,1,0,11,44,240,0,53298,1
2,33243,31067,32858,17570,24851,-4379,299,-1927,-232,-4245,-8643,185,629,-213,1,0,11,44,280,0,53298,1
2,32650,31086,32854,17571,24857,-4183,816,-1762,1158,-3029,-7550,206,618,-198,1,0,11,44,320,0,53298,1
2,32410,31066,32851,17572,24862,-4076,1685,-1867,3209,-2108,-4551,222,612,-204,1,0,11,44,360,0,53298,1
2,32353,31042,32846,17573,24868,-3887,1453,-1628,4020,-498,-361,222,622,-202,1,0,11,44,400,0,53298,1
2,32382,31033,32837,17574,24874,-4005,1160,-1030,3012,1280,2930,211,623,-215,1,0,11,44,440,0,53298,1
2,32559,31075,32854,17575,24880,-4196,796,-1132,-897,2656,5082,195,621,-217,1,0,11,44,480,0,53298,1
2,33276,31098,32845,17576,24886,-4339,447,-1246,-2288,3326,6825,159,627,-223,1,0,11,44,520,0,53298,1
2,34624,31109,32835,17577,24891,-4494,97,-741,-1435,3425,8046,136,624,-240,1,0,11,44,560,0,53298,1
2,35942,31006,32829,17578,24897,-4409,-153,-1120,-1329,3064,8231,116,624,-236,1,0,11,44,600,0,53298,1
2,35397,30954,32818,17579,24903,-4319,-485,-1709,-1179,3434,7239,85,615,-245,1,0,11,44,640,0,53298,1
2,34112,30943,32821,17580,24908,-4431,-426,-1443,846,3719,5851,71,617,-253,1,0,11,44,680,0,53298,1
2,32918,30925,32819,17581,24914,-4897,-297,-124,1248,2688,3980,55,603,-263,1,0,11,44,720,0,53298,1
2,32596,30905,32774,17582,24919,-4806,-614,-611,-1010,1412,1310,61,609,-265,1,0,11,44,760,0,53298,1
2,32585,30905,32775,17583,24924,-4647,-605,-565,-1941,-202,-1811,70,616,-272,1,0,11,44,800,0,53298,1
2,32897,30907,32800,17584,24929,-4504,-326,-811,-1569,-1591,-4019,80,610,-256,1,0,11,44,840,0,53298,1
2,33712,30925,32804,17585,24934,-4622,-389,-953,-360,-3041,-5569,105,633,-245,1,0,11,44,880,0,53298,1
2,36316,30933,32798,17586,24938,-4588,-165,-1056,-989,-3526,-7489,127,619,-237,1,0,11,44,920,0,53298,1
2,35071,30967,32816,17587,24943,-4222,512,-1015,260,-4237,-8051,152,632,-226,1,0,11,44,960,0,53298,1
1,33635,30966,32801,17588,0,-4201,244,-1372,850,-4089,-7696,184,624,-216,1,0,11,45,0,0,53298,1
2,32744,30981,32810,17589,24315,-4180,469,-1502,626,-3327,-7205,201,619,-207,1,0,11,45,40,0,53298,1
2,32452,30967,32805,17590,24320,-4179,769,-1469,1293,-2523,-5609,225,615,-209,1,0,11,45,80,0,53298,1
2,32349,30926,32790,17591,24326,-4063,1620,-1604,1865,-1537,-2921,229,611,-209,1,0,11,45,120,0,53298,1
2,32383,30960,32797,17592,24331,-4097,1047,-1307,1130,81,467,222,624,-212,1,0,11,45,160,0,53298,1
2,32535,30979,32788,17593,24337,-4152,880,-980,-197,1306,3237,207,619,-205,1,0,11,45,200,0,53298,1
2,33145,31007,32780,17594,24342,-4253,616,-1057,-1459,1892,5475,186,614,-214,1,0,11,45,240,0,53298,1
2,34060,31007,32792,17595,24346,-4373,321,-1046,-1334,2077,7121,164,624,-212,1,0,11,45,280,0,53298,1
2,34773,30945,32804,17596,24351,-4360,175,-1377,-1049,2343,8014,124,618,-216,1,0,11,45,320,0,53298,1
2,33810,30910,32791,17597,24355,-4284,104,-1587,-555,3170,8099,105,611,-219,1,0,11,45,360,0,53298,1
2,32813,30880,32799,17598,24360,-4479,17,-1461,-177,4018,7681,84,610,-240,1,0,11,45,400,0,53298,1
2,32336,30891,32776,17599,24365,-4833,-175,-745,-801,4037,6464,70,600,-250,1,0,11,45,440,0,53298,1
2,32157,30879,32775,17600,24369,-4774,-532,-950,-1784,3328,4275,60,594,-256,1,0,11,45,480,0,53298,1
2,32115,30850,32749,17601,24375,-4645,-670,-729,-1605,2302,1514,58,606,-266,1,0,11,45,520,0,53298,1
2,32145,30861,32750,17602,24380,-4433,-607,-605,-1090,670,-1163,72,596,-264,1,0,11,45,560,0,53298,1
2,32200,30851,32762,17603,24385,-4362,-105,-499,334,-1282,-2919,63,603,-261,1,0,11,45,600,0,53298,1
2,32373,30854,32759,17604,24390,-4378,-390,-862,-90,-2570,-4574,95,605,-249,1,0,11,45,640,0,53298,1
2,33239,30869,32767,17605,24395,-4514,-269,-1059,-628,-3015,-6658,117,611,-249,1,0,11,45,680,0,53298,1
2,34864,30903,32747,17606,24400,-4539,36,-1079,171,-3542,-8000,138,624,-236,1,0,11,45,720,0,53298,1
2,34284,30955,32784,17607,24405,-4437,631,-1044,1652,-4524,-8002,157,623,-209,1,0,11,45,760,0,53298,1
2,32934,30972,32785,17608,24410,-4251,704,-1549,1476,-4207,-7322,179,619,-211,1,0,11,45,800,0,53298,1
2,32470,30935,32767,17609,24415,-4102,1076,-1589,990,-3075,-5918,205,615,-207,1,0,11,45,840,0,53298,1
2,32320,30906,32760,17610,24422,-3973,1221,-1635,624,-1567,-3333,211,611,-211,1,0,11,45,880,0,53298,1
2,32314,30903,32764,17611,24428,-3892,1205,-1617,1462,-49,31,208,620,-196,1,0,11,45,920,0,53298,1
2,32486,30960,32773,17612,24434,-4033,1058,-1389,1965,1521,3202,194,622,-210,1,0,11,45,960,0,53298,1
1,33245,30995,32767,17613,0,-4344,721,-834,1379,2573,5555,172,622,-218,1,0,11,46,0,1,53298,1
2,34201,31030,32774,17614,23810,-4495,397,-585,661,2429,6942,151,621,-217,1,0,11,46,40,1,53298,1
2,35028,30939,32763,17615,23815,-4367,126,-1419,-661,2589,7310,116,616,-224,1,0,11,46,80,1,53298,1
2,34755,30902,32765,17616,23821,-4207,160,-1670,545,3088,7281,101,619,-233,1,0,11,46,120,1,53298,1
2,33625,30910,32780,17617,23826,-4283,325,-1466,1409,3668,7280,77,615,-237,1,0,11,46,160,1,53298,1
2,32818,30885,32791,17618,23831,-4817,83,-504,-1124,3886,6396,62,614,-248,1,0,11,46,200,1,53298,1
2,32453,30882,32784,17619,23836,-4760,-446,-926,-3722,3614,4368,54,602,-260,1,0,11,46,240,1,53298,1
2,32410,30883,32780,17620,23841,-4728,-571,-633,-2535,1974,1831,46,598,-258,1,0,11,46,280,1,53298,1
2,32562,30876,32800,17621,23847,-4447,-376,-951,-977,170,-590,57,595,-253,1,0,11,46,320,1,53298,1
2,32954,30893,32827,17622,23853,-4382,-181,-916,861,-1327,-2637,68,604,-256,1,0,11,46,360,1,53298,1
2,33999,30916,32822,17623,23858,-4390,-211,-1095,-1093,-1597,-4964,86,614,-256,1,0,11,46,400,1,53298,1
2,35288,30955,32834,17624,23864,-4252,562,-646,-824,-2374,-6289,102,610,-242,1,0,11,46,440,1,53298,1
2,34359,30960,32817,17625,23869,-4175,279,-1206,237,-3362,-5934,111,609,-225,1,0,11,46,480,1,53298,1
2,33703,30987,32807,17626,23874,-4106,257,-1509,-109,-3055,-6017,141,611,-221,1,0,11,46,520,1,53298,1
2,33191,30990,32831,17627,23881,-4177,454,-1514,-106,-2253,-5905,158,606,-224,1,0,11,46,560,1,53298,1
2,32957,30987,32836,17628,23886,-4150,973,-1355,1648,-1795,-4621,172,622,-214,1,0,11,46,600,1,53298,1
2,32918,31015,32832,17629,23891,-4017,1477,-1254,3486,-1540,-2168,175,617,-217,1,0,11,46,640,1,53298,1
2,33153,31008,32816,17630,23897,-4019,1319,-1240,2182,-520,465,178,626,-218,1,0,11,46,680,1,53298,1
2,33692,31076,32818,17631,23901,-4000,1124,-1299,194,722,2740,162,626,-226,1,0,11,46,720,1,53298,1
2,34875,31021,32819,17632,23907,-4190,834,-1315,-61,1413,4903,139,625,-223,1,0,11,46,760,1,53298,1
2,35482,30951,32819,17633,23913,-4308,459,-1564,-299,1985,6277,128,614,-228,1,0,11,46,800,1,53298,1
2,34699,30941,32811,17634,23918,-4252,261,-1820,101,2969,6786,99,609,-233,1,0,11,46,840,1,53298,1
2,33161,30927,32787,17635,23924,-4433,282,-832,659,3613,6696,71,615,-237,1,0,11,46,880,1,53298,1
2,32581,30913,32794,17636,23929,-4493,-1,-993,608,3206,6172,63,599,-253,1,0,11,46,920,1,53298,1
2,32411,30878,32812,17637,23934,-4789,-199,-691,-458,2516,4288,53,587,-259,1,0,11,46,960,1,53298,1
1,32445,30875,32819,17638,0,-4776,-629,-788,-3282,1817,1219,41,593,-265,1,0,11,47,0,0,53298,1
2,32611,30880,32821,17639,23304,-4583,-459,-739,-2209,136,-1472,56,600,-252,1,0,11,47,40,0,53298,1
2,33357,30885,32822,17640,23310,-4471,-558,-884,-1211,-1356,-3860,65,607,-251,1,0,11,47,80,0,53298,1
2,35402,30922,32821,17641,23316,-4331,-300,-877,-595,-2280,-6168,90,608,-242,1,0,11,47,120,0,53298,1
2,35250,30944,32818,17642,23323,-4105,763,-638,1877,-3692,-6749,113,609,-235,1,0,11,47,160,0,53298,1
2,33729,30971,32842,17643,23328,-4088,402,-1356,884,-3721,-6637,136,614,-228,1,0,11,47,200,0,53298,1
2,33086,30969,32837,17644,23334,-4210,638,-1644,-339,-3069,-6604,149,617,-215,1,0,11,47,240,0,53298,1
2,32788,30991,32845,17645,23340,-4154,1134,-1811,282,-2180,-5447,171,619,-217,1,0,11,47,280,0,53298,1
2,32898,30986,32846,17646,23345,-4025,1641,-1742,2207,-1188,-2778,173,623,-223,1,0,11,47,320,0,53298,1
2,33233,30988,32832,17647,23351,-4271,1474,-693,2980,-487,622,168,630,-212,1,0,11,47,360,0,53298,1
2,33929,31017,32821,17648,23356,-3987,1223,-1217,115,514,3239,156,628,-220,1,0,11,47,400,0,53298,1
2,34855,30914,32837,17649,23361,-3908,843,-1588,-1933,1947,5072,135,623,-233,1,0,11,47,440,0,53298,1
2,35141,30860,32822,17650,23367,-4030,682,-1692,-456,2839,6915,106,612,-224,1,0,11,47,480,0,53298,1
2,33695,30817,32824,17651,23372,-4318,385,-1673,374,3731,8047,79,615,-227,1,0,11,47,520,0,53298,1
2,32760,30802,32843,17652,23378,-4751,151,-704,156,3851,7740,64,606,-250,1,0,11,47,560,0,53298,1
2,32411,30793,32841,17653,23383,-4829,-227,-794,-1578,3449,6131,52,592,-256,1,0,11,47,600,0,53298,1
2,32333,30789,32845,17654,23389,-4824,-721,-727,-3177,2548,3176,47,595,-263,1,0,11,47,640,0,53298,1
2,32378,30797,32829,17655,23395,-4654,-728,-786,-2511,946,34,46,588,-256,1,0,11,47,680,0,53298,1
2,32634,30801,32842,17656,23401,-4478,-565,-776,-269,-850,-2488,59,593,-253,1,0,11,47,720,0,53298,1
2,33419,30803,32832,17657,23406,-4315,-502,-998,214,-1886,-5062,78,602,-252,1,0,11,47,760,0,53298,1
2,35516,30821,32848,17658,23411,-4254,165,-817,991,-2621,-7017,103,609,-245,1,0,11,47,800,0,53298,1
2,34625,30857,32855,17659,23417,-4152,749,-939,2403,-3880,-7079,125,615,-237,1,0,11,47,840,0,53298,1
2,33635,30895,32853,17660,23423,-4199,551,-1538,686,-3577,-6967,138,624,-230,1,0,11,47,880,0,53298,1
2,33113,30903,32866,17661,23429,-4286,730,-1669,-382,-2680,-6694,167,625,-215,1,0,11,47,920,0,53298,1
2,32795,30910,32848,17662,23434,-4217,1088,-1556,533,-1809,-5242,181,625,-211,1,0,11,47,960,0,53298,1
1,32767,30910,32857,17663,0,-4060,1624,-1271,2879,-1529,-2294,186,626,-212,1,0,11,48,0,1,53298,1
2,33020,30918,32855,17664,22799,-4050,1235,-1176,2054,-490,769,167,619,-217,1,0,11,48,40,1,53298,1
2,33480,30919,32855,17665,22805,-3999,895,-1353,-967,1164,2738,165,627,-221,1,0,11,48,80,1,53298,1
2,34241,30905,32849,17666,22810,-4086,755,-1233,-579,1856,4677,143,621,-221,1,0,11,48,120,1,53298,1
2,35249,30845,32861,17667,22817,-4237,468,-1390,-256,2052,6232,116,616,-224,1,0,11,48,160,1,53298,1
2,35131,30814,32847,17668,22822,-4216,304,-1709,237,2502,6934,99,619,-229,1,0,11,48,200,1,53298,1
2,33947,30786,32852,17669,22828,-4447,376,-1045,638,3296,6766,82,606,-244,1,0,11,48,240,1,53298,1
2,32840,30767,32848,17670,22833,-4628,20,-1024,-857,3222,6006,66,610,-244,1,0,11,48,280,1,53298,1
2,32541,30753,32839,17671,22839,-4691,-259,-924,-1699,2855,4338,51,599,-261,1,0,11,48,320,1,53298,1
2,32473,30752,32834,17672,22844,-4578,-426,-827,-1140,1786,2141,48,596,-262,1,0,11,48,360,1,53298,1
2,32563,30750,32830,17673,22849,-4460,-387,-916,-870,504,-288,59,599,-263,1,0,11,48,400,1,53298,1
2,32895,30742,32830,17674,22854,-4366,-386,-846,-581,-632,-2598,70,598,-260,1,0,11,48,440,1,53298,1
2,34260,30761,32832,17675,22859,-4339,-321,-813,-254,-1628,-4683,84,608,-258,1,0,11,48,480,1,53298,1
2,35573,30800,32835,17676,22863,-4337,360,-603,666,-2854,-6017,89,615,-243,1,0,11,48,520,1,53298,1
2,34587,30811,32838,17677,22867,-4314,337,-1189,1295,-3809,-6146,126,626,-240,1,0,11,48,560,1,53298,1
2,33536,30842,32848,17678,22872,-4298,526,-1521,380,-3439,-6382,145,621,-225,1,0,11,48,600,1,53298,1
2,33123,30850,32848,17679,22876,-4200,934,-1802,-629,-2413,-5996,149,613,-225,1,0,11,48,640,1,53298,1
2,33020,30856,32846,17680,22881,-3982,1317,-1777,872,-1395,-4011,171,629,-223,1,0,11,48,680,1,53298,1
2,33273,30873,32857,17681,22885,-3943,1714,-1141,3089,-660,-687,163,623,-227,1,0,11,48,720,1,53298,1
2,33627,30885,32852,17682,22890,-3956,1283,-1124,1826,13,2289,158,616,-222,1,0,11,48,760,1,53298,1
2,34522,30885,32850,17683,22896,-3917,898,-1533,-1262,1453,4145,143,621,-229,1,0,11,48,800,1,53298,1
2,35412,30811,32851,17684,22901,-4073,733,-1436,-782,2316,5798,117,613,-223,1,0,11,48,840,1,53298,1
2,35408,30780,32847,17685,22907,-4299,410,-1698,-648,3080,6898,97,615,-233,1,0,11,48,880,1,53298,1
2,34049,30767,32864,17686,22912,-4599,107,-1128,-677,3683,6798,78,608,-244,1,0,11,48,920,1,53298,1
2,33194,30745,32856,17687,22917,-4636,-125,-944,-421,3130,5776,58,602,-256,1,0,11,48,960,1,53298,1
1,32845,30743,32848,17688,0,-4695,-468,-743,-1537,2420,3611,62,600,-254,1,0,11,49,0,0,53298,1
2,32929,30740,32840,17689,22293,-4514,-642,-741,-1570,1161,991,55,597,-267,1,0,11,49,40,0,53298,1
2,33296,30758,32827,17690,22298,-4436,-399,-744,-68,-288,-1308,61,603,-261,1,0,11,49,80,0,53298,1
2,34738,30770,32841,17691,22303,-4384,-409,-883,586,-1471,-3421,77,605,-265,1,0,11,49,120,0,53298,1
2,36099,30816,32832,17692,22309,-4299,187,-676,1368,-2624,-5161,91,619,-231,1,0,11,49,160,0,53298,1
2,34894,30826,32832,17693,22313,-4277,194,-1108,1388,-3439,-5809,104,620,-240,1,0,11,49,200,0,53298,1
2,33670,30845,32845,17694,22319,-4276,319,-1468,866,-3353,-6280,128,622,-228,1,0,11,49,240,0,53298,1
2,33196,30845,32859,17695,22324,-4224,1057,-1807,56,-2590,-6202,146,626,-220,1,0,11,49,280,0,53298,1
2,33021,30838,32855,17696,22329,-4122,1722,-1750,1191,-1754,-4190,150,622,-214,1,0,11,49,320,0,53298,1
2,33193,30862,32863,17697,22334,-3938,1841,-1243,2883,-1018,-636,153,625,-207,1,0,11,49,360,0,53298,1
2,33524,30865,32834,17698,22339,-4089,901,-1167,424,298,1869,143,629,-213,1,0,11,49,400,0,53298,1
2,34297,30864,32839,17699,22345,-4045,614,-1183,-1832,1345,3176,133,625,-219,1,0,11,49,440,0,53298,1
2,35388,30801,32842,17700,22350,-4091,661,-1190,-857,1438,4516,126,618,-232,1,0,11,49,480,0,53298,1
2,36111,30783,32818,17701,22355,-4063,573,-1739,-51,1687,5756,106,616,-228,1,0,11,49,520,0,53298,1
2,34506,30764,32817,17702,22361,-4228,684,-1393,597,2528,6469,79,609,-243,1,0,11,49,560,0,53298,1
2,33090,30737,32818,17703,22366,-4491,384,-1294,-729,2927,6407,61,601,-247,1,0,11,49,600,0,53298,1
2,32555,30718,32821,17704,22372,-4700,65,-1053,-2457,3236,5260,45,603,-249,1,0,11,49,640,0,53298,1
2,32354,30702,32807,17705,22377,-4561,-453,-1166,-3603,3066,3096,52,596,-256,1,0,11,49,680,0,53298,1
2,32353,30695,32798,17706,22382,-4463,-348,-575,-706,1583,989,46,590,-266,1,0,11,49,720,0,53298,1
2,32529,30684,32810,17707,22387,-4227,-11,-779,579,-38,-834,54,594,-266,1,0,11,49,760,0,53298,1
2,33053,30698,32808,17708,22392,-4325,-102,-812,930,-1244,-2535,56,598,-262,1,0,11,49,800,0,53298,1
2,34751,30715,32815,17709,22396,-4416,-26,-858,-956,-1755,-4703,78,602,-252,1,0,11,49,840,0,53298,1
2,36978,30769,32813,17710,22401,-4390,376,-657,240,-3102,-5674,95,613,-239,1,0,11,49,880,0,53298,1
2,35052,30805,32804,17711,22407,-4386,-327,-1527,-36,-3671,-6143,107,611,-229,1,0,11,49,920,0,53298,1
2,33894,30863,32824,17712,22412,-4219,232,-1655,-116,-3214,-6903,133,617,-231,1,0,11,49,960,0,53298,1
1,33188,30863,32825,17713,0,-4140,1087,-1726,630,-2426,-6546,138,626,-224,1,0,11,50,0,0,53298,1
2,33005,30885,32806,17714,21789,-3970,1852,-1438,2618,-1753,-4183,163,629,-225,1,0,11,50,40,0,53298,1
2,33222,30887,32822,17715,21795,-3891,1915,-1249,3290,-983,-408,165,629,-217,1,0,11,50,80,0,53298,1
2,33677,30925,32806,17716,21800,-4022,1023,-1298,-55,572,2129,151,627,-227,1,0,11,50,120,0,53298,1
2,34534,30915,32821,17717,21806,-4018,772,-1391,-1188,1691,3811,133,621,-221,1,0,11,50,160,0,53298,1
2,36400,30829,32808,17718,21812,-4115,724,-1456,-199,2111,5397,109,613,-231,1,0,11,50,200,0,53298,1
2,36335,30756,32811,17719,21817,-3998,552,-1703,348,2684,6550,92,620,-234,1,0,11,50,240,0,53298,1
2,34381,30735,32805,17720,21824,-4408,656,-1533,1007,3535,7177,75,609,-243,1,0,11,50,280,0,53298,1
2,32749,30723,32779,17721,21830,-4815,162,-900,-2031,3867,6283,49,609,-261,1,0,11,50,320,0,53298,1
2,32381,30702,32781,17722,21836,-4769,-368,-925,-3674,3643,4475,42,598,-258,1,0,11,50,360,0,53298,1
2,32269,30712,32766,17723,21842,-4784,-590,-871,-1849,2201,2017,48,586,-268,1,0,11,50,400,0,53298,1
2,32263,30695,32773,17724,21848,-4493,-546,-730,-538,698,-783,50,596,-280,1,0,11,50,440,0,53298,1
2,32343,30694,32778,17725,21854,-4187,-232,-779,102,-685,-3112,71,589,-277,1,0,11,50,480,0,53298,1
2,32786,30707,32789,17726,21861,-4140,-226,-883,-176,-1650,-5020,79,597,-269,1,0,11,50,520,0,53298,1
2,33877,30732,32795,17727,21867,-4207,-47,-885,-63,-2453,-6485,100,612,-252,1,0,11,50,560,0,53298,1
2,35145,30742,32786,17728,21873,-4349,516,-655,1008,-3709,-7062,119,611,-253,1,0,11,50,600,0,53298,1
2,34032,30781,32790,17729,21878,-4402,218,-1360,842,-4365,-7049,134,620,-224,1,0,11,50,640,0,53298,1
2,33163,30804,32809,17730,21883,-4341,505,-1646,534,-3817,-7241,158,618,-216,1,0,11,50,680,0,53298,1
2,32675,30783,32816,17731,21889,-4215,1157,-1798,783,-2803,-6303,180,624,-220,1,0,11,50,720,0,53298,1
2,32467,30789,32803,17732,21894,-3975,1656,-1751,1759,-1485,-3648,191,627,-215,1,0,11,50,760,0,53298,1
2,32486,30792,32809,17733,21899,-3994,1597,-1615,1445,-84,32,185,625,-215,1,0,11,50,800,0,53298,1
2,32728,30812,32810,17734,21905,-4208,1156,-928,1488,1069,3444,170,622,-224,1,0,11,50,840,0,53298,1
2,33187,30844,32817,17735,21910,-4145,829,-1218,-541,1918,5521,144,622,-220,1,0,11,50,880,0,53298,1
2,34060,30866,32804,17736,21915,-4151,566,-1275,-953,2598,6853,131,623,-225,1,0,11,50,920,0,53298,1
2,35787,30810,32772,17737,21920,-4196,491,-1244,-185,2890,7786,101,615,-237,1,0,11,50,960,0,53298,1
1,35570,30743,32792,17738,0,-4160,339,-1754,424,3286,8263,68,606,-240,1,0,11,51,0,1,53298,1
2,33793,30723,32796,17739,21284,-4460,403,-1235,1484,3717,8154,48,600,-262,1,0,11,51,40,1,53298,1
2,32516,30699,32773,17740,21289,-4664,1,-1102,-436,3270,6936,34,592,-262,1,0,11,51,80,1,53298,1
2,32256,30710,32775,17741,21295,-4654,-149,-879,-917,2613,4847,27,585,-269,1,0,11,51,120,1,53298,1
2,32182,30690,32770,17742,21302,-4446,-378,-993,-1327,1850,2175,22,578,-276,1,0,11,51,160,1,53298,1
2,32178,30685,32777,17743,21307,-4475,-356,-695,-839,650,-482,21,587,-283,1,0,11,51,200,1,53298,1
2,32216,30694,32765,17744,21312,-4389,124,-753,-452,-816,-2766,35,585,-271,1,0,11,51,240,1,53298,1
2,32500,30690,32788,17745,21318,-4446,-84,-1038,-515,-2015,-4768,62,598,-262,1,0,11,51,280,1,53298,1
2,33298,30705,32798,17746,21324,-4390,-5,-1082,-895,-2607,-6918,77,605,-265,1,0,11,51,320,1,53298,1
2,35604,30740,32789,17747,21330,-4482,385,-809,-698,-3389,-8351,100,616,-242,1,0,11,51,360,1,53298,1
2,34619,30772,32801,17748,21335,-4270,730,-1050,-169,-4487,-8538,118,626,-218,1,0,11,51,400,1,53298,1
2,33366,30811,32809,17749,21340,-4120,539,-1542,-146,-4257,-8353,155,623,-225,1,0,11,51,440,1,53298,1
2,32642,30787,32803,17750,21346,-4102,799,-1585,32,-3352,-7690,170,612,-212,1,0,11,51,480,1,53298,1
2,32418,30789,32794,17751,21351,-4052,1155,-1710,667,-2296,-5818,188,618,-206,1,0,11,51,520,1,53298,1
2,32382,30761,32820,17752,21355,-3956,1558,-1573,2260,-1178,-2806,195,631,-209,1,0,11,51,560,1,53298,1
2,32514,30784,32809,17753,21360,-4096,1488,-1201,2267,160,679,191,627,-213,1,0,11,51,600,1,53298,1
2,32848,30813,32801,17754,21366,-4112,1118,-1091,758,1279,3553,169,625,-207,1,0,11,51,640,1,53298,1
2,33580,30831,32810,17755,21372,-4130,816,-1145,-136,1956,5770,152,632,-222,1,0,11,51,680,1,53298,1
2,34922,30797,32812,17756,21377,-4280,473,-1263,-462,2454,7212,128,618,-222,1,0,11,51,720,1,53298,1
2,35063,30734,32791,17757,21382,-4235,284,-1671,-434,2906,7850,101,617,-223,1,0,11,51,760,1,53298,1
2,33866,30710,32788,17758,21387,-4333,235,-1584,406,3591,7872,77,609,-249,1,0,11,51,800,1,53298,1
2,32625,30689,32799,17759,21393,-4698,104,-707,66,3927,7074,58,604,-252,1,0,11,51,840,1,53298,1
2,32281,30692,32767,17760,21398,-4603,-189,-966,-537,3221,5604,46,600,-262,1,0,11,51,880,1,53298,1
2,32156,30671,32749,17761,21404,-4549,-217,-811,-331,2346,3446,47,585,-265,1,0,11,51,920,1,53298,1
2,32147,30665,32774,17762,21410,-4446,-347,-774,-691,1464,1036,46,594,-266,1,0,11,51,960,1,53298,1
1,32174,30680,32778,17763,0,-4346,-173,-867,-312,15,-1214,49,599,-267,1,0,11,52,0,1,53298,1
2,32284,30666,32760,17764,20781,-4390,-103,-780,92,-1433,-3055,56,606,-270,1,0,11,52,40,1,53298,1
2,32620,30675,32772,17765,20786,-4369,-222,-963,-567,-2350,-5117,68,620,-256,1,0,11,52,80,1,53298,1
2,33655,30685,32737,17766,20792,-4336,-9,-929,406,-3213,-6802,95,615,-251,1,0,11,52,120,1,53298,1
2,35795,30734,32729,17767,20798,-4370,557,-893,1835,-4051,-7499,123,617,-237,1,0,11,52,160,1,53298,1
2,34346,30740,32742,17768,20804,-4030,1905,-2171,2042,-4440,-6413,135,623,-229,1,0,11,52,200,1,53298,1
2,33558,30719,32718,17769,20810,-3606,2712,-2588,1349,-2087,-2844,131,631,-217,1,0,11,52,240,1,53298,1
2,33473,30730,32722,17770,20817,-3945,715,-1613,-790,1022,305,126,630,-216,1,0,11,52,280,1,53298,1
2,33666,30733,32737,17771,20823,-4031,349,-1311,-1214,1997,2142,118,620,-232,1,0,11,52,320,1,53298,1
2,34539,30761,32749,17772,20829,-4082,388,-1253,536,2050,3210,114,630,-242,1,0,11,52,360,1,53298,1
2,35022,30765,32742,17773,20835,-4517,588,-361,1335,1540,3658,102,620,-246,1,0,11,52,400,1,53298,1
2,35060,30720,32730,17774,20842,-4251,450,-1222,-477,1339,3719,94,624,-252,1,0,11,52,440,1,53298,1
2,35406,30712,32712,17775,20849,-4143,313,-1571,-872,1595,3472,86,610,-244,1,0,11,52,480,1,53298,1
2,34821,30644,32524,17776,20854,-4178,368,-1542,232,1832,3413,67,613,-255,1,0,11,52,520,1,53298,1
2,33056,30637,32511,17777,20860,-4270,451,-1100,1013,1788,3275,62,612,-258,1,0,11,52,560,1,53298,1
2,32253,30603,32456,17778,20865,-4275,357,-1076,457,1407,2722,50,598,-268,1,0,11,52,600,1,53298,1
2,31994,30596,32455,17779,20870,-4296,198,-1184,-831,1338,1647,55,601,-267,1,0,11,52,640,1,53298,1
2,31857,30592,32410,17780,20876,-4326,-7,-1135,-1336,1121,262,53,611,-279,1,0,11,52,680,1,53298,1
2,31865,30593,32397,17781,20882,-4314,13,-1062,-655,181,-1014,65,611,-269,1,0,11,52,720,1,53298,1
2,31930,30592,32379,17782,20887,-4261,192,-1255,-380,-606,-2136,65,615,-277,1,0,11,52,760,1,53298,1
2,32357,30594,32360,17783,20892,-4271,262,-1203,-370,-1009,-3275,83,613,-269,1,0,11,52,800,1,53298,1
2,33516,30617,32364,17784,20898,-4347,390,-968,-873,-1361,-4184,90,614,-276,1,0,11,52,840,1,53298,1
2,34627,30640,32360,17785,20904,-4258,651,-851,-833,-2195,-4484,108,620,-254,1,0,11,52,880,1,53298,1
2,33675,30672,32352,17786,20910,-4196,139,-1283,-520,-2556,-4390,113,629,-247,1,0,11,52,920,1,53298,1
2,32878,30706,32361,17787,20916,-4234,112,-1369,-1203,-2236,-4901,133,623,-249,1,0,11,52,960,1,53298,1
1,32254,30692,32368,17788,0,-4206,356,-1539,-977,-1924,-5010,150,628,-238,1,0,11,53,0,0,53298,1
2,32055,30704,32354,17789,20276,-4065,882,-1510,1797,-1728,-3774,162,632,-244,1,0,11,53,40,0,53298,1
2,32009,30700,32360,17790,20282,-3989,1239,-1544,2549,-1022,-1790,164,630,-234,1,0,11,53,80,0,53298,1
2,32163,30726,32356,17791,20287,-4025,1209,-1539,1031,371,297,158,628,-234,1,0,11,53,120,0,53298,1
2,32612,30779,32351,17792,20292,-4104,1065,-1043,1228,1083,2646,155,623,-237,1,0,11,53,160,0,53298,1
2,33523,30781,32343,17793,20298,-4073,941,-1083,1410,1114,4794,133,631,-237,1,0,11,53,200,0,53298,1
2,34644,30728,32339,17794,20304,-4095,636,-1533,-609,1830,5808,110,624,-252,1,0,11,53,240,0,53298,1
2,34600,30677,32332,17795,20311,-4099,451,-1762,-945,2590,6297,85,623,-249,1,0,11,53,280,0,53298,1
2,32991,30640,32328,17796,20316,-4180,343,-1652,649,3095,6758,64,614,-256,1,0,11,53,320,0,53298,1
2,32147,30603,32327,17797,20321,-4356,217,-1467,1502,3258,6660,51,609,-277,1,0,11,53,360,0,53298,1
2,31841,30572,32324,17798,20326,-4505,138,-1212,839,3331,5466,38,600,-286,1,0,11,53,400,0,53298,1
2,31730,30568,32314,17799,20330,-4605,-58,-983,-715,3126,3463,29,599,-297,1,0,11,53,440,0,53298,1
2,31709,30551,32301,17800,20335,-4562,-303,-868,-1559,2221,1039,35,595,-295,1,0,11,53,480,0,53298,1
2,31735,30558,32291,17801,20339,-4412,-335,-713,-788,518,-1332,43,599,-289,1,0,11,53,520,0,53298,1
2,31954,30572,32282,17802,20345,-4346,-225,-781,-289,-1287,-3562,63,601,-301,1,0,11,53,560,0,53298,1
2,32928,30608,32289,17803,20350,-4353,487,-456,-32,-2936,-5494,64,616,-284,1,0,11,53,600,0,53298,1
2,35589,30628,32269,17804,20355,-4368,349,-967,-573,-4653,-6213,88,622,-262,1,0,11,53,640,0,53298,1
2,34730,30637,32275,17805,20359,-4402,58,-1286,-459,-5186,-6984,112,614,-254,1,0,11,53,680,0,53298,1
2,33380,30660,32280,17806,20364,-4280,141,-1452,-2386,-4682,-8478,141,623,-221,1,0,11,53,720,0,53298,1
2,32373,30672,32292,17807,20369,-4168,535,-1870,-2006,-4025,-8702,159,631,-223,1,0,11,53,760,0,53298,1
2,32058,30670,32290,17808,20373,-4021,1247,-1934,2497,-3549,-6456,184,632,-212,1,0,11,53,800,0,53298,1
2,31963,30682,32290,17809,20379,-3882,1787,-1775,3814,-2162,-3290,186,640,-204,1,0,11,53,840,0,53298,1
2,32075,30692,32282,17810,20384,-3949,1557,-1607,820,209,-199,185,629,-217,1,0,11,53,880,0,53298,1
2,32515,30761,32274,17811,20390,-4109,1034,-1389,-668,2041,2655,180,626,-230,1,0,11,53,920,0,53298,1
2,33623,30763,32266,17812,20396,-4257,958,-618,916,1951,5251,148,628,-234,1,0,11,53,960,0,53298,1
1,34521,30703,32260,17813,0,-4026,568,-1465,-420,2261,6921,117,621,-231,1,0,11,54,0,1,53298,1
2,34897,30632,32246,17814,19774,-4090,463,-1606,-750,3138,7649,99,623,-247,1,0,11,54,40,1,53298,1
2,33720,30609,32242,17815,19779,-4336,383,-1527,307,3738,8221,81,613,-247,1,0,11,54,80,1,53298,1
2,32695,30590,32245,17816,19785,-4562,134,-1484,314,4001,7906,43,607,-255,1,0,11,54,120,1,53298,1
2,32138,30581,32238,17817,19791,-4749,175,-555,525,3626,6634,32,606,-272,1,0,11,54,160,1,53298,1
2,31861,30570,32241,17818,19797,-4505,-277,-1015,-806,2405,4619,31,589,-269,1,0,11,54,200,1,53298,1
2,31797,30575,32234,17819,19803,-4417,-255,-821,-384,1320,2164,27,591,-283,1,0,11,54,240,1,53298,1
2,31877,30574,32234,17820,19809,-4257,-268,-785,-963,307,-361,35,589,-285,1,0,11,54,280,1,53298,1
2,32089,30573,32232,17821,19815,-4443,-253,-787,-1088,-773,-2597,30,600,-274,1,0,11,54,320,1,53298,1
2,32575,30573,32240,17822,19821,-4581,-392,-977,-1674,-1951,-5171,55,603,-273,1,0,11,54,360,1,53298,1
2,33484,30586,32225,17823,19827,-4552,-27,-772,-202,-3451,-7282,75,605,-255,1,0,11,54,400,1,53298,1
2,33956,30618,32237,17824,19834,-4407,73,-959,1016,-4707,-8383,97,623,-249,1,0,11,54,440,1,53298,1
2,33756,30644,32253,17825,19840,-4115,1252,-1700,3097,-5236,-8138,128,634,-226,1,0,11,54,480,1,53298,1
2,33428,30645,32256,17826,19846,-3837,2394,-2230,5706,-4636,-5303,145,635,-221,1,0,11,54,520,1,53298,1
2,33571,30677,32255,17827,19852,-3683,2052,-2339,1239,-1239,-2289,135,633,-223,1,0,11,54,560,1,53298,1
2,33870,30663,32254,17828,19858,-4059,714,-1307,275,944,820,140,632,-232,1,0,11,54,600,1,53298,1
2,34233,30639,32251,17829,19864,-4098,430,-1150,904,1452,2729,127,627,-235,1,0,11,54,640,1,53298,1
2,34501,30620,32250,17830,19869,-4147,452,-1213,1850,1439,3661,117,631,-229,1,0,11,54,680,1,53298,1
2,34728,30595,32256,17831,19876,-4180,586,-1326,1564,1798,4220,107,627,-239,1,0,11,54,720,1,53298,1
2,34625,30605,32252,17832,19882,-4135,666,-1352,906,2256,4602,82,634,-256,1,0,11,54,760,1,53298,1
2,34200,30578,32256,17833,19889,-4132,611,-1408,578,2664,5047,73,627,-259,1,0,11,54,800,1,53298,1
2,33439,30575,32257,17834,19895,-4288,536,-1196,583,2781,5322,56,612,-260,1,0,11,54,840,1,53298,1
2,32936,30558,32261,17835,19901,-4368,337,-1124,131,2493,4975,41,609,-265,1,0,11,54,880,1,53298,1
2,32623,30578,32253,17836,19908,-4487,96,-1046,-104,1956,4012,41,595,-277,1,0,11,54,920,1,53298,1
2,32563,30583,32251,17837,19912,-4710,-238,-983,-1452,1245,2046,35,595,-285,1,0,11,54,960,1,53298,1
1,32760,30580,32254,17838,0,-4742,-452,-917,-2396,94,-641,44,604,-280,1,0,11,55,0,0,53298,1
2,33351,30591,32260,17839,19270,-4737,-561,-908,-257,-1703,-2899,49,601,-273,1,0,11,55,40,0,53298,1
2,34146,30610,32261,17840,19276,-4499,-255,-636,2329,-3558,-5045,72,614,-262,1,0,11,55,80,0,53298,1
2,34600,30648,32258,17841,19283,-4332,-198,-715,540,-4373,-7233,93,609,-253,1,0,11,55,120,0,53298,1
2,33904,30638,32262,17842,19289,-4255,16,-933,-475,-5031,-8652,128,618,-228,1,0,11,55,160,0,53298,1
2,33184,30706,32262,17843,19295,-4208,329,-1240,-914,-5147,-9140,164,626,-222,1,0,11,55,200,0,53298,1
2,32656,30737,32266,17844,19300,-4193,899,-1466,-186,-4791,-8363,171,637,-199,1,0,11,55,240,0,53298,1
2,32309,30737,32278,17845,19306,-4072,1575,-1871,17,-3842,-6210,197,627,-201,1,0,11,55,280,0,53298,1
2,32266,30719,32277,17846,19312,-3847,2241,-2084,463,-2106,-2591,200,620,-202,1,0,11,55,320,0,53298,1
2,32457,30750,32275,17847,19318,-3974,1300,-1741,-606,315,1502,185,633,-203,1,0,11,55,360,0,53298,1
2,32792,30793,32261,17848,19324,-4095,691,-1475,-1703,2191,4384,173,643,-205,1,0,11,55,400,0,53298,1
2,33345,30740,32221,17849,19330,-4377,150,-1123,-1263,3264,6229,144,634,-212,1,0,11,55,440,0,53298,1
2,33960,30685,32169,17850,19337,-4564,92,-634,1203,2941,7167,128,642,-232,1,0,11,55,480,0,53298,1
2,34415,30657,32132,17851,19343,-4444,233,-992,698,2632,6912,106,632,-236,1,0,11,55,520,0,53298,1
2,34949,30622,32111,17852,19349,-4276,393,-1025,-1909,3126,6054,76,626,-248,1,0,11,55,560,0,53298,1
2,34950,30588,32106,17853,19354,-4382,415,-876,-2485,3021,5876,60,622,-252,1,0,11,55,600,0,53298,1
2,34666,30611,32159,17854,19360,-4393,398,-956,-1465,2329,5760,46,624,-256,1,0,11,55,640,0,53298,1
2,34441,30718,32272,17855,19365,-4492,308,-1017,-239,1630,5144,35,601,-257,1,0,11,55,680,0,53298,1
2,34334,30695,32269,17856,19371,-4681,75,-821,-618,1217,3498,25,611,-261,1,0,11,55,720,0,53298,1
2,34568,30738,32266,17857,19376,-4659,-189,-754,-1909,595,1016,34,596,-264,1,0,11,55,760,0,53298,1
2,35331,30891,32262,17858,19382,-4555,-285,-778,-1430,-496,-1485,37,591,-253,1,0,11,55,800,0,53298,1
2,35943,32606,32235,17859,19388,-4510,-83,-615,700,-1784,-3525,51,611,-251,1,0,11,55,840,0,53298,1
2,36124,33765,32251,17860,19395,-4560,-110,-658,710,-2634,-5559,76,614,-246,1,0,11,55,880,0,53298,1
2,34950,34209,32255,17861,19400,-4507,-128,-719,291,-3233,-7405,96,608,-234,1,0,11,55,920,0,53298,1
2,33959,34050,32252,17862,19406,-4389,-5,-857,315,-3685,-8706,116,616,-230,1,0,11,55,960,0,53298,1
1,33016,33857,32249,17863,0,-4301,164,-1113,574,-3690,-9331,152,620,-216,1,0,11,56,0,0,53298,1
2,32509,33678,32253,17864,18767,-4254,428,-1432,1101,-3293,-9117,175,619,-205,1,0,11,56,40,0,53298,1
2,32189,33555,32241,17865,18773,-4144,902,-1645,1900,-2368,-7925,202,618,-196,1,0,11,56,80,0,53298,1
2,31917,33357,32101,17866,18777,-4011,1363,-1615,2688,-1057,-5469,217,615,-193,1,0,11,56,120,0,53298,1
2,31976,33394,32124,17867,18782,-3922,1538,-1617,2362,344,-1996,218,628,-210,1,0,11,56,160,0,53298,1
2,32218,33426,32188,17868,18788,-3990,1390,-1438,1581,1683,1695,204,616,-218,1,0,11,56,200,0,53298,1
2,32845,33394,32240,17869,18794,-4188,1052,-1145,514,2723,4959,181,629,-217,1,0,11,56,240,0,53298,1
2,33437,33379,32240,17870,18800,-4284,727,-1153,-415,3307,7393,150,630,-222,1,0,11,56,280,0,53298,1
2,34021,33203,32233,17871,18806,-4433,446,-1120,-923,3539,8900,115,633,-221,1,0,11,56,320,0,53298,1
2,34607,33093,32229,17872,18812,-4545,73,-1445,-2219,4123,9149,97,611,-229,1,0,11,56,360,0,53298,1
2,34826,32961,32218,17873,18817,-4632,-234,-1557,-2380,4668,8372,72,606,-252,1,0,11,56,400,0,53298,1
2,34307,32846,32217,17874,18822,-4628,-300,-1196,-1285,4737,6995,55,601,-263,1,0,11,56,440,0,53298,1
2,33654,32813,32220,17875,18826,-4616,-303,-825,110,3866,5359,47,595,-279,1,0,11,56,480,0,53298,1
2,33260,32664,32221,17876,18832,-4587,-246,-413,495,2344,3272,37,597,-273,1,0,11,56,520,0,53298,1
2,33327,32517,32214,17877,18837,-4454,-406,-537,-925,792,612,38,596,-270,1,0,11,56,560,0,53298,1
2,33675,32477,32217,17878,18843,-4203,-59,-876,-524,-746,-1557,57,595,-271,1,0,11,56,600,0,53298,1
2,34314,32494,32216,17879,18848,-4296,93,-885,797,-2100,-2921,60,600,-260,1,0,11,56,640,0,53298,1
2,35216,32517,32211,17880,18854,-4377,86,-1010,-322,-2758,-4478,71,609,-249,1,0,11,56,680,0,53298,1
2,34995,32526,32221,17881,18859,-4477,226,-989,-896,-3375,-5843,82,616,-242,1,0,11,56,720,0,53298,1
2,34057,32625,32220,17882,18865,-4539,190,-1220,-1063,-3784,-6754,104,618,-226,1,0,11,56,760,0,53298,1
2,33389,32730,32233,17883,18870,-4496,317,-1389,-850,-3862,-7242,136,612,-210,1,0,11,56,800,0,53298,1
2,32924,32705,32242,17884,18875,-4423,308,-1569,-1516,-3203,-7455,157,623,-215,1,0,11,56,840,0,53298,1
2,32542,32679,32234,17885,18881,-4241,458,-1291,40,-2542,-6854,174,618,-210,1,0,11,56,880,0,53298,1
2,32366,32710,32241,17886,18886,-4052,684,-1254,551,-1910,-5678,189,623,-207,1,0,11,56,920,0,53298,1
2,32251,32668,32249,17887,18892,-4011,886,-1354,604,-1033,-3800,202,618,-208,1,0,11,56,960,0,53298,1
1,32222,32604,32244,17888,0,-4097,1096,-1249,1430,-341,-1203,214,626,-212,1,0,11,57,0,0,53298,1
2,32308,32625,32249,17889,18265,-4167,990,-1434,-246,897,1093,207,625,-223,1,0,11,57,40,0,53298,1
2,32695,32621,32250,17890,18271,-4270,905,-1375,-340,1794,3484,184,632,-216,1,0,11,57,80,0,53298,1
2,33329,32590,32243,17891,18277,-4310,755,-1350,-557,2579,5515,167,623,-225,1,0,11,57,120,0,53298,1
2,34437,32499,32240,17892,18284,-4312,549,-1241,-992,3287,7052,135,631,-229,1,0,11,57,160,0,53298,1
2,34949,32387,32237,17893,18290,-4318,340,-1127,-986,3719,8030,102,620,-238,1,0,11,57,200,0,53298,1
2,33739,32317,32242,17894,18297,-4280,164,-1550,-1530,4333,8240,90,602,-256,1,0,11,57,240,0,53298,1
2,32485,32284,32250,17895,18303,-4307,194,-1326,-610,4671,7954,60,596,-262,1,0,11,57,280,0,53298,1
2,31805,32281,32251,17896,18309,-4368,328,-1026,719,4116,7506,45,593,-281,1,0,11,57,320,0,53298,1
2,31646,32223,32248,17897,18314,-4390,263,-1079,658,3431,6423,34,578,-292,1,0,11,57,360,0,53298,1
2,31586,32240,32248,17898,18320,-4314,187,-1050,-234,2716,4691,25,563,-295,1,0,11,57,400,0,53298,1
2,31563,32204,32244,17899,18325,-4165,122,-1321,-770,2074,2876,28,570,-304,1,0,11,57,440,0,53298,1
2,31561,32168,32246,17900,18330,-4115,261,-1182,466,1235,1402,16,574,-296,1,0,11,57,480,0,53298,1
2,31570,32127,32245,17901,18336,-4166,266,-1309,377,406,-86,29,569,-305,1,0,11,57,520,0,53298,1
2,31583,32097,32248,17902,18341,-3961,892,-1075,230,-496,-1397,26,576,-304,1,0,11,57,560,0,53298,1
2,31615,32147,32248,17903,18347,-4020,722,-1316,-565,-1167,-2059,34,578,-308,1,0,11,57,600,0,53298,1
2,31711,32171,32249,17904,18353,-3947,724,-1395,-635,-1527,-2712,39,575,-297,1,0,11,57,640,0,53298,1
2,31954,32190,32250,17905,18359,-4069,654,-1354,-1034,-1619,-3295,42,590,-278,1,0,11,57,680,0,53298,1
2,32715,32196,32243,17906,18365,-4171,413,-1329,-1389,-1822,-3934,59,595,-287,1,0,11,57,720,0,53298,1
2,35524,32259,32236,17907,18371,-4097,491,-1441,-448,-2254,-4473,77,597,-273,1,0,11,57,760,0,53298,1
2,34990,32299,32235,17908,18378,-3915,895,-1491,724,-2211,-4536,88,608,-278,1,0,11,57,800,0,53298,1
2,32898,32370,32241,17909,18384,-3983,769,-1622,818,-1550,-4085,88,606,-262,1,0,11,57,840,0,53298,1
2,32103,32292,32248,17910,18390,-4259,511,-1479,-57,-977,-3914,113,623,-269,1,0,11,57,880,0,53298,1
2,31783,32221,32253,17911,18395,-4360,436,-1490,-801,-776,-3985,121,625,-265,1,0,11,57,920,0,53298,1
2,31653,32196,32261,17912,18401,-4277,630,-1396,714,-934,-3488,120,628,-270,1,0,11,57,960,0,53298,1
1,31616,32184,32255,17913,0,-4186,744,-1206,1205,-963,-2593,138,632,-268,1,0,11,58,0,1,53298,1
2,31600,32149,32259,17914,17762,-4133,559,-1228,-13,-601,-1861,142,632,-266,1,0,11,58,40,1,53298,1
2,31586,32130,32254,17915,17768,-4120,461,-1240,-810,-268,-1270,135,633,-263,1,0,11,58,80,1,53298,1
2,31586,32125,32255,17916,17773,-4068,499,-1332,-549,-104,-647,143,627,-269,1,0,11,58,120,1,53298,1
2,31601,32134,32251,17917,17779,-4082,638,-1447,223,33,215,141,629,-267,1,0,11,58,160,1,53298,1
2,31636,32206,32257,17918,17785,-4058,866,-1480,-70,572,1115,136,636,-260,1,0,11,58,200,1,53298,1
2,31711,32265,32262,17919,17792,-4043,991,-1485,-962,1253,2208,123,633,-269,1,0,11,58,240,1,53298,1
2,31954,32348,32255,17920,17799,-4145,714,-1134,-1162,1681,3572,116,626,-276,1,0,11,58,280,1,53298,1
2,32403,32472,32247,17921,17806,-4218,825,-1029,-629,1248,4774,99,617,-269,1,0,11,58,320,1,53298,1
2,33120,32499,32241,17922,17812,-4145,694,-1487,-2280,1372,5222,79,617,-279,1,0,11,58,360,1,53298,1
2,34450,32365,32235,17923,17818,-4127,736,-1739,-1945,1621,5438,60,602,-278,1,0,11,58,400,1,53298,1
2,34900,32220,32230,17924,17825,-4102,762,-1793,-529,1957,5827,53,585,-279,1,0,11,58,440,1,53298,1
2,33552,32166,32238,17925,17831,-4016,816,-1676,1101,2333,6262,26,580,-282,1,0,11,58,480,1,53298,1
2,32457,32077,32235,17926,17837,-4240,798,-1059,1256,1871,6146,23,571,-293,1,0,11,58,520,1,53298,1
2,31995,32038,32223,17927,17842,-4096,626,-1271,-1475,1971,5083,8,552,-284,1,0,11,58,560,1,53298,1
2,31774,31995,32222,17928,17847,-3895,575,-1480,-1770,1627,3849,18,552,-294,1,0,11,58,600,1,53298,1
2,31702,32061,32219,17929,17853,-3814,718,-1426,15,1162,3037,-7,545,-301,1,0,11,58,640,1,53298,1
2,31660,32105,32221,17930,17859,-3836,655,-1500,845,930,2165,-2,554,-308,1,0,11,58,680,1,53298,1
2,31649,32013,32215,17931,17866,-3987,620,-1359,756,562,891,-5,547,-305,1,0,11,58,720,1,53298,1
2,31657,32075,32218,17932,17872,-3889,798,-1293,5,124,-660,-6,540,-294,1,0,11,58,760,1,53298,1
2,31675,32112,32221,17933,17879,-3758,1265,-1291,681,-591,-1318,-1,543,-289,1,0,11,58,800,1,53298,1
2,31724,32096,32220,17934,17886,-3863,1069,-1464,358,-895,-1523,6,554,-302,1,0,11,58,840,1,53298,1
2,31804,32141,32233,17935,17891,-4055,769,-1470,-1129,-856,-2297,14,564,-296,1,0,11,58,880,1,53298,1
2,32058,32108,32233,17936,17898,-4131,420,-1502,-1945,-922,-3661,22,580,-292,1,0,11,58,920,1,53298,1
2,32638,32084,32235,17937,17904,-4047,540,-1454,-489,-1479,-4915,29,577,-295,1,0,11,58,960,1,53298,1
1,34069,32213,32220,17938,0,-3980,606,-1282,820,-1890,-5580,51,595,-287,1,0,11,59,0,0,53298,1
2,34508,32447,32223,17939,17261,-4119,1063,-796,1072,-2530,-5864,66,604,-288,1,0,11,59,40,0,53298,1
2,33325,34868,32284,17940,17268,-4279,399,-1474,-1111,-2723,-6117,83,611,-277,1,0,11,59,80,0,53298,1
2,32455,34955,32291,17941,17274,-4299,348,-1376,-1244,-2442,-6811,100,606,-274,1,0,11,59,120,0,53298,1
2,31873,34315,32265,17942,17282,-4368,381,-1251,-734,-2593,-7150,129,621,-255,1,0,11,59,160,0,53298,1
2,31728,34570,32291,17943,17289,-4327,561,-1288,925,-2985,-6805,146,618,-248,1,0,11,59,200,0,53298,1
2,31668,34400,32290,17944,17296,-4235,823,-1196,1937,-2968,-5946,157,629,-245,1,0,11,59,240,0,53298,1
2,31627,34235,32280,17945,17305,-4208,899,-1254,615,-2367,-4954,184,628,-248,1,0,11,59,280,0,53298,1
2,31631,34380,32280,17946,17312,-4136,932,-1383,-388,-1573,-3606,186,632,-230,1,0,11,59,320,0,53298,1
2,31644,34497,32285,17947,17319,-4100,931,-1349,-105,-958,-1759,183,623,-221,1,0,11,59,360,0,53298,1
2,31685,34587,32289,17948,17326,-4131,698,-1450,-543,-248,131,182,624,-234,1,0,11,59,400,0,53298,1
2,31756,34661,32304,17949,17333,-4253,197,-843,-42,200,1529,173,621,-235,1,0,11,59,440,0,53298,1
2,31916,34677,32293,17950,17340,-4236,541,-715,598,-192,2426,174,616,-232,1,0,11,59,480,0,53298,1
2,32280,34921,32280,17951,17347,-4178,321,-1381,-1739,255,2819,156,622,-230,1,0,11,59,520,0,53298,1
2,33307,34960,32257,17952,17353,-4252,454,-1109,-593,629,3500,144,620,-228,1,0,11,59,560,0,53298,1
2,34419,34583,32252,17953,17360,-4182,504,-1403,122,678,4380,125,611,-231,1,0,11,59,600,0,53298,1
2,34684,34355,32252,17954,17366,-4153,515,-1665,623,1133,5118,119,607,-235,1,0,11,59,640,0,53298,1
2,33335,34183,32257,17955,17373,-4217,587,-1536,984,2263,5425,92,612,-246,1,0,11,59,680,0,53298,1
2,32324,34127,32255,17956,17380,-4466,540,-906,368,2622,5379,87,595,-255,1,0,11,59,720,0,53298,1
2,31911,34035,32249,17957,17387,-4378,439,-1093,-685,2478,5032,73,603,-259,1,0,11,59,760,0,53298,1
2,31731,34020,32246,17958,17394,-4180,391,-1342,171,1911,4545,54,604,-264,1,0,11,59,800,0,53298,1
2,31675,33926,32243,17959,17401,-4101,519,-1335,1344,1787,4065,56,588,-266,1,0,11,59,840,0,53298,1
2,31640,33983,32247,17960,17408,-4110,463,-1293,1126,1989,3289,45,587,-275,1,0,11,59,880,0,53298,1
2,31631,33979,32246,17961,17415,-4249,392,-1027,288,1996,2216,37,587,-289,1,0,11,59,920,0,53298,1
2,31635,33893,32242,17962,17422,-4270,413,-854,-879,1459,809,30,578,-288,1,0,11,59,960,0,53298,1
1,31666,33852,32242,17963,0,-4196,481,-856,-780,118,-216,39,585,-289,1,0,12,0,0,1,53298,1
2,31711,33759,32239,17964,16759,-4100,470,-1117,-487,-917,-1132,42,588,-278,1,0,12,0,40,1,53298,1
2,31813,33467,32237,17965,16765,-4098,412,-1191,-34,-1371,-2083,43,593,-285,1,0,12,0,80,1,53298,1
2,32220,33174,32186,17966,16771,-4199,229,-1290,-728,-1385,-3291,63,599,-273,1,0,12,0,120,1,53298,1
2,33612,33328,32173,17967,16776,-4291,295,-1145,-715,-1634,-4516,78,600,-268,1,0,12,0,160,1,53298,1
2,36018,34340,32214,17968,16783,-4365,928,-550,82,-2476,-5226,86,612,-246,1,0,12,0,200,1,53298,1
2,34575,35033,32272,17969,16788,-4375,60,-1293,-977,-2961,-5536,109,607,-247,1,0,12,0,240,1,53298,1
2,33347,35465,32311,17970,16795,-4444,-346,-1453,-2416,-2524,-7007,135,617,-241,1,0,12,0,280,1,53298,1
2,32240,35483,32308,17971,16802,-4485,-237,-1425,-2010,-2131,-8411,155,623,-235,1,0,12,0,320,1,53298,1
2,31906,35255,32353,17972,16809,-4400,229,-1208,1578,-2502,-8295,172,618,-226,1,0,12,0,360,1,53298,1
2,31819,35209,32395,17973,16817,-4318,1149,-800,5583,-3449,-6531,197,623,-217,1,0,12,0,400,1,53298,1
2,31735,35129,32354,17974,16824,-4163,1165,-1233,2284,-2754,-4936,214,624,-214,1,0,12,0,440,1,53298,1
2,31752,35185,32391,17975,16832,-4062,913,-1509,-773,-1351,-3098,218,622,-230,1,0,12,0,480,1,53298,1
2,31790,34986,32375,17976,16841,-3994,904,-1494,216,-446,-465,215,615,-225,1,0,12,0,520,1,53298,1
2,31894,35129,32407,17977,16849,-4014,717,-1343,3021,-8,2480,203,627,-225,1,0,12,0,560,1,53298,1
2,32181,32818,32407,17978,16857,-4175,690,-1151,3839,999,4617,188,620,-228,1,0,12,0,600,1,53298,1
2,34735,33778,32396,17979,16865,-4344,382,-1144,624,2542,5510,159,619,-235,1,0,12,0,640,1,53298,1
2,35146,32167,32427,17980,16873,-6590,979,1028,-583,1651,5441,156,626,-224,1,0,12,0,680,1,53298,1
2,34620,32205,32457,17981,16882,-5592,599,-1525,-1722,198,5605,136,624,-230,1,0,12,0,720,1,53298,1
2,33958,32112,32511,17982,16890,-4202,129,-1805,1829,911,5545,116,618,-232,1,0,12,0,760,1,53298,1
2,33312,32286,32674,17983,16899,-4229,384,-1601,2866,2197,5717,108,614,-244,1,0,12,0,800,1,53298,1
2,32935,32280,33042,17984,16907,-4378,319,-1484,440,3571,5178,76,610,-254,1,0,12,0,840,1,53298,1
2,32442,32298,32997,17985,16915,-4677,343,-406,-1208,3639,4335,76,608,-250,1,0,12,0,880,1,53298,1
2,32288,32185,32928,17986,16924,-4380,239,-826,-1141,2775,3606,65,607,-271,1,0,12,0,920,1,53298,1
2,32182,32155,32893,17987,16933,-4104,134,-1325,848,1484,3020,57,593,-265,1,0,12,0,960,1,53298,1
1,32157,32160,32889,17988,0,-4135,316,-1157,2104,1005,2272,57,599,-273,1,0,12,1,0,1,53298,1
2,32115,32150,32858,17989,16259,-4211,243,-1175,533,938,1083,52,596,-280,1,0,12,1,40,1,53298,1
2,32162,34670,32896,17990,16266,-4142,487,-1061,-315,646,-154,60,598,-282,1,0,12,1,80,1,53298,1
2,32161,32833,32856,17991,16275,-4159,627,-1053,244,-85,-525,49,597,-279,1,0,12,1,120,1,53298,1
2,32147,34167,32781,17992,16284,-4193,574,-1131,615,-676,-703,65,607,-285,1,0,12,1,160,1,53298,1
2,32148,33103,32786,17993,16293,-4175,544,-1208,57,-919,-1191,62,614,-278,1,0,12,1,200,1,53298,1
2,32169,34128,32702,17994,16302,-4187,434,-1366,-537,-1080,-1763,65,613,-281,1,0,12,1,240,1,53298,1
2,32350,33595,32690,17995,16311,-4186,587,-1239,-237,-1101,-2216,80,612,-270,1,0,12,1,280,1,53298,1
2,32729,33657,32790,17996,16319,-4198,545,-1181,-632,-1117,-2504,82,612,-266,1,0,12,1,320,1,53298,1
2,33327,34970,32812,17997,16328,-4251,436,-1076,-432,-1432,-2686,93,623,-261,1,0,12,1,360,1,53298,1
2,34440,34999,32827,17998,16337,-4274,299,-1059,-369,-1736,-2950,91,619,-243,1,0,12,1,400,1,53298,1
2,35982,35099,32857,17999,16345,-4332,209,-984,-477,-2054,-3336,108,618,-242,1,0,12,1,440,1,53298,1
2,37118,33413,32830,18000,16354,-4464,-8,-1002,-1038,-2269,-3983,123,625,-237,1,0,12,1,480,1,53298,1
2,35750,32925,32860,18001,16363,-4450,-208,-1062,-900,-2513,-4672,134,616,-222,1,0,12,1,520,1,53298,1
2,34423,34357,32871,18002,16372,-4478,-223,-1048,-832,-2564,-5469,168,620,-224,1,0,12,1,560,1,53298,1
2,33394,35620,32934,18003,16380,-4479,-161,-1046,-365,-2639,-6125,176,620,-218,1,0,12,1,600,1,53298,1
2,32571,34659,32887,18004,16388,-4457,47,-1057,631,-2704,-6189,206,622,-220,1,0,12,1,640,1,53298,1
2,32358,34529,32925,18005,16396,-4391,311,-1042,1364,-2519,-5702,225,615,-209,1,0,12,1,680,1,53298,1
2,32268,34382,32936,18006,16404,-4289,474,-1196,809,-1929,-4731,232,608,-214,1,0,12,1,720,1,53298,1
2,32277,34239,32963,18007,16412,-4175,645,-1244,604,-1047,-3123,239,605,-211,1,0,12,1,760,1,53298,1
2,32354,34078,33029,18008,16420,-4082,759,-1215,340,52,-920,242,622,-208,1,0,12,1,800,1,53298,1
2,32478,34151,33083,18009,16429,-4147,699,-1183,-487,1248,1400,223,611,-209,1,0,12,1,840,1,53298,1
2,32613,34242,33051,18010,16437,-4200,500,-1305,-2055,2391,3282,225,627,-213,1,0,12,1,880,1,53298,1
2,33119,34644,33100,18011,16445,-4280,265,-1273,-2165,3176,4893,197,619,-217,1,0,12,1,920,1,53298,1
2,34683,34865,33082,18012,16453,-4588,67,-212,75,2861,6249,164,626,-226,1,0,12,1,960,1,53298,1
1,35397,34389,33057,18013,0,-4485,88,-937,16,1911,6838,151,631,-233,1,0,12,2,0,1,53298,1
2,35232,34200,33057,18014,15757,-4331,-100,-1718,-1132,2272,6466,129,623,-233,1,0,12,2,40,1,53298,1
2,34135,34090,33035,18015,15765,-4289,116,-1704,1212,2876,6515,104,624,-248,1,0,12,2,80,1,53298,1
2,33042,34087,33051,18016,15772,-4635,459,-286,1859,3277,6279,92,622,-260,1,0,12,2,120,1,53298,1
2,32548,34039,33034,18017,15778,-4561,-153,-1143,-1286,3016,5229,85,613,-257,1,0,12,2,160,1,53298,1
2,32470,34072,33058,18018,15785,-4450,-4,-897,-1342,2519,3653,69,613,-265,1,0,12,2,200,1,53298,1
2,32434,34055,33060,18019,15792,-4226,-30,-1158,-283,1750,2490,64,604,-272,1,0,12,2,240,1,53298,1
2,32440,34005,33074,18020,15799,-4178,277,-1179,1097,826,1590,64,604,-278,1,0,12,2,280,1,53298,1
2,32479,34021,33094,18021,15805,-3952,596,-1326,729,658,651,63,607,-283,1,0,12,2,320,1,53298,1
2,32460,33954,33081,18022,15810,-3928,1024,-1420,407,709,559,66,608,-282,1,0,12,2,360,1,53298,1
2,32487,33855,33100,18023,15814,-4041,869,-1535,597,571,1244,56,602,-288,1,0,12,2,400,1,53298,1
2,32509,33965,33105,18024,15820,-4140,890,-1269,1832,376,1757,57,601,-297,1,0,12,2,440,1,53298,1
2,32561,33557,33097,18025,15826,-4165,784,-1082,737,276,1548,51,601,-287,1,0,12,2,480,1,53298,1
2,32638,33487,33053,18026,15831,-4191,485,-1120,-1130,-43,947,42,596,-278,1,0,12,2,520,1,53298,1
2,32946,33540,33085,18027,15836,-4143,252,-1192,-1357,-587,197,48,602,-274,1,0,12,2,560,1,53298,1
2,33954,33534,33067,18028,15842,-4111,312,-1135,-460,-1070,-664,46,606,-272,1,0,12,2,600,1,53298,1
2,35399,33528,33092,18029,15848,-4122,372,-1159,315,-1499,-1506,53,603,-267,1,0,12,2,640,1,53298,1
2,36708,34434,33106,18030,15855,-4187,247,-1394,377,-1727,-2325,68,606,-272,1,0,12,2,680,1,53298,1
2,36503,34923,33158,18031,15861,-4072,526,-1560,483,-1687,-3023,84,608,-252,1,0,12,2,720,1,53298,1
2,36244,34895,33107,18032,15867,-3952,818,-1681,812,-1328,-3093,80,618,-260,1,0,12,2,760,1,53298,1
2,36564,35667,33134,18033,15875,-3917,1444,-1729,1118,-889,-2224,86,616,-254,1,0,12,2,800,1,53298,1
2,37260,36219,33251,18034,15881,-3880,1987,-1439,1294,-311,-225,75,619,-267,1,0,12,2,840,1,53298,1
2,37461,36059,33253,18035,15888,-4017,1606,-1440,-1240,740,1715,83,613,-265,1,0,12,2,880,1,53298,1
2,36956,35938,33245,18036,15894,-3917,1063,-1982,-3155,1942,3220,72,596,-266,1,0,12,2,920,1,53298,1
2,34949,35884,33279,18037,15900,-4050,938,-1590,-1342,2752,4641,47,599,-275,1,0,12,2,960,1,53298,1
1,33597,35819,33235,18038,0,-4744,357,-557,-1357,2873,4796,38,592,-274,1,0,12,3,0,1,53298,1
2,33648,35796,33246,18039,15256,-5044,-899,-484,-3779,1994,2474,38,586,-276,1,0,12,3,40,1,53298,1
2,34641,35771,33160,18040,15263,-4277,-304,-442,-1672,-931,-735,41,579,-275,1,0,12,3,80,1,53298,1
2,37387,35588,32796,18041,15270,-3983,-121,-935,157,-3132,-2706,52,590,-262,1,0,12,3,120,1,53298,1
2,37319,33478,32986,18042,15276,-3865,825,-1785,2518,-3638,-4006,68,604,-248,1,0,12,3,160,1,53298,1
2,36500,32941,33034,18043,15283,-3680,1206,-2029,2374,-2062,-4481,76,596,-248,1,0,12,3,200,1,53298,1
2,36601,35822,33057,18044,15290,-3727,2182,-2084,2209,-660,-3169,76,612,-256,1,0,12,3,240,1,53298,1
2,37519,36065,33075,18045,15297,-3783,2888,-1357,4423,-254,628,61,613,-253,1,0,12,3,280,1,53298,1
2,38077,35815,33065,18046,15304,-4277,1610,-1192,-2159,849,3041,60,608,-250,1,0,12,3,320,1,53298,1
2,38242,35735,33251,18047,15311,-3783,446,-1575,-6311,1708,3416,50,594,-260,1,0,12,3,360,1,53298,1
2,38584,36491,33763,18048,15318,-4771,-668,-762,-3569,1370,3403,45,585,-255,1,0,12,3,400,1,53298,1
2,39082,36772,33833,18049,15325,-4963,-2310,-314,-1467,-651,487,57,583,-251,1,0,12,3,440,1,53298,1
2,37330,34463,33427,18050,15331,-4221,-55,-358,4686,-3109,-3112,66,596,-234,1,0,12,3,480,1,53298,1
2,35540,34909,33662,18051,15338,-4155,-281,-2008,-730,-2708,-6998,81,605,-231,1,0,12,3,520,1,53298,1
2,34876,34790,33722,18052,15345,-3356,3316,-1846,3645,-1607,-6796,107,617,-237,1,0,12,3,560,1,53298,1
2,35858,34243,33763,18053,15352,-3630,3900,-1713,3598,-318,-2481,107,617,-241,1,0,12,3,600,1,53298,1
2,38609,35950,34248,18054,15359,-3279,2241,-1621,-417,606,1923,86,610,-244,1,0,12,3,640,1,53298,1
2,38674,35528,34245,18055,15366,-4706,693,-1212,-5536,2548,4914,75,603,-247,1,0,12,3,680,1,53298,1
2,38846,35618,34178,18056,15373,-5158,-1383,-485,-1410,1743,4838,76,596,-246,1,0,12,3,720,1,53298,1
2,40044,36587,34040,18057,15381,-5066,-2660,-169,-150,-1312,487,71,597,-249,1,0,12,3,760,1,53298,1
2,37146,34625,33417,18058,15389,-4441,-61,-1159,3791,-3201,-3362,91,607,-235,1,0,12,3,800,1,53298,1
2,36559,37666,34021,18059,15396,-4369,1413,-2516,-677,-1561,-6140,107,611,-243,1,0,12,3,840,1,53298,1
2,38531,37735,34464,18060,15404,-3710,4087,-1635,2532,445,-2736,101,617,-251,1,0,12,3,880,1,53298,1
2,37386,37508,34799,18061,15412,-3877,2380,-2020,-4240,2611,2586,89,613,-255,1,0,12,3,920,1,53298,1
2,35370,37360,34750,18062,15420,-4713,8,-1347,-602,3890,6678,78,596,-264,1,0,12,3,960,1,53298,1
1,34783,36997,34658,18063,0,-5056,-2014,229,-472,3193,4966,66,606,-276,1,0,12,4,0,0,53298,1
2,35992,36971,34637,18064,14755,-4807,-2486,380,-2184,-353,-663,80,598,-266,1,0,12,4,40,0,53298,1
2,37469,37064,34614,18065,14763,-4361,-508,-248,-775,-4310,-5315,99,613,-247,1,0,12,4,80,0,53298,1
2,36457,37651,34660,18066,14771,-3865,473,-2414,-662,-4341,-7823,119,609,-235,1,0,12,4,120,0,53298,1
2,36005,38282,34635,18067,14778,-3722,2718,-2764,997,-1871,-7126,132,622,-228,1,0,12,4,160,0,53298,1
2,37535,38192,34738,18068,14785,-3890,4319,-1495,4449,-66,-1593,135,633,-235,1,0,12,4,200,0,53298,1
2,38316,37481,34707,18069,14793,-4381,1896,-2051,-2098,1501,4091,104,614,-232,1,0,12,4,240,0,53298,1
2,36754,37189,34617,18070,14800,-4344,-115,-1355,-2897,3071,6441,85,609,-259,1,0,12,4,280,0,53298,1
2,36524,37056,34590,18071,14807,-4945,-1932,121,-1818,2795,4772,83,599,-259,1,0,12,4,320,0,53298,1
2,37915,37119,34600,18072,14813,-4820,-2213,199,-1362,-705,98,100,614,-256,1,0,12,4,360,0,53298,1
2,37335,37310,34618,18073,14821,-4208,-528,-679,1611,-3642,-3913,119,615,-243,1,0,12,4,400,0,53298,1
2,36162,37788,34701,18074,14827,-3864,602,-2170,534,-2759,-6369,124,624,-234,1,0,12,4,440,0,53298,1
2,36055,38175,34721,18075,14835,-3797,2441,-2016,2425,-1230,-5105,137,633,-243,1,0,12,4,480,0,53298,1
2,37549,37968,34772,18076,14843,-4138,3062,-1101,2745,122,-694,134,632,-240,1,0,12,4,520,0,53298,1
2,38500,37434,34739,18077,14851,-4299,1509,-1743,-1086,1175,3450,119,627,-243,1,0,12,4,560,0,53298,1
2,37550,37250,34694,18078,14860,-4034,277,-1109,-2844,2226,5239,99,613,-245,1,0,12,4,600,0,53298,1
2,37496,36971,34669,18079,14867,-4620,-1207,-305,-2903,1785,4820,98,612,-250,1,0,12,4,640,0,53298,1
2,38714,37024,34665,18080,14875,-4687,-1539,-296,-2140,-258,1717,90,610,-246,1,0,12,4,680,0,53298,1
2,37854,37233,34664,18081,14883,-4217,-388,-634,413,-1959,-1744,100,622,-232,1,0,12,4,720,0,53298,1
2,36152,37576,34671,18082,14890,-4106,247,-1905,-974,-1445,-4242,109,621,-223,1,0,12,4,760,0,53298,1
2,36009,37920,34645,18083,14898,-3924,2208,-1883,2571,-422,-3587,114,634,-236,1,0,12,4,800,0,53298,1
2,37399,37650,34655,18084,14907,-4030,2448,-1081,2871,565,108,108,624,-240,1,0,12,4,840,0,53298,1
2,38048,37116,34586,18085,14915,-3812,1613,-1620,-234,1496,3517,90,626,-250,1,0,12,4,880,0,53298,1
2,36200,36997,34564,18086,14922,-4342,550,-1107,-2263,2595,5368,76,622,-262,1,0,12,4,920,0,53298,1
2,35184,36829,34564,18087,14930,-4835,-825,-732,-1892,2829,4972,67,615,-265,1,0,12,4,960,0,53298,1
1,35639,36806,34542,18088,0,-5144,-2052,-74,-675,856,1594,80,612,-258,1,0,12,5,0,1,53298,1
2,36935,36817,34488,18089,14254,-4492,-427,-10,1196,-1844,-2956,89,619,-261,1,0,12,5,40,1,53298,1
2,36473,36907,34439,18090,14261,-4208,-240,-1010,677,-3320,-5667,100,618,-234,1,0,12,5,80,1,53298,1
2,35269,37067,34339,18091,14268,-4189,370,-1585,806,-2984,-6968,128,622,-226,1,0,12,5,120,1,53298,1
2,34844,37137,34313,18092,14276,-3953,1631,-2132,1484,-1928,-6414,146,634,-230,1,0,12,5,160,1,53298,1
2,35344,37335,34342,18093,14284,-3673,2948,-1817,3431,-575,-2911,155,633,-243,1,0,12,5,200,1,53298,1
2,36060,37095,34307,18094,14293,-3946,2376,-738,3134,125,2165,135,635,-239,1,0,12,5,240,1,53298,1
2,36502,36761,34309,18095,14301,-3996,991,-1716,-2851,2029,5273,110,636,-250,1,0,12,5,280,1,53298,1
2,36223,36630,34330,18096,14309,-4410,266,-1427,-1433,3160,6550,88,622,-268,1,0,12,5,320,1,53298,1
2,36155,36494,34319,18097,14317,-5109,-1238,-381,464,2744,5642,87,623,-261,1,0,12,5,360,1,53298,1
2,36963,36450,34309,18098,14326,-4906,-1285,-80,1058,478,2042,91,625,-263,1,0,12,5,400,1,53298,1
2,36604,36591,34329,18099,14335,-4377,-547,-264,182,-1547,-1834,99,617,-255,1,0,12,5,440,1,53298,1
2,35782,36835,34312,18100,14343,-3975,264,-1516,-1013,-2133,-4091,112,632,-252,1,0,12,5,480,1,53298,1
2,35753,36987,34359,18101,14351,-3638,1837,-2012,757,-1301,-3649,119,627,-253,1,0,12,5,520,1,53298,1
2,37060,36930,34372,18102,14359,-4034,2548,-1359,1420,83,-365,105,631,-249,1,0,12,5,560,1,53298,1
2,37522,36722,34347,18103,14366,-4209,1384,-1523,31,580,3215,94,620,-256,1,0,12,5,600,1,53298,1
2,36723,36498,34328,18104,14374,-4488,-25,-1273,-1786,1881,4227,79,619,-265,1,0,12,5,640,1,53298,1
2,36521,36538,34308,18105,14382,-4666,-1260,-430,-583,1527,2740,89,619,-265,1,0,12,5,680,1,53298,1
2,37285,36575,34290,18106,14390,-4497,-1285,-503,1016,-651,-411,83,615,-255,1,0,12,5,720,1,53298,1
2,36669,36762,34318,18107,14397,-4351,-321,-825,1454,-2162,-3668,102,630,-258,1,0,12,5,760,1,53298,1
2,35699,36978,34310,18108,14405,-4175,815,-1712,527,-1816,-5542,122,634,-250,1,0,12,5,800,1,53298,1
2,35730,37198,34371,18109,14413,-3919,2233,-1945,1778,-849,-4236,128,638,-256,1,0,12,5,840,1,53298,1
2,36647,37045,34368,18110,14421,-3958,2714,-1023,1895,85,-250,119,627,-249,1,0,12,5,880,1,53298,1
2,37329,36764,34361,18111,14429,-3909,1557,-1736,-310,1097,3884,102,624,-252,1,0,12,5,920,1,53298,1
2,36486,36541,34319,18112,14436,-4275,175,-1257,-1305,2577,5793,88,626,-264,1,0,12,5,960,1,53298,1
1,36303,36491,34325,18113,0,-4907,-1554,-503,-1032,2368,4706,77,615,-267,1,0,12,6,0,1,53298,1
2,37538,36465,34278,18114,13754,-4776,-1620,-158,381,-112,772,89,617,-267,1,0,12,6,40,1,53298,1
2,37087,36650,34302,18115,13761,-4281,-419,-777,1573,-2373,-3048,100,622,-250,1,0,12,6,80,1,53298,1
2,36257,36927,34301,18116,13768,-3800,994,-1851,797,-2104,-5058,121,621,-245,1,0,12,6,120,1,53298,1
2,36501,37099,34317,18117,13775,-3689,2465,-2004,1094,-500,-3601,123,631,-251,1,0,12,6,160,1,53298,1
2,37586,36770,34317,18118,13783,-4131,2395,-1201,529,774,644,109,623,-259,1,0,12,6,200,1,53298,1
2,37069,36550,34306,18119,13791,-4189,1260,-1568,-1024,1649,4181,95,625,-255,1,0,12,6,240,1,53298,1
2,35792,36349,34273,18120,13799,-4463,-73,-1124,-1131,2459,5285,78,614,-274,1,0,12,6,280,1,53298,1
2,35569,36202,34253,18121,13808,-4988,-1561,-97,-1786,1802,3328,78,606,-258,1,0,12,6,320,1,53298,1
2,36865,36225,34273,18122,13816,-4657,-1643,-274,-1947,-510,-1051,96,614,-268,1,0,12,6,360,1,53298,1
2,36570,36364,34251,18123,13824,-4358,-579,-678,-440,-2729,-4960,109,627,-247,1,0,12,6,400,1,53298,1
2,35457,36586,34272,18124,13832,-4052,582,-1918,-1860,-2254,-7375,132,634,-242,1,0,12,6,440,1,53298,1
2,35155,36781,34332,18125,13839,-3966,2064,-2142,-656,-700,-6504,146,636,-250,1,0,12,6,480,1,53298,1
2,34628,36129,33053,18126,13847,-3936,2774,-1228,1135,363,-2324,137,637,-245,1,0,12,6,520,1,53298,1
2,35505,35784,33025,18127,13855,-4058,1636,-1566,170,668,2451,127,629,-259,1,0,12,6,560,1,53298,1
2,35226,35537,33013,18128,13863,-4329,122,-1071,-919,1612,4744,114,616,-256,1,0,12,6,600,1,53298,1
2,34957,35469,33025,18129,13871,-4801,-1249,-472,-1917,2065,4083,109,615,-267,1,0,12,6,640,1,53298,1
2,35550,35480,33009,18130,13880,-4773,-1760,-337,-1669,341,714,96,628,-252,1,0,12,6,680,1,53298,1
2,35194,35610,33006,18131,13888,-4451,-690,-330,1266,-2145,-2570,116,624,-250,1,0,12,6,720,1,53298,1
2,34353,35816,32984,18132,13895,-4172,-25,-1655,48,-2448,-5093,141,633,-233,1,0,12,6,760,1,53298,1
2,33943,35916,32990,18133,13904,-3954,1677,-2008,1066,-1158,-5171,148,638,-246,1,0,12,6,800,1,53298,1
2,34387,35972,32990,18134,13911,-3874,2876,-1516,2656,75,-1619,150,642,-236,1,0,12,6,840,1,53298,1
2,35259,35717,32971,18135,13919,-4123,1718,-1336,-111,973,2779,134,630,-250,1,0,12,6,880,1,53298,1
2,35534,35467,32968,18136,13926,-4240,503,-1518,-2415,2102,5509,109,625,-259,1,0,12,6,920,1,53298,1
2,34891,35290,32952,18137,13934,-4584,-646,-848,-1145,2385,5867,99,619,-267,1,0,12,6,960,1,53298,1
1,35315,35333,32957,18138,0,-4974,-1686,-157,-728,1351,3459,100,620,-272,1,0,12,7,0,0,53298,1
2,35825,35372,32940,18139,13253,-4463,-838,-456,-15,-698,-527,109,621,-263,1,0,12,7,40,0,53298,1
2,35304,35471,32938,18140,13261,-4233,-216,-1167,530,-1957,-3526,113,627,-239,1,0,12,7,80,0,53298,1
2,34599,35661,32943,18141,13269,-3959,1044,-1826,716,-1481,-4683,130,632,-246,1,0,12,7,120,0,53298,1
2,34826,35771,32948,18142,13277,-3838,2430,-1801,2007,-467,-2704,130,638,-258,1,0,12,7,160,0,53298,1
2,35607,35542,32944,18143,13285,-3989,2419,-1112,1184,534,1361,117,629,-255,1,0,12,7,200,0,53298,1
2,35736,35348,32940,18144,13293,-4054,1325,-1804,-2359,1807,4753,101,623,-267,1,0,12,7,240,0,53298,1
2,34436,35234,32941,18145,13300,-4376,204,-1288,-1625,2769,6389,80,620,-262,1,0,12,7,280,0,53298,1
2,33664,35103,32936,18146,13306,-4873,-948,-543,-622,2521,5598,72,616,-270,1,0,12,7,320,0,53298,1
2,34116,35099,32932,18147,13313,-4943,-1717,-181,-815,875,1953,73,617,-267,1,0,12,7,360,0,53298,1
2,35264,35159,32924,18148,13321,-4346,-459,-378,508,-1205,-2035,86,616,-266,1,0,12,7,400,0,53298,1
2,35692,35246,32924,18149,13327,-4162,-12,-1147,1166,-2307,-4382,110,630,-254,1,0,12,7,440,0,53298,1
2,35152,35442,32915,18150,13334,-4047,1032,-1658,1618,-2251,-5178,113,627,-251,1,0,12,7,480,0,53298,1
2,35265,35567,32924,18151,13341,-3884,2114,-1815,1685,-1551,-3766,116,636,-240,1,0,12,7,520,0,53298,1
2,36287,35425,32911,18152,13348,-4113,2253,-1205,679,-656,-488,115,631,-253,1,0,12,7,560,0,53298,1
2,36294,35228,32907,18153,13355,-4139,1125,-1491,-3226,218,2089,90,618,-246,1,0,12,7,600,0,53298,1
2,34910,35092,32920,18154,13363,-4381,231,-949,-4056,863,3218,86,618,-246,1,0,12,7,640,0,53298,1
2,33773,34924,32921,18155,13369,-4694,-780,-741,-3550,720,2594,90,624,-242,1,0,12,7,680,0,53298,1
2,33857,34941,32914,18156,13377,-4669,-1432,-428,-1975,-554,91,101,613,-243,1,0,12,7,720,0,53298,1
2,35078,34979,32906,18157,13384,-4239,-655,-898,-54,-2034,-2958,117,617,-231,1,0,12,7,760,0,53298,1
2,36397,35111,32911,18158,13392,-4220,-10,-960,2484,-2743,-4611,127,621,-229,1,0,12,7,800,0,53298,1
2,35698,35229,32913,18159,13399,-4135,791,-1518,2401,-2214,-5383,140,634,-218,1,0,12,7,840,0,53298,1
2,34858,35488,32931,18160,13407,-4045,2239,-1827,2698,-1320,-4095,142,630,-214,1,0,12,7,880,0,53298,1
2,35151,35478,32926,18161,13414,-3975,2349,-1628,1544,41,-484,142,636,-218,1,0,12,7,920,0,53298,1
2,36083,35396,32930,18162,13421,-3978,1456,-1248,712,1184,3224,130,630,-226,1,0,12,7,960,0,53298,1
1,36590,35223,32929,18163,0,-3898,1103,-1496,-737,2225,5655,101,625,-239,1,0,12,8,0,0,53298,1
2,34988,35138,32941,18164,12754,-3950,812,-1578,189,3488,7577,68,616,-256,1,0,12,8,40,0,53298,1
2,33289,35028,32929,18165,12761,-4646,315,-939,1328,4377,8443,58,616,-272,1,0,12,8,80,0,53298,1
2,32807,34994,32931,18166,12769,-5031,-392,-611,-55,4137,6935,51,607,-273,1,0,12,8,120,0,53298,1
2,32745,35059,32919,18167,12775,-4982,-849,-342,-1275,2435,3623,34,602,-278,1,0,12,8,160,0,53298,1
2,33119,34949,32881,18168,12783,-4428,-783,-687,-1837,538,-333,43,595,-283,1,0,12,8,200,0,53298,1
2,34257,34926,32871,18169,12789,-4241,-310,-634,1120,-1468,-2783,54,622,-266,1,0,12,8,240,0,53298,1
2,36968,34945,32835,18170,12796,-4321,76,-732,1226,-2502,-4819,68,622,-264,1,0,12,8,280,0,53298,1
2,34853,35182,32864,18171,12802,-4113,861,-844,1258,-3412,-6037,88,628,-244,1,0,12,8,320,0,53298,1
2,33510,35237,32892,18172,12808,-4116,954,-1879,-1180,-3161,-6959,128,632,-250,1,0,12,8,360,0,53298,1
2,32870,35391,32913,18173,12815,-4113,2266,-2346,-760,-1968,-5859,129,637,-241,1,0,12,8,400,0,53298,1
2,32747,35419,32904,18174,12822,-3636,1919,-1674,1445,-454,-2439,126,642,-254,1,0,12,8,440,0,53298,1
2,32863,35475,32900,18175,12829,-3874,1449,-1337,2860,276,1405,121,641,-241,1,0,12,8,480,0,53298,1
2,33391,35593,32885,18176,12836,-4090,922,-1225,1107,1316,3363,99,639,-263,1,0,12,8,520,0,53298,1
2,34023,35513,32749,18177,12843,-4141,797,-1076,-1122,2154,4223,85,627,-257,1,0,12,8,560,0,53298,1
2,35317,35345,32824,18178,12850,-4044,720,-1406,-879,2377,5232,64,622,-276,1,0,12,8,600,0,53298,1
2,37003,35155,32890,18179,12858,-4090,711,-1506,658,2413,6099,52,610,-278,1,0,12,8,640,0,53298,1
2,35453,35066,32897,18180,12865,-3856,555,-1584,313,2782,6113,39,605,-277,1,0,12,8,680,0,53298,1
2,33314,34993,32894,18181,12872,-4332,523,-964,8,3066,5562,19,593,-295,1,0,12,8,720,0,53298,1
2,32662,34941,32895,18182,12879,-4442,107,-972,-1115,2555,4046,16,602,-306,1,0,12,8,760,0,53298,1
2,32453,34921,32862,18183,12886,-4574,-167,-589,-1036,1254,1835,29,587,-297,1,0,12,8,800,0,53298,1
2,32475,34958,32861,18184,12893,-4646,-568,-588,-2079,-134,-1053,24,590,-292,1,0,12,8,840,0,53298,1
2,32628,34935,32865,18185,12899,-4356,-233,-888,-2679,-1382,-4406,47,597,-291,1,0,12,8,880,0,53298,1
2,32926,34931,32862,18186,12906,-4393,-36,-783,-397,-3167,-6253,61,607,-267,1,0,12,8,920,0,53298,1
2,33701,34942,32857,18187,12912,-4473,-225,-1187,-852,-3713,-8180,84,620,-244,1,0,12,8,960,0,53298,1
1,34327,34857,32730,18188,0,-4434,258,-1426,907,-4128,-9408,121,635,-249,1,0,12,9,0,1,53298,1
2,34152,34930,32788,18189,12254,-4209,1199,-1357,3822,-4623,-9213,151,641,-235,1,0,12,9,40,1,53298,1
2,33896,35058,32785,18190,12260,-3998,2157,-1961,3785,-4269,-7186,161,641,-221,1,0,12,9,80,1,53298,1
2,34009,35048,32763,18191,12267,-3669,2329,-2156,1636,-2072,-3863,159,635,-217,1,0,12,9,120,1,53298,1
2,34376,35105,32814,18192,12273,-3866,1337,-1427,1460,110,406,163,647,-231,1,0,12,9,160,1,53298,1
2,34793,35036,32846,18193,12281,-4132,347,-1311,1064,1281,3106,143,639,-235,1,0,12,9,200,1,53298,1
2,35202,34880,32791,18194,12288,-4193,510,-1016,1918,1735,4207,128,646,-236,1,0,12,9,240,1,53298,1
2,35553,34754,32755,18195,12296,-4537,162,-989,585,2039,4320,114,646,-242,1,0,12,9,280,1,53298,1
2,36296,35734,33091,18196,12303,-4508,-79,-1122,-222,2204,3402,114,642,-258,1,0,12,9,320,1,53298,1
2,36954,35543,33036,18197,12309,-4522,-359,-365,2817,1289,2703,104,638,-256,1,0,12,9,360,1,53298,1
2,36771,34347,32900,18198,12316,-5112,-896,-449,331,638,1560,100,638,-262,1,0,12,9,400,1,53298,1
2,36484,34409,33103,18199,12323,-5119,-1077,-871,-457,-458,-1191,111,633,-255,1,0,12,9,440,1,53298,1
2,35672,34827,33404,18200,12329,-4538,-656,-766,1981,-2095,-4103,131,635,-243,1,0,12,9,480,1,53298,1
2,35201,36035,33579,18201,12336,-4107,-207,-1343,972,-2583,-5886,152,636,-246,1,0,12,9,520,1,53298,1
2,34725,36133,33545,18202,12343,-3797,808,-1369,1925,-2211,-5914,165,627,-253,1,0,12,9,560,1,53298,1
2,34635,36293,33532,18203,12350,-3740,1483,-1702,2059,-1351,-3915,184,642,-246,1,0,12,9,600,1,53298,1
2,34869,36566,33575,18204,12357,-3753,2109,-1628,1781,-255,-303,184,638,-250,1,0,12,9,640,1,53298,1
2,35160,36609,33594,18205,12364,-3976,1490,-1444,-803,1159,3228,148,644,-254,1,0,12,9,680,1,53298,1
2,35972,36496,33562,18206,12372,-3966,1091,-1670,-3186,2482,5648,128,640,-252,1,0,12,9,720,1,53298,1
2,36925,36321,33573,18207,12379,-4268,645,-1755,-2461,3287,7485,103,631,-267,1,0,12,9,760,1,53298,1
2,36912,36216,33569,18208,12387,-4502,257,-1440,-880,3765,8407,75,633,-269,1,0,12,9,800,1,53298,1
2,36023,36029,33496,18209,12394,-4975,-323,-772,-313,3513,7714,62,610,-286,1,0,12,9,840,1,53298,1
2,35724,35779,33428,18210,12401,-5286,-1223,-439,-3935,2837,4346,54,608,-284,1,0,12,9,880,1,53298,1
2,36197,35525,33388,18211,12408,-5015,-1461,-316,-4640,642,-76,58,604,-280,1,0,12,9,920,1,53298,1
2,36381,35414,33362,18212,12416,-4613,-978,-572,-1060,-1808,-3439,69,615,-269,1,0,12,9,960,1,53298,1
1,36193,35521,33357,18213,0,-4312,-685,-815,2003,-3516,-5854,90,622,-248,1,0,12,10,0,1,53298,1
2,35194,35548,33341,18214,11754,-4336,-127,-936,1866,-4009,-7982,136,638,-256,1,0,12,10,40,1,53298,1
2,34499,35673,33343,18215,11760,-4328,930,-1709,2009,-3592,-8621,153,645,-233,1,0,12,10,80,1,53298,1
2,34155,35806,33358,18216,11767,-3954,1668,-1560,3968,-3369,-6857,178,646,-240,1,0,12,10,120,1,53298,1
2,34186,35878,33359,18217,11774,-3750,2180,-2006,1148,-1768,-3907,178,648,-238,1,0,12,10,160,1,53298,1
2,34410,35881,33367,18218,11781,-3707,1969,-1647,1205,-104,437,172,652,-244,1,0,12,10,200,1,53298,1
2,34787,35685,33335,18219,11788,-4220,834,-1106,-1325,1635,3628,158,642,-252,1,0,12,10,240,1,53298,1
2,35385,35073,33323,18220,11794,-4310,486,-1329,-2112,2283,5156,124,648,-250,1,0,12,10,280,1,53298,1
2,36073,35557,33335,18221,11801,-4369,425,-1325,-1590,2549,5872,113,633,-257,1,0,12,10,320,1,53298,1
2,36240,34786,33311,18222,11808,-4708,34,-882,-2858,2997,5704,100,638,-266,1,0,12,10,360,1,53298,1
2,35852,32669,33280,18223,11815,-5619,-1420,-581,-5190,2849,3676,94,622,-254,1,0,12,10,400,1,53298,1
2,35350,31860,33235,18224,11823,-5532,-1783,-515,-4346,784,-868,102,614,-256,1,0,12,10,440,1,53298,1
2,34638,35159,33256,18225,11830,-4680,-842,-743,-1706,-1270,-4916,133,619,-263,1,0,12,10,480,1,53298,1
2,34574,36552,33472,18226,11836,-4020,-257,-1287,53,-1790,-6839,156,618,-260,1,0,12,10,520,1,53298,1
2,34403,36667,33484,18227,11841,-3814,669,-1090,2243,-1732,-6399,178,614,-256,1,0,12,10,560,1,53298,1
2,34373,36762,33502,18228,11847,-3542,1107,-1315,3785,-1628,-4344,189,615,-263,1,0,12,10,600,1,53298,1
2,34512,36793,33512,18229,11853,-3433,1556,-1592,4163,-888,-1718,180,610,-260,1,0,12,10,640,1,53298,1
2,34849,36781,33519,18230,11859,-3668,1654,-1319,3638,473,1315,180,616,-266,1,0,12,10,680,1,53298,1
2,35065,36674,33509,18231,11864,-4108,1103,-968,673,1568,3615,151,631,-259,1,0,12,10,720,1,53298,1
2,35400,36524,33473,18232,11870,-3993,882,-1480,-1465,2008,5107,140,636,-268,1,0,12,10,760,1,53298,1
2,36314,36360,33470,18233,11876,-4028,763,-1703,-313,2238,6682,102,634,-264,1,0,12,10,800,1,53298,1
2,36611,36140,33267,18234,11881,-4452,583,-1603,1365,3077,7842,80,620,-276,1,0,12,10,840,1,53298,1
2,35922,31404,33493,18235,11886,-5101,-8,-1068,913,3606,7470,62,620,-276,1,0,12,10,880,1,53298,1
2,35796,30954,33842,18236,11890,-5951,-1216,-561,-2594,3038,4402,60,614,-282,1,0,12,10,920,1,53298,1
2,36040,31069,34074,18237,11896,-5725,-1682,-540,-5274,965,-599,71,605,-279,1,0,12,10,960,1,53298,1
1,36196,31189,34259,18238,0,-4741,-1067,-719,-2381,-1627,-5161,92,606,-282,1,0,12,11,0,0,53298,1
2,35845,31259,34361,18239,11254,-4281,-400,-796,-292,-3166,-7912,128,608,-272,1,0,12,11,40,0,53298,1
2,35306,31300,34365,18240,11260,-3757,284,-848,-753,-3440,-9160,144,616,-268,1,0,12,11,80,0,53298,1
2,34975,31438,34371,18241,11265,-3803,447,-1734,170,-2517,-9183,186,612,-258,1,0,12,11,120,0,53298,1
2,34798,31626,34369,18242,11270,-3585,1286,-1309,6358,-3112,-6752,198,614,-248,1,0,12,11,160,0,53298,1
2,34751,32005,34404,18243,11275,-3406,1697,-1717,5561,-2239,-3930,202,620,-234,1,0,12,11,200,0,53298,1
2,34973,32730,34337,18244,11281,-3679,1721,-1794,4805,-752,-531,208,626,-246,1,0,12,11,240,0,53298,1
2,35285,32860,34405,18245,11286,-4223,1104,-1309,2105,870,2421,179,639,-259,1,0,12,11,280,0,53298,1
2,35893,31479,34373,18246,11291,-4304,832,-1300,100,1413,4636,161,637,-253,1,0,12,11,320,0,53298,1
2,36972,31555,34318,18247,11296,-4292,642,-1615,242,1888,6381,135,635,-251,1,0,12,11,360,0,53298,1
2,38754,31562,34512,18248,11302,-4418,571,-1505,929,2506,7581,105,639,-257,1,0,12,11,400,0,53298,1
2,38686,31382,34400,18249,11306,-5125,-39,-1077,-2349,3664,7040,92,640,-268,1,0,12,11,440,0,53298,1
2,37504,35270,33906,18250,11310,-5555,-677,-1036,-4394,3490,5436,83,627,-277,1,0,12,11,480,0,53298,1
2,36027,31514,33290,18251,11315,-5521,-1355,-543,-4114,2040,2007,84,616,-276,1,0,12,11,520,0,53298,1
2,35330,30970,32947,18252,11319,-5095,-1588,-912,-4680,-86,-2507,98,620,-276,1,0,12,11,560,0,53298,1
2,34645,31524,32775,18253,11324,-4534,-689,-685,-1208,-1656,-5235,122,612,-270,1,0,12,11,600,0,53298,1
2,34034,31730,32742,18254,11329,-4186,-273,-741,-288,-2422,-6795,143,613,-269,1,0,12,11,640,0,53298,1
2,33815,31245,32780,18255,11335,-3973,-408,-1267,442,-2515,-7419,174,610,-266,1,0,12,11,680,0,53298,1
2,33455,31680,32737,18256,11340,-3841,392,-1158,3194,-2933,-7161,197,613,-253,1,0,12,11,720,0,53298,1
2,33158,30296,32783,18257,11345,-3563,869,-1289,4194,-2625,-6013,220,612,-252,1,0,12,11,760,0,53298,1
2,32962,32195,32698,18258,11350,-3692,1184,-1696,3235,-1846,-3954,220,614,-250,1,0,12,11,800,0,53298,1
2,33059,31726,32678,18259,11355,-3814,1557,-1929,2356,-364,-1162,212,620,-250,1,0,12,11,840,0,53298,1
2,33393,34164,32564,18260,11361,-4251,1243,-1316,2235,895,2372,203,627,-247,1,0,12,11,880,0,53298,1
2,33827,32034,32506,18261,11366,-4304,858,-1137,979,1316,4879,177,645,-249,1,0,12,11,920,0,53298,1
2,34872,35784,32563,18262,11372,-4212,865,-1496,330,1623,6917,147,639,-263,1,0,12,11,960,0,53298,1
1,36047,30560,32473,18263,0,-4153,779,-1688,-670,2788,8335,120,642,-262,1,0,12,12,0,0,53298,1
2,36613,30106,32470,18264,10756,-4397,598,-1602,-1849,4285,9219,91,631,-285,1,0,12,12,40,0,53298,1
2,34913,30138,32457,18265,10761,-4845,46,-1330,-2582,5168,9292,56,628,-288,1,0,12,12,80,0,53298,1
2,33735,30230,32444,18266,10766,-5320,-480,-715,-2707,4702,7588,40,608,-288,1,0,12,12,120,0,53298,1
2,33374,30487,32445,18267,10772,-5169,-1142,-783,-3542,2984,4038,43,597,-289,1,0,12,12,160,0,53298,1
2,33749,30884,32442,18268,10777,-4831,-1191,-479,-1990,523,-220,55,599,-295,1,0,12,12,200,0,53298,1
2,34329,32203,32426,18269,10782,-4376,-633,-540,-556,-1591,-3694,74,608,-290,1,0,12,12,240,0,53298,1
2,34819,34799,32474,18270,10789,-4596,-422,-599,521,-3152,-6095,93,617,-273,1,0,12,12,280,0,53298,1
2,34200,34260,32465,18271,10794,-4624,-452,-799,-1651,-3858,-8860,121,621,-259,1,0,12,12,320,0,53298,1
2,33492,35571,32503,18272,10800,-4491,73,-1747,-1103,-4399,-10420,149,623,-255,1,0,12,12,360,0,53298,1
2,32861,30304,32483,18273,10805,-4095,991,-1090,4859,-5052,-9408,187,631,-231,1,0,12,12,400,0,53298,1
2,32605,35044,32459,18274,10810,-3841,1357,-2086,1756,-3703,-8188,205,629,-225,1,0,12,12,440,0,53298,1
2,32556,31982,32464,18275,10816,-3646,1799,-2248,1430,-1786,-5092,219,637,-235,1,0,12,12,480,0,53298,1
2,32803,33717,32458,18276,10822,-3751,2107,-1585,2698,161,-456,202,634,-236,1,0,12,12,520,0,53298,1
2,33201,32564,32452,18277,10828,-4162,1212,-1288,961,1539,3429,187,641,-251,1,0,12,12,560,0,53298,1
2,33963,31898,32450,18278,10834,-4210,915,-1184,611,2104,6281,160,638,-256,1,0,12,12,600,0,53298,1
2,34900,32098,32443,18279,10841,-4266,765,-1353,301,2565,8047,134,626,-268,1,0,12,12,640,0,53298,1
2,35816,31721,32437,18280,10848,-4313,582,-1525,-1290,3593,8841,102,632,-268,1,0,12,12,680,0,53298,1
2,35388,31303,32434,18281,10854,-4672,-48,-1514,-2859,4616,8792,85,627,-275,1,0,12,12,720,0,53298,1
2,34336,31140,32429,18282,10860,-5035,-535,-847,-1527,4488,7809,60,604,-278,1,0,12,12,760,0,53298,1
2,33871,31264,32445,18283,10865,-5143,-1048,-603,-591,2973,5108,48,606,-306,1,0,12,12,800,0,53298,1
2,34147,31794,32442,18284,10871,-4884,-1289,-111,-83,726,1015,65,613,-283,1,0,12,12,840,0,53298,1
2,34655,32010,32475,18285,10878,-4440,-795,-446,555,-1638,-2629,69,619,-287,1,0,12,12,880,0,53298,1
2,35234,32956,32503,18286,10885,-4340,-552,-725,2504,-3583,-4899,95,623,-275,1,0,12,12,920,0,53298,1
2,34790,30130,32530,18287,10892,-4451,-344,-803,2224,-4603,-7065,122,632,-274,1,0,12,12,960,0,53298,1
1,33965,30190,32548,18288,0,-4494,48,-1197,1406,-5111,-8833,144,638,-254,1,0,12,13,0,0,53298,1
2,33183,33117,32511,18289,10257,-4259,886,-1692,814,-4803,-9377,182,646,-250,1,0,12,13,40,0,53298,1
2,32849,33428,32521,18290,10264,-4042,1502,-1860,1027,-3681,-7845,199,643,-235,1,0,12,13,80,0,53298,1
2,32769,34028,32510,18291,10273,-3877,1959,-2077,521,-2128,-4629,206,646,-228,1,0,12,13,120,0,53298,1
2,33073,34767,32513,18292,10280,-3833,2051,-1794,212,8,-395,187,641,-239,1,0,12,13,160,0,53298,1
2,33509,32988,32519,18293,10287,-4164,1167,-1226,-1338,1757,3452,181,649,-237,1,0,12,13,200,0,53298,1
2,34274,33026,32515,18294,10295,-4271,741,-1163,-1061,2463,6219,152,644,-250,1,0,12,13,240,0,53298,1
2,35214,32889,32512,18295,10302,-4255,625,-1394,-748,2831,7831,126,636,-256,1,0,12,13,280,0,53298,1
2,35944,32804,32501,18296,10309,-4452,257,-1449,-1788,3872,8350,79,629,-261,1,0,12,13,320,0,53298,1
2,35412,32567,32489,18297,10315,-4765,-186,-1118,-2295,4566,7929,72,624,-276,1,0,12,13,360,0,53298,1
2,34693,32451,32500,18298,10322,-4857,-615,-670,-2192,4158,6168,68,616,-282,1,0,12,13,400,0,53298,1
2,34385,32556,32515,18299,10329,-4729,-854,-445,-2387,2707,3174,64,614,-290,1,0,12,13,440,0,53298,1
2,34461,32272,32509,18300,10336,-4667,-902,-462,-3020,1076,-318,67,617,-287,1,0,12,13,480,0,53298,1
2,34562,32100,32515,18301,10343,-4489,-604,-769,-2328,-590,-3167,74,618,-284,1,0,12,13,520,0,53298,1
2,34579,33146,32516,18302,10350,-4628,-449,-899,-432,-2125,-5182,89,627,-261,1,0,12,13,560,0,53298,1
2,34123,34091,32523,18303,10356,-4631,-254,-1036,210,-2977,-7146,118,634,-262,1,0,12,13,600,0,53298,1
2,33642,33677,32529,18304,10363,-4454,325,-1598,3030,-3470,-7858,148,638,-248,1,0,12,13,640,0,53298,1
2,33151,33945,32533,18305,10369,-4165,814,-935,6356,-3993,-7274,173,643,-253,1,0,12,13,680,0,53298,1
2,32844,33697,32526,18306,10375,-4077,807,-1481,2178,-3089,-6652,196,638,-230,1,0,12,13,720,0,53298,1
2,32655,33798,32517,18307,10382,-3976,1131,-1378,1617,-2521,-4832,203,643,-225,1,0,12,13,760,0,53298,1
2,32669,34110,32516,18308,10389,-3956,1064,-1847,204,-1089,-2315,197,631,-229,1,0,12,13,800,0,53298,1
2,32885,33931,32519,18309,10396,-4024,1198,-1598,2056,82,825,194,634,-222,1,0,12,13,840,0,53298,1
2,33294,33914,32517,18310,10403,-4143,870,-1485,1367,1325,3501,173,645,-243,1,0,12,13,880,0,53298,1
2,33935,33723,32513,18311,10409,-4313,506,-1159,1228,2095,5478,155,647,-247,1,0,12,13,920,0,53298,1
2,34538,33595,32510,18312,10415,-4383,344,-1104,602,2535,6359,133,645,-255,1,0,12,13,960,0,53298,1
1,35299,33395,32507,18313,0,-4464,113,-1217,-793,3089,6342,115,637,-263,1,0,12,14,0,0,53298,1
2,35577,33294,32502,18314,9759,-4563,-11,-1092,-1686,3369,5774,86,632,-270,1,0,12,14,40,0,53298,1
2,35400,33254,32491,18315,9766,-4882,-426,-786,-2330,2972,4665,74,626,-268,1,0,12,14,80,0,53298,1
2,34985,33399,32483,18316,9772,-5465,-1216,-577,-3757,1963,2028,84,622,-272,1,0,12,14,120,0,53298,1
2,34581,33323,32481,18317,9778,-4891,-1370,-715,-2936,-195,-1949,105,625,-277,1,0,12,14,160,0,53298,1
2,34141,33491,32488,18318,9785,-4402,-746,-611,437,-2134,-4966,126,628,-264,1,0,12,14,200,0,53298,1
2,33571,33575,32499,18319,9791,-4092,-516,-916,154,-2772,-7059,155,629,-263,1,0,12,14,240,0,53298,1
2,33131,33569,32509,18320,9798,-4003,206,-1000,2102,-3073,-7481,172,626,-246,1,0,12,14,280,0,53298,1
2,32732,33709,32511,18321,9804,-4006,708,-1193,3119,-3339,-6597,197,631,-249,1,0,12,14,320,0,53298,1
2,32561,33772,32513,18322,9811,-3988,953,-1642,1000,-2725,-5298,212,624,-228,1,0,12,14,360,0,53298,1
2,32556,33813,32521,18323,9818,-4040,1302,-2019,-182,-1377,-3176,208,632,-234,1,0,12,14,400,0,53298,1
2,32780,33811,32522,18324,9825,-4140,1483,-1752,1130,-21,156,207,647,-233,1,0,12,14,440,0,53298,1
2,33155,33827,32519,18325,9832,-4248,1046,-1415,1094,1232,3174,180,638,-244,1,0,12,14,480,0,53298,1
2,33635,33798,32517,18326,9839,-4193,874,-1262,1540,1967,5690,153,645,-253,1,0,12,14,520,0,53298,1
2,34425,33707,32517,18327,9845,-4226,754,-1231,542,2709,7287,139,635,-255,1,0,12,14,560,0,53298,1
2,35137,33576,32507,18328,9853,-4339,406,-1462,-1585,3749,8046,108,636,-270,1,0,12,14,600,0,53298,1
2,35286,33697,32506,18329,9859,-4599,72,-1343,-2372,4405,8157,81,631,-275,1,0,12,14,640,0,53298,1
2,34504,33512,32504,18330,9867,-5015,-383,-961,-2015,4317,7334,71,621,-283,1,0,12,14,680,0,53298,1
2,34076,33649,32496,18331,9874,-5477,-1027,-596,-2274,3173,4595,54,612,-290,1,0,12,14,720,0,53298,1
2,34115,33523,32493,18332,9880,-5251,-1465,-528,-2961,1203,4,77,605,-283,1,0,12,14,760,0,53298,1
2,34185,33567,32489,18333,9887,-4501,-744,-609,-289,-1404,-3968,94,608,-284,1,0,12,14,800,0,53298,1
2,34180,33616,32490,18334,9893,-4144,-516,-775,1168,-2862,-6281,124,616,-276,1,0,12,14,840,0,53298,1
2,33880,33729,32494,18335,9899,-3957,-312,-829,1862,-3679,-7610,145,623,-267,1,0,12,14,880,0,53298,1
2,33428,33712,32499,18336,9906,-3983,-192,-1153,2186,-3929,-8375,168,622,-250,1,0,12,14,920,0,53298,1
2,33000,33766,32512,18337,9912,-4035,524,-1602,3451,-3685,-8355,202,630,-246,1,0,12,14,960,0,53298,1
1,32672,33744,32514,18338,0,-3924,1252,-1691,5044,-3189,-6779,214,624,-244,1,0,12,15,0,0,53298,1
2,32630,33719,32515,18339,9260,-3920,1626,-2107,2179,-1554,-4291,222,630,-248,1,0,12,15,40,0,53298,1
2,32914,33628,32515,18340,9267,-4093,1710,-2028,1559,187,-405,212,634,-250,1,0,12,15,80,0,53298,1
2,33324,33573,32510,18341,9272,-4311,1149,-1191,1437,1238,3236,198,644,-248,1,0,12,15,120,0,53298,1
2,33891,33534,32511,18342,9279,-4136,842,-1406,703,1905,5970,163,649,-259,1,0,12,15,160,0,53298,1
2,34931,33472,32507,18343,9285,-4099,819,-1511,653,2599,7929,125,645,-259,1,0,12,15,200,0,53298,1
2,35874,33307,32499,18344,9291,-4251,492,-1573,-1489,4146,8906,103,641,-273,1,0,12,15,240,0,53298,1
2,35706,31820,32492,18345,9296,-4819,-6,-1460,-2533,5189,8994,79,633,-289,1,0,12,15,280,0,53298,1
2,34495,30759,32504,18346,9302,-5516,-777,-975,-2545,4878,7545,59,611,-295,1,0,12,15,320,0,53298,1
2,34110,30707,32504,18347,9308,-5756,-1267,-623,-2041,2981,4004,71,607,-307,1,0,12,15,360,0,53298,1
2,34033,30613,32493,18348,9314,-5521,-1445,-527,-3613,724,-1240,82,604,-298,1,0,12,15,400,0,53298,1
2,34005,30659,32487,18349,9320,-4530,-711,-843,-2516,-1346,-5498,102,600,-290,1,0,12,15,440,0,53298,1
2,34140,30818,32486,18350,9326,-3950,-383,-1051,-905,-2291,-7560,126,604,-286,1,0,12,15,480,0,53298,1
2,34153,31217,32484,18351,9333,-3720,-92,-1040,347,-2597,-8103,164,610,-296,1,0,12,15,520,0,53298,1
2,33886,32261,32486,18352,9338,-3701,178,-1055,1860,-2930,-7762,190,600,-274,1,0,12,15,560,0,53298,1
2,33594,32984,32502,18353,9344,-3655,807,-1576,2937,-2986,-6852,193,611,-273,1,0,12,15,600,0,53298,1
2,33448,32681,32510,18354,9350,-3494,1551,-1633,5118,-2712,-4483,220,616,-270,1,0,12,15,640,0,53298,1
2,33560,32575,32514,18355,9356,-3590,1752,-1828,4484,-1747,-1159,207,623,-261,1,0,12,15,680,0,53298,1
2,33901,32345,32518,18356,9362,-3909,1323,-1704,1392,-1,2004,186,636,-254,1,0,12,15,720,0,53298,1
2,34339,31990,32516,18357,9369,-4090,818,-1490,-503,1209,4562,161,641,-269,1,0,12,15,760,0,53298,1
2,35421,31807,32504,18358,9375,-4038,647,-1778,195,1923,6680,130,640,-276,1,0,12,15,800,0,53298,1
2,37670,31774,32507,18359,9382,-4435,465,-1577,1525,2639,8363,102,640,-272,1,0,12,15,840,0,53298,1
2,37891,31412,32504,18360,9388,-5897,-1019,-687,119,3221,7427,90,640,-272,1,0,12,15,880,0,53298,1
2,37551,31202,32498,18361,9393,-5497,-1020,-583,-3157,1740,3474,73,639,-271,1,0,12,15,920,0,53298,1
2,36667,31191,32496,18362,9398,-5096,-804,-871,-4547,-107,-143,86,634,-272,1,0,12,15,960,0,53298,1
1,35632,31504,32505,18363,0,-4932,-948,-1037,-3727,-1073,-2855,101,631,-261,1,0,12,16,0,0,53298,1
2,34392,31683,32510,18364,8763,-4817,-714,-760,-1491,-2029,-5420,141,635,-265,1,0,12,16,40,0,53298,1
2,33845,31371,32530,18365,8768,-4368,-477,-1250,-1830,-2532,-7492,165,625,-265,1,0,12,16,80,0,53298,1
2,33457,31484,32532,18366,8774,-3730,479,-1241,1373,-2855,-7716,200,622,-260,1,0,12,16,120,0,53298,1
2,33245,32646,32523,18367,8780,-3340,1064,-1529,2948,-2164,-5962,211,631,-259,1,0,12,16,160,0,53298,1
2,33327,34759,32538,18368,8786,-3319,1667,-1547,3697,-1313,-2805,209,631,-261,1,0,12,16,200,0,53298,1
2,33577,34200,32535,18369,8793,-3774,1562,-1386,2452,168,777,192,626,-272,1,0,12,16,240,0,53298,1
2,33955,34095,32527,18370,8799,-4319,894,-1115,-16,1169,3422,173,639,-257,1,0,12,16,280,0,53298,1
2,34498,33773,32522,18371,8806,-4210,778,-1506,-1133,1413,5133,151,643,-257,1,0,12,16,320,0,53298,1
2,35521,33568,32513,18372,8812,-4173,757,-1721,-841,2012,6626,124,648,-264,1,0,12,16,360,0,53298,1
2,36597,33347,32511,18373,8818,-4409,598,-1632,-988,3052,7811,99,637,-269,1,0,12,16,400,0,53298,1
2,35974,33241,32498,18374,8825,-4725,144,-1442,-1765,4048,8077,68,624,-284,1,0,12,16,440,0,53298,1
2,34554,33130,32495,18375,8831,-5089,-338,-990,-1838,4108,7066,50,626,-292,1,0,12,16,480,0,53298,1
2,34020,32999,32489,18376,8838,-5124,-888,-703,-2159,2897,4535,53,613,-293,1,0,12,16,520,0,53298,1
2,34052,33023,32485,18377,8844,-4882,-1167,-518,-1681,936,1099,54,612,-280,1,0,12,16,560,0,53298,1
2,34458,33046,32490,18378,8850,-4620,-944,-581,190,-1187,-2470,84,604,-294,1,0,12,16,600,0,53298,1
2,34560,32859,32489,18379,8857,-4487,-486,-782,1439,-2611,-5525,105,625,-279,1,0,12,16,640,0,53298,1
2,34246,33048,32486,18380,8863,-4256,-88,-805,799,-3361,-7749,128,624,-270,1,0,12,16,680,0,53298,1
2,33615,33063,32501,18381,8869,-4287,21,-1023,-300,-3801,-8850,156,622,-268,1,0,12,16,720,0,53298,1
2,33114,32973,32509,18382,8876,-4246,544,-1425,64,-4170,-8838,183,629,-255,1,0,12,16,760,0,53298,1
2,32733,33067,32508,18383,8882,-4007,1099,-1715,1845,-3995,-7491,208,628,-248,1,0,12,16,800,0,53298,1
2,32661,32996,32517,18384,8887,-3774,1463,-2098,293,-2297,-5470,222,626,-244,1,0,12,16,840,0,53298,1
2,32776,33010,32514,18385,8893,-3749,1857,-1929,670,-145,-1957,214,636,-246,1,0,12,16,880,0,53298,1
2,33162,32991,32508,18386,8899,-4111,1160,-1214,794,1314,1946,196,638,-252,1,0,12,16,920,0,53298,1
2,33595,32901,32510,18387,8905,-4168,995,-1090,533,1688,4979,172,642,-254,1,0,12,16,960,0,53298,1
1,34229,32903,32505,18388,0,-4254,831,-1404,278,1912,7173,144,644,-246,1,0,12,17,0,1,53298,1
2,35141,32761,32498,18389,8265,-4412,506,-1541,-868,2891,8339,117,637,-261,1,0,12,17,40,1,53298,1
2,35255,34935,32528,18390,8272,-4839,-202,-1541,-1255,3899,8579,95,625,-277,1,0,12,17,80,1,53298,1
2,34442,32962,32480,18391,8279,-5049,-588,-936,712,3723,7379,79,611,-285,1,0,12,17,120,1,53298,1
2,34145,33021,32476,18392,8286,-5055,-1080,-504,-318,2698,4375,68,612,-292,1,0,12,17,160,1,53298,1
2,34248,33079,32477,18393,8292,-4694,-1233,-159,-1102,703,552,77,607,-287,1,0,12,17,200,1,53298,1
2,34453,32955,32478,18394,8297,-4312,-808,-340,15,-1556,-2646,93,617,-279,1,0,12,17,240,1,53298,1
2,34384,32987,32481,18395,8303,-4293,-600,-480,1289,-3313,-4883,112,628,-262,1,0,12,17,280,1,53298,1
2,33930,33068,32492,18396,8309,-4349,-354,-746,826,-4408,-6758,127,629,-255,1,0,12,17,320,1,53298,1
2,33203,32925,32501,18397,8316,-4426,220,-1250,94,-4852,-7918,179,633,-249,1,0,12,17,360,1,53298,1
2,32812,32838,32505,18398,8322,-4289,731,-1791,-125,-4295,-7953,180,640,-228,1,0,12,17,400,1,53298,1
2,32612,32787,32512,18399,8328,-4189,1304,-1986,396,-3076,-6370,204,640,-238,1,0,12,17,440,1,53298,1
2,32719,32883,32510,18400,8334,-3971,1539,-2192,56,-1221,-3641,216,642,-242,1,0,12,17,480,1,53298,1
2,33037,32937,32518,18401,8341,-4004,1517,-1687,300,927,-127,209,643,-243,1,0,12,17,520,1,53298,1
2,33565,32939,32515,18402,8347,-4277,889,-987,394,1884,3055,182,646,-250,1,0,12,17,560,1,53298,1
2,34066,32844,32512,18403,8353,-4245,640,-921,673,2190,5442,165,647,-251,1,0,12,17,600,1,53298,1
2,34730,32712,32515,18404,8360,-4291,436,-1049,454,2327,6775,142,642,-256,1,0,12,17,640,1,53298,1
2,35576,32608,32517,18405,8367,-4325,309,-1295,-519,2797,7327,105,641,-267,1,0,12,17,680,1,53298,1
2,35855,32498,32505,18406,8374,-4589,-62,-1234,-1917,3508,7064,83,635,-273,1,0,12,17,720,1,53298,1
2,35471,32480,32500,18407,8381,-4994,-577,-914,-861,3331,6052,71,621,-273,1,0,12,17,760,1,53298,1
2,35078,32483,32502,18408,8387,-5255,-978,-461,1009,2052,3516,81,629,-293,1,0,12,17,800,1,53298,1
2,34988,32476,32499,18409,8394,-4930,-1058,-473,-195,208,-592,96,622,-282,1,0,12,17,840,1,53298,1
2,34760,32430,32502,18410,8400,-4470,-686,-641,-114,-1453,-3840,109,623,-275,1,0,12,17,880,1,53298,1
2,34360,32519,32502,18411,8407,-4468,-541,-685,134,-2573,-5987,125,631,-269,1,0,12,17,920,1,53298,1
2,33820,32661,32514,18412,8414,-4426,-345,-927,-110,-3295,-7517,147,635,-259,1,0,12,17,960,1,53298,1
1,33220,32726,32511,18413,0,-4272,234,-1377,345,-3618,-8224,183,623,-253,1,0,12,18,0,0,53298,1
2,32907,32963,32523,18414,7768,-3919,891,-1621,1558,-3013,-7539,208,640,-244,1,0,12,18,40,0,53298,1
2,32729,32779,32519,18415,7775,-3852,1392,-1658,1612,-1907,-5405,210,626,-238,1,0,12,18,80,0,53298,1
2,32831,32966,32520,18416,7782,-3709,1556,-1940,241,-445,-2295,210,630,-232,1,0,12,18,120,0,53298,1
2,33164,32967,32521,18417,7788,-3953,1157,-1526,611,911,1509,204,636,-250,1,0,12,18,160,0,53298,1
