sensorStatus,cap1,cap2,cap3,counter,microseconds_since_last_tick,accX,accY,accZ,gyroX,gyroY,gyroZ,magnetX,magnetY,magnetZ,day,hour,min,sec,msec,sync,battery_fuel,crc_good
2,29192,30619,31448,49414,10743,-4598,-942,182,7,-11,39,240,468,-108,1,0,32,58,40,0,53298,1
2,29208,30620,31451,49415,10750,-4607,-932,178,11,-12,26,240,474,-98,1,0,32,58,80,0,53298,1
2,29216,30619,31449,49416,10758,-4601,-951,163,-1,-12,28,244,472,-120,1,0,32,58,120,0,53298,1
2,29199,30617,31449,49417,10765,-4598,-940,178,4,6,27,246,468,-106,1,0,32,58,160,0,53298,1
2,29222,30617,31449,49418,10771,-4607,-940,173,-1,-5,28,240,472,-98,1,0,32,58,200,0,53298,1
2,29236,30615,31450,49419,10779,-4599,-942,190,-2,-3,42,238,476,-104,1,0,32,58,240,0,53298,1
2,29215,30614,31450,49420,10787,-4590,-921,165,6,-1,55,248,468,-104,1,0,32,58,280,0,53298,1
2,29214,30612,31450,49421,10795,-4597,-926,182,2,-23,39,239,477,-103,1,0,32,58,320,0,53298,1
2,29213,30614,31449,49422,10803,-4600,-943,170,-7,-48,13,237,479,-103,1,0,32,58,360,0,53298,1
2,29215,30613,31449,49423,10811,-4589,-942,176,-1,-66,13,230,466,-110,1,0,32,58,400,0,53298,1
2,29170,30614,31448,49424,10820,-4585,-929,175,18,-57,39,237,473,-107,1,0,32,58,440,0,53298,1
2,29154,30613,31447,49425,10830,-4604,-938,198,15,-22,63,240,470,-102,1,0,32,58,480,0,53298,1
2,29169,30610,31451,49426,10838,-4600,-933,189,5,7,56,233,473,-107,1,0,32,58,520,0,53298,1
2,29141,30605,31450,49427,10846,-4600,-936,178,-9,11,42,233,473,-97,1,0,32,58,560,0,53298,1
2,29151,30608,31451,49428,10854,-4607,-938,173,-16,-1,29,238,472,-110,1,0,32,58,600,0,53298,1
2,29163,30601,31449,49429,10863,-4588,-917,191,-7,-20,18,238,474,-110,1,0,32,58,640,0,53298,1
2,29156,30601,31448,49430,10871,-4599,-947,187,-7,-27,23,241,475,-105,1,0,32,58,680,0,53298,1
2,29157,30595,31446,49431,10879,-4599,-931,166,-12,-34,9,241,473,-103,1,0,32,58,720,0,53298,1
2,29173,30601,31447,49432,10887,-4602,-931,192,-7,-11,16,237,475,-97,1,0,32,58,760,0,53298,1
2,29165,30597,31448,49433,10894,-4587,-915,186,-13,-3,26,227,471,-101,1,0,32,58,800,0,53298,1
2,29173,30590,31445,49434,10902,-4605,-954,177,-11,7,30,240,470,-110,1,0,32,58,840,0,53298,1
2,29165,30592,31448,49435,10910,-4612,-932,181,-14,0,30,241,475,-97,1,0,32,58,880,0,53298,1
2,29141,30592,31449,49436,10919,-4595,-933,178,-13,-17,21,236,472,-112,1,0,32,58,920,0,53298,1
2,29149,30587,31447,49437,10928,-4602,-945,177,-14,-33,23,245,469,-101,1,0,32,58,960,0,53298,1
1,29137,30570,31449,49438,0,-4596,-937,177,-8,-32,21,245,465,-107,1,0,32,59,0,0,53298,1
2,29150,30563,31449,49439,10277,-4609,-937,178,-7,-20,24,230,468,-112,1,0,32,59,40,0,53298,1
2,29138,30554,31446,49440,10285,-4604,-934,192,-11,-9,20,240,474,-116,1,0,32,59,80,0,53298,1
2,29163,30559,31449,49441,10293,-4601,-942,175,-10,-10,23,244,468,-106,1,0,32,59,120,0,53298,1
2,29153,30571,31449,49442,10302,-4591,-929,200,-10,-3,23,236,472,-110,1,0,32,59,160,0,53298,1
2,29141,30573,31451,49443,10310,-4602,-933,179,-15,-12,23,240,478,-106,1,0,32,59,200,0,53298,1
2,29139,30575,31449,49444,10317,-4600,-929,193,-13,-27,16,239,465,-113,1,0,32,59,240,0,53298,1
2,29125,30574,31448,49445,10324,-4596,-938,176,-9,-32,20,246,458,-110,1,0,32,59,280,0,53298,1
2,29137,30569,31449,49446,10332,-4590,-936,187,2,-30,32,229,469,-95,1,0,32,59,320,0,53298,1
2,29160,30565,31449,49447,10340,-4590,-924,175,-7,-22,23,236,468,-100,1,0,32,59,360,0,53298,1
2,29155,30570,31446,49448,10348,-4597,-928,178,-15,-14,23,238,474,-108,1,0,32,59,400,0,53298,1
2,29176,30549,31446,49449,10355,-4592,-928,177,-20,-7,19,245,473,-107,1,0,32,59,440,0,53298,1
2,29164,30558,31449,49450,10362,-4604,-937,194,-13,-3,16,241,469,-109,1,0,32,59,480,0,53298,1
2,29116,30566,31446,49451,10370,-4602,-935,183,-12,-3,22,234,474,-102,1,0,32,59,520,0,53298,1
2,29098,30570,31445,49452,10378,-4610,-945,169,-14,-11,28,244,474,-108,1,0,32,59,560,0,53298,1
2,29098,30579,31448,49453,10386,-4604,-942,183,-6,-20,27,234,468,-102,1,0,32,59,600,0,53298,1
2,29118,30572,31448,49454,10394,-4597,-930,186,-9,-29,27,232,468,-104,1,0,32,59,640,0,53298,1
2,29129,30573,31448,49455,10402,-4602,-933,167,-4,-45,35,254,480,-114,1,0,32,59,680,0,53298,1
2,29104,30555,31449,49456,10410,-4606,-931,182,-1,-46,21,236,472,-106,1,0,32,59,720,0,53298,1
2,29116,30530,31448,49457,10419,-4603,-934,185,-10,-44,27,235,469,-103,1,0,32,59,760,0,53298,1
2,29113,30513,31445,49458,10427,-4601,-942,202,-7,-22,20,234,478,-106,1,0,32,59,800,0,53298,1
2,29116,30509,31446,49459,10434,-4602,-939,172,-9,-2,26,235,471,-113,1,0,32,59,840,0,53298,1
2,29118,30489,31446,49460,10442,-4605,-929,182,-17,5,23,236,472,-116,1,0,32,59,880,0,53298,1
2,29116,30450,31445,49461,10450,-4604,-948,160,-23,-12,15,239,465,-113,1,0,32,59,920,0,53298,1
2,29145,30535,31445,49462,10458,-4597,-939,179,-12,-31,16,241,471,-115,1,0,32,59,960,0,53298,1
1,29194,30575,31445,49463,0,-4591,-929,177,-9,-37,17,241,463,-101,1,0,33,0,0,1,53298,1
2,29125,30573,31448,49464,9811,-4612,-943,172,-1,-21,34,243,467,-95,1,0,33,0,40,1,53298,1
2,29117,30583,31445,49465,9820,-4602,-940,190,-9,-11,26,237,471,-105,1,0,33,0,80,1,53298,1
2,29105,30594,31447,49466,9829,-4601,-933,164,-5,-6,23,237,471,-115,1,0,33,0,120,1,53298,1
2,29106,30596,31447,49467,9837,-4611,-939,168,-8,-14,21,242,478,-108,1,0,33,0,160,1,53298,1
2,29079,30595,31446,49468,9845,-4602,-937,180,-3,-28,21,241,471,-111,1,0,33,0,200,1,53298,1
2,29079,30598,31446,49469,9854,-4601,-941,180,-7,-18,21,244,472,-110,1,0,33,0,240,1,53298,1
2,29086,30594,31446,49470,9863,-4592,-929,187,-12,-15,29,235,475,-105,1,0,33,0,280,1,53298,1
2,29108,30589,31449,49471,9871,-4605,-935,177,-9,-10,24,238,472,-96,1,0,33,0,320,1,53298,1
2,29097,30562,31450,49472,9879,-4592,-930,186,-17,-18,25,237,475,-105,1,0,33,0,360,1,53298,1
2,29105,30573,31450,49473,9887,-4593,-934,174,-13,-24,24,237,469,-111,1,0,33,0,400,1,53298,1
2,29109,30570,31448,49474,9895,-4601,-940,189,-4,-25,29,242,480,-114,1,0,33,0,440,1,53298,1
2,29087,30576,31451,49475,9903,-4606,-937,176,-7,-21,35,227,473,-97,1,0,33,0,480,1,53298,1
2,29077,30570,31453,49476,9911,-4603,-941,188,-10,-24,21,240,476,-110,1,0,33,0,520,1,53298,1
2,29107,30587,31450,49477,9919,-4597,-927,191,-8,-31,34,247,475,-105,1,0,33,0,560,1,53298,1
2,29068,30575,31449,49478,9928,-4600,-935,182,-10,-29,27,240,470,-110,1,0,33,0,600,1,53298,1
2,29062,30579,31446,49479,9936,-4601,-939,179,-14,-20,21,234,470,-104,1,0,33,0,640,1,53298,1
2,29089,30576,31447,49480,9944,-4593,-932,181,-10,-21,23,238,466,-108,1,0,33,0,680,1,53298,1
2,29079,30578,31451,49481,9953,-4599,-936,197,-8,-24,23,243,467,-109,1,0,33,0,720,1,53298,1
2,29085,30590,31453,49482,9962,-4602,-941,183,-11,-26,34,242,478,-102,1,0,33,0,760,1,53298,1
2,29060,30598,31453,49483,9970,-4599,-943,189,-44,-36,34,235,469,-99,1,0,33,0,800,1,53298,1
2,29073,30589,31450,49484,9978,-4594,-935,182,-64,-55,34,236,476,-104,1,0,33,0,840,1,53298,1
2,29045,30557,31449,49485,9985,-4609,-941,195,-27,-43,27,249,473,-113,1,0,33,0,880,1,53298,1
2,29044,30568,31451,49486,9993,-4593,-944,185,-16,-25,22,233,469,-105,1,0,33,0,920,1,53298,1
2,29067,30559,31452,49487,10001,-4596,-929,174,5,-9,19,230,476,-106,1,0,33,0,960,1,53298,1
1,29152,30445,31446,49488,0,-5092,-123,61,-1269,-23,-155,247,467,-111,1,0,33,1,0,1,53298,1
2,29178,30444,31437,49489,9346,-4642,-1222,153,-3264,-133,-515,244,472,-110,1,0,33,1,40,1,53298,1
2,29220,30513,31441,49490,9355,-4276,-1057,375,-969,150,-337,259,477,-113,1,0,33,1,80,1,53298,1
2,29303,29807,31433,49491,9363,-4436,-1008,362,81,91,6,241,481,-95,1,0,33,1,120,1,53298,1
2,29352,30180,31447,49492,9371,-4957,-568,75,-980,2,-15,247,469,-107,1,0,33,1,160,1,53298,1
2,29332,29764,31431,49493,9379,-4772,-1043,156,-2022,-126,-265,254,470,-116,1,0,33,1,200,1,53298,1
2,29290,30212,31436,49494,9387,-4305,-1135,232,-671,-39,-120,245,469,-119,1,0,33,1,240,1,53298,1
2,29280,30191,31447,49495,9394,-4176,-1255,212,326,61,-2,240,476,-100,1,0,33,1,280,1,53298,1
2,29220,29999,31439,49496,9402,-4327,-1190,150,1596,405,185,242,472,-108,1,0,33,1,320,1,53298,1
2,29096,29975,31449,49497,9409,-4705,-730,406,3073,533,480,250,478,-114,1,0,33,1,360,1,53298,1
2,29615,30593,31470,49498,9417,-5078,-824,-142,1911,92,596,240,472,-108,1,0,33,1,400,1,53298,1
2,30361,29876,31483,49499,9426,-4426,-1866,1088,237,-1082,1412,236,478,-110,1,0,33,1,440,1,53298,1
2,30481,30318,31505,49500,9437,-4982,-596,298,1151,-1106,922,235,477,-103,1,0,33,1,480,1,53298,1
2,30643,29888,31576,49501,9447,-4719,-1120,-33,1085,-933,394,241,473,-111,1,0,33,1,520,1,53298,1
2,30590,30293,31545,49502,9459,-4472,-709,344,192,-922,-6,237,477,-107,1,0,33,1,560,1,53298,1
2,30272,29906,31470,49503,9471,-4599,-649,-65,347,-735,210,243,467,-113,1,0,33,1,600,1,53298,1
2,30320,29910,31520,49504,9484,-4551,-616,106,-88,-234,20,240,478,-104,1,0,33,1,640,1,53298,1
2,30382,30082,31516,49505,9496,-4515,-559,-126,482,412,-271,237,477,-105,1,0,33,1,680,1,53298,1
2,30261,30073,31500,49506,9506,-4420,35,-484,587,1175,-468,232,480,-108,1,0,33,1,720,1,53298,1
2,30229,30348,31528,49507,9516,-4603,-4559,2278,-937,311,205,236,482,-112,1,0,33,1,760,1,53298,1
2,30194,29998,31531,49508,9526,-4707,-657,-292,376,-1095,270,235,473,-105,1,0,33,1,800,1,53298,1
2,30042,29932,31514,49509,9537,-4421,-19,-195,26,-1079,497,238,470,-104,1,0,33,1,840,1,53298,1
2,29970,30460,31511,49510,9549,-4481,-344,-117,-421,96,-238,225,475,-97,1,0,33,1,880,1,53298,1
2,29780,30573,31494,49511,9560,-4370,60,-675,1091,1167,-475,232,466,-102,1,0,33,1,920,1,53298,1
2,29723,30484,31497,49512,9569,-5890,-3979,1765,-341,1736,-230,240,472,-104,1,0,33,1,960,1,53298,1
1,30178,30445,31511,49513,0,-4351,-1540,2043,-277,-1158,271,238,478,-102,1,0,33,2,0,1,53298,1
2,30275,30455,31494,49514,8881,-4565,866,-2012,284,-838,714,230,472,-100,1,0,33,2,40,1,53298,1
2,30126,30428,31485,49515,8893,-4555,-784,33,-1390,283,-508,240,476,-108,1,0,33,2,80,1,53298,1
2,30373,30391,31510,49516,8904,-5550,-3387,1979,-1230,947,-237,240,470,-100,1,0,33,2,120,1,53298,1
2,30579,30310,31540,49517,8915,-4691,-185,-118,54,-956,185,235,477,-105,1,0,33,2,160,1,53298,1
2,30524,30284,31554,49518,8926,-4308,-508,-284,809,-445,281,245,477,-107,1,0,33,2,200,1,53298,1
2,30343,30623,31525,49519,8937,-4415,-657,-224,-116,500,-279,232,474,-92,1,0,33,2,240,1,53298,1
2,30353,30604,31544,49520,8947,-5557,-2687,1609,786,908,-118,240,470,-102,1,0,33,2,280,1,53298,1
2,30547,30571,31561,49521,8957,-4719,-531,459,629,-792,263,233,471,-101,1,0,33,2,320,1,53298,1
2,30555,30479,31550,49522,8966,-4292,-50,-855,402,-224,272,235,479,-91,1,0,33,2,360,1,53298,1
2,30468,30197,31531,49523,8975,-4560,-735,-159,-1015,561,-443,237,471,-107,1,0,33,2,400,1,53298,1
2,30475,30299,31538,49524,8984,-5044,-3380,2028,-448,757,-183,232,474,-104,1,0,33,2,440,1,53298,1
2,30573,30276,31536,49525,8994,-4566,-346,-153,1016,-923,374,235,477,-105,1,0,33,2,480,1,53298,1
2,30544,30029,31526,49526,9004,-4311,-439,-504,148,-165,260,234,474,-108,1,0,33,2,520,1,53298,1
2,30570,29901,31526,49527,9014,-4723,-726,305,-442,373,-288,224,482,-90,1,0,33,2,560,1,53298,1
2,30564,30048,31551,49528,9024,-4521,-1922,1494,-205,-645,208,233,471,-95,1,0,33,2,600,1,53298,1
2,30490,30569,31536,49529,9036,-4476,347,-827,999,-801,566,234,476,-96,1,0,33,2,640,1,53298,1
2,30373,30159,31507,49530,9047,-4417,-373,-309,-542,299,-395,239,477,-103,1,0,33,2,680,1,53298,1
2,30295,30004,31507,49531,9056,-4829,-350,-187,208,1551,-462,240,468,-104,1,0,33,2,720,1,53298,1
2,30378,29973,31506,49532,9066,-4055,-1144,1840,-457,-64,-39,234,468,-88,1,0,33,2,760,1,53298,1
2,30425,30015,31511,49533,9076,-4685,-373,-849,968,-399,500,243,471,-103,1,0,33,2,800,1,53298,1
2,30324,30105,31493,49534,9085,-4606,-784,15,-645,-48,10,235,475,-105,1,0,33,2,840,1,53298,1
2,30345,30101,31505,49535,9094,-4783,-872,326,-354,518,-317,233,481,-103,1,0,33,2,880,1,53298,1
2,30429,30089,31515,49536,9102,-4611,-1095,1023,284,-698,280,234,472,-100,1,0,33,2,920,1,53298,1
2,30429,30108,31507,49537,9112,-4533,-177,-652,639,-297,350,240,486,-106,1,0,33,2,960,1,53298,1
1,30360,30197,31492,49538,0,-4523,-631,-70,-407,146,-225,236,476,-102,1,0,33,3,0,1,53298,1
2,30315,29982,31498,49539,8416,-5019,-1158,166,-350,1153,-447,231,477,-101,1,0,33,3,40,1,53298,1
2,30439,30106,31504,49540,8425,-4503,-1223,2069,29,-695,224,237,477,-105,1,0,33,3,80,1,53298,1
2,30501,30217,31510,49541,8434,-4668,-124,-1286,722,-637,630,236,476,-100,1,0,33,3,120,1,53298,1
2,30378,30301,31495,49542,8445,-4508,-615,29,-658,-83,-159,241,473,-103,1,0,33,3,160,1,53298,1
2,30132,30239,31466,49543,8454,-4614,-742,-275,-195,859,-396,232,470,-102,1,0,33,3,200,1,53298,1
2,29983,29810,31456,49544,8462,-4651,-1499,804,241,989,-536,238,478,-100,1,0,33,3,240,1,53298,1
2,29961,29864,31453,49545,8469,-4523,-787,478,1067,225,-181,244,474,-110,1,0,33,3,280,1,53298,1
2,29955,30413,31440,49546,8476,-4684,-921,-29,-536,263,-85,240,474,-102,1,0,33,3,320,1,53298,1
2,29956,29996,31465,49547,8484,-4591,-975,307,-676,35,-139,238,472,-106,1,0,33,3,360,1,53298,1
2,30033,30144,31465,49548,8490,-4541,-967,160,1,104,-89,241,477,-107,1,0,33,3,400,1,53298,1
2,29994,31045,31472,49549,8498,-4624,-890,196,205,66,-30,233,471,-103,1,0,33,3,440,1,53298,1
2,30340,31393,31481,49550,8505,-4746,-805,120,-420,-153,180,242,478,-102,1,0,33,3,480,1,53298,1
2,30375,30405,31500,49551,8516,-4185,-1571,1004,-1141,-1264,1199,237,483,-103,1,0,33,3,520,1,53298,1
2,30392,29898,31488,49552,8526,-4816,-386,-936,528,-758,465,241,471,-105,1,0,33,3,560,1,53298,1
2,30380,30340,31504,49553,8536,-4608,-1093,483,192,-349,-88,243,471,-109,1,0,33,3,600,1,53298,1
2,30362,30463,31503,49554,8546,-4538,-806,190,157,-447,53,236,474,-104,1,0,33,3,640,1,53298,1
2,30315,30404,31468,49555,8558,-4541,-567,-11,382,-242,190,236,468,-106,1,0,33,3,680,1,53298,1
2,30275,30796,31450,49556,8568,-4503,-617,-95,33,299,-158,243,475,-109,1,0,33,3,720,1,53298,1
2,30070,29778,31426,49557,8578,-4618,-156,-504,399,1082,-299,240,468,-106,1,0,33,3,760,1,53298,1
2,29916,30299,31425,49558,8586,-4439,-2193,1233,-419,1065,-476,242,480,-112,1,0,33,3,800,1,53298,1
2,29948,29995,31423,49559,8594,-4570,-769,229,1065,241,-245,232,462,-112,1,0,33,3,840,1,53298,1
2,29875,29817,31414,49560,8602,-4799,-731,-47,-267,250,-106,238,476,-104,1,0,33,3,880,1,53298,1
2,29883,29965,31429,49561,8610,-4636,-980,221,-2093,-150,-449,244,470,-100,1,0,33,3,920,1,53298,1
2,29887,30371,31450,49562,8617,-4392,-1138,289,-1065,-81,-269,245,473,-109,1,0,33,3,960,1,53298,1
1,29901,30552,31457,49563,0,-4588,-882,226,-298,39,-59,242,472,-110,1,0,33,4,0,1,53298,1
2,29885,30488,31457,49564,7949,-4608,-968,165,-134,53,-4,248,474,-112,1,0,33,4,40,1,53298,1
2,29897,30571,31464,49565,7956,-4562,-941,205,-1,28,29,231,481,-109,1,0,33,4,80,1,53298,1
2,29925,30157,31453,49566,7963,-4563,-973,162,151,79,83,242,478,-108,1,0,33,4,120,1,53298,1
2,30425,29880,31492,49567,7969,-4638,-846,117,161,-111,392,238,476,-106,1,0,33,4,160,1,53298,1
2,30447,31711,31465,49568,7978,-4167,-1445,1013,-191,-1075,1351,229,479,-111,1,0,33,4,200,1,53298,1
2,30487,30452,31493,49569,7988,-4888,-435,-1068,1175,-885,596,230,478,-112,1,0,33,4,240,1,53298,1
2,30446,30077,31493,49570,7998,-4517,-981,371,308,-396,-174,237,485,-99,1,0,33,4,280,1,53298,1
2,30422,30352,31493,49571,8008,-4570,-692,56,388,-187,24,243,473,-113,1,0,33,4,320,1,53298,1
2,30420,30383,31485,49572,8018,-4565,-616,115,432,52,59,235,475,-105,1,0,33,4,360,1,53298,1
2,30407,30485,31485,49573,8029,-4564,-343,-33,120,393,-104,235,483,-105,1,0,33,4,400,1,53298,1
2,30451,30485,31503,49574,8039,-4525,-2131,1271,-576,-436,178,242,470,-110,1,0,33,4,440,1,53298,1
2,30376,30142,31503,49575,8050,-4502,168,-578,290,-770,477,232,476,-108,1,0,33,4,480,1,53298,1
2,30377,30632,31485,49576,8062,-4476,-478,-69,46,-92,-114,243,471,-111,1,0,33,4,520,1,53298,1
2,30295,30375,31463,49577,8073,-4364,25,-638,547,928,-460,241,467,-105,1,0,33,4,560,1,53298,1
2,30371,30353,31477,49578,8081,-5822,-4830,2153,-655,1160,-106,229,481,-93,1,0,33,4,600,1,53298,1
2,30426,30442,31494,49579,8091,-4715,-867,838,180,-1261,192,225,477,-109,1,0,33,4,640,1,53298,1
2,30422,30130,31487,49580,8101,-4285,203,-857,445,-706,582,237,477,-97,1,0,33,4,680,1,53298,1
2,30312,30217,31441,49581,8112,-4529,-487,7,-643,223,-343,232,472,-108,1,0,33,4,720,1,53298,1
2,30434,29804,31474,49582,8121,-5324,-1835,923,323,978,-156,235,467,-107,1,0,33,4,760,1,53298,1
2,30423,29831,31487,49583,8131,-4790,-762,1105,-125,-648,93,230,480,-94,1,0,33,4,800,1,53298,1
2,30417,30115,31486,49584,8141,-4383,30,-847,438,-419,399,238,482,-102,1,0,33,4,840,1,53298,1
2,30374,30293,31466,49585,8153,-4532,-555,-57,-660,232,-301,236,470,-104,1,0,33,4,880,1,53298,1
2,30361,30355,31481,49586,8161,-5088,-932,154,362,1235,-282,226,478,-110,1,0,33,4,920,1,53298,1
2,30471,30351,31485,49587,8170,-4389,-1166,2001,-121,-485,118,234,474,-106,1,0,33,4,960,1,53298,1
1,30524,30257,31490,49588,7484,-4665,60,-1252,491,-590,496,236,474,-100,1,0,33,5,0,1,53298,1
2,30348,30070,31468,49589,7493,-4503,-563,-50,-691,-78,-138,241,473,-95,1,0,33,5,40,1,53298,1
2,30252,30238,31467,49590,7500,-4690,-665,-231,84,928,-352,240,470,-104,1,0,33,5,80,1,53298,1
2,30380,30234,31473,49591,7510,-4360,-1805,1783,-79,214,-131,233,475,-97,1,0,33,5,120,1,53298,1
2,30435,30211,31477,49592,7519,-4678,-289,-313,616,-641,545,234,472,-94,1,0,33,5,160,1,53298,1
2,30376,30161,31464,49593,7528,-4499,-608,-445,-1150,-2,37,231,471,-115,1,0,33,5,200,1,53298,1
2,30214,29945,31451,49594,7536,-4565,-908,155,-1004,542,-480,236,480,-104,1,0,33,5,240,1,53298,1
2,30094,30041,31422,49595,7543,-4571,-1116,469,631,725,-407,233,471,-101,1,0,33,5,280,1,53298,1
2,30112,30899,31429,49596,7551,-4615,-813,373,770,303,-227,236,474,-114,1,0,33,5,320,1,53298,1
2,30077,31781,31421,49597,7557,-4600,-987,135,-417,203,-143,235,477,-101,1,0,33,5,360,1,53298,1
2,30084,29808,31432,49598,7564,-4558,-978,180,-330,113,-83,244,472,-114,1,0,33,5,400,1,53298,1
2,30200,30489,31452,49599,7571,-4596,-948,171,270,107,-12,237,473,-103,1,0,33,5,440,1,53298,1
2,30403,30064,31456,49600,7581,-4847,-1421,812,-491,-527,688,233,481,-103,1,0,33,5,480,1,53298,1
2,30598,30126,31493,49601,7590,-4621,-756,467,-239,-1059,789,234,474,-104,1,0,33,5,520,1,53298,1
2,30595,30277,31485,49602,7600,-4602,-529,-725,400,-479,306,230,472,-96,1,0,33,5,560,1,53298,1
2,30594,30299,31496,49603,7600,-4626,-1016,521,156,-195,-181,239,469,-103,1,0,33,5,600,1,53298,1
2,30610,29772,31480,49604,7620,-4594,-816,77,185,-34,46,234,478,-104,1,0,33,5,640,1,53298,1
2,30560,30191,31470,49605,7620,-4568,-616,133,213,11,56,240,472,-104,1,0,33,5,680,1,53298,1
2,30495,30465,31467,49606,7638,-4507,-621,-219,37,365,-110,231,473,-95,1,0,33,5,720,1,53298,1
2,30356,29819,31449,49607,7638,-4851,-1488,333,-49,823,-281,239,471,-109,1,0,33,5,760,1,53298,1
2,30299,29812,31427,49608,7646,-4492,-850,678,588,328,-341,233,479,-105,1,0,33,5,800,1,53298,1
2,30316,29895,31445,49609,7653,-4698,-751,-67,145,303,-175,241,475,-107,1,0,33,5,840,1,53298,1
2,30327,29819,31442,49610,7661,-4814,-1056,45,-2833,28,-614,238,482,-104,1,0,33,5,880,1,53298,1
2,30323,30132,31437,49611,7669,-4393,-1173,451,-1663,-80,-412,247,475,-105,1,0,33,5,920,1,53298,1
2,30351,29925,31453,49612,7676,-4414,-989,222,-459,-6,-122,242,474,-108,1,0,33,5,960,1,53298,1
1,30341,30513,31456,49613,7019,-4615,-952,212,-286,101,34,238,466,-90,1,0,33,6,0,0,53298,1
2,30351,30514,31454,49614,7026,-4566,-970,158,92,112,48,236,470,-104,1,0,33,6,40,0,53298,1
2,30371,30590,31457,49615,7034,-4504,-998,206,503,183,116,234,472,-100,1,0,33,6,80,0,53298,1
2,30561,30627,31485,49616,7043,-4578,-1036,326,767,7,642,236,476,-110,1,0,33,6,120,0,53298,1
2,30675,30584,31497,49617,7053,-4669,-953,436,975,-550,1136,237,479,-97,1,0,33,6,160,0,53298,1
2,30686,30095,31488,49618,7062,-4843,-955,-16,848,-771,515,232,482,-102,1,0,33,6,200,0,53298,1
2,30696,30670,31474,49619,7073,-4633,-1080,303,331,-743,61,232,474,-98,1,0,33,6,240,0,53298,1
2,30644,30895,31468,49620,7083,-4544,-486,-126,443,-545,129,232,482,-104,1,0,33,6,280,0,53298,1
2,30628,29845,31477,49621,7093,-4505,-592,-38,400,-113,98,236,474,-108,1,0,33,6,320,0,53298,1
2,30627,30347,31484,49622,7102,-4478,-345,-274,278,456,-134,242,474,-114,1,0,33,6,360,0,53298,1
2,30682,30543,31507,49623,7112,-4794,-3729,1951,-583,92,108,236,476,-106,1,0,33,6,400,0,53298,1
2,30606,30180,31501,49624,7123,-4594,-75,-626,-14,-802,298,224,466,-104,1,0,33,6,440,0,53298,1
2,30568,30040,31491,49625,7133,-4412,-611,-97,435,-458,145,232,474,-98,1,0,33,6,480,0,53298,1
2,30569,30074,31464,49626,7142,-4441,-390,-279,-21,451,-297,235,473,-99,1,0,33,6,520,0,53298,1
2,30491,30036,31473,49627,7151,-5069,-740,-33,357,1411,-315,244,474,-104,1,0,33,6,560,0,53298,1
2,30604,30093,31476,49628,7161,-4296,-1110,2328,-723,-436,57,240,468,-104,1,0,33,6,600,0,53298,1
2,30660,30201,31495,49629,7171,-4729,-92,-1504,528,-846,570,235,471,-107,1,0,33,6,640,0,53298,1
2,30578,30128,31468,49630,7181,-4456,-545,-11,-372,-289,18,232,470,-100,1,0,33,6,680,0,53298,1
2,30624,30180,31473,49631,7191,-4438,-347,-336,244,654,-306,234,476,-106,1,0,33,6,720,0,53298,1
2,30611,30170,31490,49632,7201,-4463,-3165,1893,-390,105,41,233,473,-101,1,0,33,6,760,0,53298,1
2,30564,30230,31487,49633,7212,-4564,91,-722,450,-673,303,232,468,-106,1,0,33,6,800,0,53298,1
2,30503,30205,31450,49634,7223,-4316,-530,-276,-191,-212,49,237,469,-93,1,0,33,6,840,0,53298,1
2,30449,30640,31436,49635,7231,-4490,-371,-290,-29,661,-309,228,478,-104,1,0,33,6,880,0,53298,1
2,30480,30510,31447,49636,7241,-5200,-3107,1565,-239,946,-194,236,476,-108,1,0,33,6,920,0,53298,1
2,30557,29969,31460,49637,7241,-4497,-769,690,435,-915,319,234,476,-98,1,0,33,6,960,0,53298,1
1,30547,29777,31465,49638,6555,-4367,-243,-780,-108,-311,356,233,467,-107,1,0,33,7,0,1,53298,1
2,30463,29979,31458,49639,6565,-4593,-694,79,-426,138,-221,229,485,-101,1,0,33,7,40,1,53298,1
2,30490,30042,31476,49640,6575,-4963,-1232,220,240,1001,-330,239,473,-107,1,0,33,7,80,1,53298,1
2,30596,30050,31481,49641,6585,-4598,-1053,1653,141,-691,251,241,467,-107,1,0,33,7,120,1,53298,1
2,30695,30064,31481,49642,6595,-4602,-150,-1130,179,-503,475,233,473,-103,1,0,33,7,160,1,53298,1
2,30640,30160,31470,49643,6605,-4550,-616,42,-538,-42,-150,237,479,-107,1,0,33,7,200,1,53298,1
2,30632,30210,31484,49644,6615,-4988,-1221,630,18,632,-235,229,479,-103,1,0,33,7,240,1,53298,1
2,30669,30325,31498,49645,6626,-4606,-1188,1073,270,-746,278,237,471,-105,1,0,33,7,280,1,53298,1
2,30658,30319,31496,49646,6636,-4408,82,-690,279,-491,372,236,478,-98,1,0,33,7,320,1,53298,1
2,30586,30206,31471,49647,6646,-4519,-578,-29,-648,124,-263,225,471,-99,1,0,33,7,360,1,53298,1
2,30607,30174,31473,49648,6655,-4655,-360,-428,376,1082,-302,238,478,-100,1,0,33,7,400,1,53298,1
2,30619,30189,31484,49649,6666,-4216,-1947,2095,-336,-90,31,228,480,-102,1,0,33,7,440,1,53298,1
2,30769,30331,31493,49650,6677,-4621,-89,-1027,543,-709,478,229,483,-95,1,0,33,7,480,1,53298,1
2,30620,30076,31465,49651,6687,-4416,-569,-117,-524,-164,12,238,476,-110,1,0,33,7,520,1,53298,1
2,30618,30035,31470,49652,6696,-4580,-452,-240,74,723,-326,235,477,-109,1,0,33,7,560,1,53298,1
2,30660,30032,31486,49653,6706,-4516,-2308,1810,-234,-19,-17,231,471,-91,1,0,33,7,600,1,53298,1
2,30815,29830,31488,49654,6717,-4610,-121,-695,617,-821,457,231,479,-103,1,0,33,7,640,1,53298,1
2,30773,29914,31481,49655,6728,-4332,-595,-305,-460,-289,100,237,471,-95,1,0,33,7,680,1,53298,1
2,30764,30043,31479,49656,6737,-4428,-425,-310,30,658,-353,230,478,-100,1,0,33,7,720,1,53298,1
2,30839,30055,31501,49657,6747,-4746,-3226,1890,-147,296,-7,230,470,-100,1,0,33,7,760,1,53298,1
2,30864,30008,31505,49658,6757,-4541,-229,-458,562,-666,322,235,481,-111,1,0,33,7,800,1,53298,1
2,30825,30159,31494,49659,6766,-4322,-555,-267,-342,-239,96,234,474,-106,1,0,33,7,840,1,53298,1
2,30800,30185,31486,49660,6774,-4447,-466,-321,-76,559,-299,241,479,-103,1,0,33,7,880,1,53298,1
2,30832,30161,31492,49661,6782,-5022,-3076,1744,-132,459,-59,233,475,-99,1,0,33,7,920,1,53298,1
2,30652,30217,31487,49662,6782,-4568,-432,-109,482,-727,307,236,476,-104,1,0,33,7,960,1,53298,1
1,30626,30257,31478,49663,6090,-4337,-521,-334,-240,-268,199,236,476,-110,1,0,33,8,0,1,53298,1
2,30595,30044,31470,49664,6098,-4490,-523,-163,-153,399,-250,237,473,-99,1,0,33,8,40,1,53298,1
2,30629,30116,31497,49665,6108,-4750,-2889,1721,-150,105,-19,235,475,-111,1,0,33,8,80,1,53298,1
2,30585,30440,31501,49666,6120,-4477,-104,-515,499,-894,450,233,479,-101,1,0,33,8,120,1,53298,1
2,30574,29887,31480,49667,6130,-4314,-552,-339,-259,-424,176,231,477,-105,1,0,33,8,160,1,53298,1
2,30539,29842,31458,49668,6139,-4372,-315,-478,-13,811,-463,234,466,-106,1,0,33,8,200,1,53298,1
2,30508,29852,31464,49669,6148,-5496,-3682,2200,-68,845,-100,230,478,-92,1,0,33,8,240,1,53298,1
2,30579,29784,31481,49670,6158,-4597,-631,189,316,-818,236,237,473,-105,1,0,33,8,280,1,53298,1
2,30577,29758,31469,49671,6167,-4291,-314,-497,10,-418,296,224,480,-94,1,0,33,8,320,1,53298,1
2,30464,29794,31449,49672,6176,-4507,-551,-80,-403,366,-268,234,476,-108,1,0,33,8,360,1,53298,1
2,30520,29744,31458,49673,6184,-5092,-1354,65,404,1404,-362,237,477,-103,1,0,33,8,400,1,53298,1
2,30598,29756,31458,49674,6193,-4500,-726,2043,-47,-366,25,237,477,-103,1,0,33,8,440,1,53298,1
2,30646,29799,31462,49675,6203,-4701,-394,-1094,205,-521,580,230,476,-102,1,0,33,8,480,1,53298,1
2,30526,29788,31440,49676,6211,-4608,-713,61,-777,-10,-47,239,473,-93,1,0,33,8,520,1,53298,1
2,30439,29795,31445,49677,6219,-4600,-871,-44,-107,678,-405,241,477,-107,1,0,33,8,560,1,53298,1
2,30522,29768,31468,49678,6229,-4547,-1691,1725,62,-108,29,237,475,-105,1,0,33,8,600,1,53298,1
2,30639,29821,31463,49679,6240,-4674,-193,-628,324,-769,535,229,475,-93,1,0,33,8,640,1,53298,1
2,30630,29999,31457,49680,6250,-4418,-721,-217,-494,-134,44,240,470,-100,1,0,33,8,680,1,53298,1
2,30610,30063,31461,49681,6260,-4780,-1056,573,89,270,-198,241,477,-105,1,0,33,8,720,1,53298,1
2,30554,30020,31465,49682,6271,-4604,-942,469,258,-343,198,239,471,-107,1,0,33,8,760,1,53298,1
2,30535,29864,31460,49683,6281,-4467,-389,-189,370,-274,187,231,479,-105,1,0,33,8,800,1,53298,1
2,30547,29902,31450,49684,6289,-4554,-756,-37,-321,195,-143,237,481,-105,1,0,33,8,840,1,53298,1
2,30596,29836,31465,49685,6299,-5141,-1477,794,89,703,-171,234,474,-106,1,0,33,8,880,1,53298,1
2,30595,29849,31469,49686,6307,-4762,-911,847,10,-690,227,226,476,-100,1,0,33,8,920,1,53298,1
2,30590,29835,31467,49687,6307,-4392,-244,-610,442,-449,366,236,474,-98,1,0,33,8,960,1,53298,1
1,30502,29856,31445,49688,5625,-4567,-616,20,-430,145,-220,221,469,-97,1,0,33,9,0,1,53298,1
2,30440,29820,31447,49689,5632,-4781,-644,-410,314,1160,-363,232,472,-100,1,0,33,9,40,1,53298,1
2,30485,30057,31441,49690,5640,-4404,-1527,1534,-139,540,-373,235,475,-105,1,0,33,9,80,1,53298,1
2,30550,29969,31449,49691,5648,-4623,-688,-31,164,-291,323,238,478,-106,1,0,33,9,120,1,53298,1
2,30567,29914,31453,49692,5656,-4727,-812,-206,-1274,118,11,230,474,-98,1,0,33,9,160,1,53298,1
2,30545,29877,31445,49693,5664,-4495,-943,330,-1062,95,-308,233,477,-115,1,0,33,9,200,1,53298,1
2,30537,29974,31435,49694,5671,-4539,-1018,91,1,328,-285,232,478,-96,1,0,33,9,240,1,53298,1
2,30454,29774,31412,49695,5679,-4651,-840,352,200,269,-258,243,471,-109,1,0,33,9,280,1,53298,1
2,30459,29969,31444,49696,5687,-4877,-514,-21,-859,102,-291,238,468,-108,1,0,33,9,320,1,53298,1
2,30466,29850,31437,49697,5695,-4581,-1131,258,-1514,-167,-235,247,473,-103,1,0,33,9,360,1,53298,1
2,30469,30321,31446,49698,5703,-4385,-965,279,-569,-70,-106,242,472,-106,1,0,33,9,400,1,53298,1
2,30489,30609,31452,49699,5710,-4577,-960,164,-276,37,-5,248,480,-108,1,0,33,9,440,1,53298,1
2,30456,30565,31455,49700,5718,-4762,-822,100,-1016,-5,-102,237,475,-101,1,0,33,9,480,1,53298,1
2,30431,30611,31448,49701,5725,-4646,-954,149,-1990,-114,-332,246,472,-102,1,0,33,9,520,1,53298,1
2,30440,30616,31453,49702,5732,-4427,-1121,167,-1165,-38,-228,245,471,-113,1,0,33,9,560,1,53298,1
2,30460,30604,31455,49703,5740,-4458,-1048,163,-173,118,-91,243,477,-109,1,0,33,9,600,1,53298,1
2,30457,30177,31458,49704,5749,-5141,-478,-331,-964,46,-103,235,467,-105,1,0,33,9,640,1,53298,1
2,30441,30626,31451,49705,5757,-4917,-1040,211,-1039,-22,-139,253,473,-115,1,0,33,9,680,1,53298,1
2,30438,30627,31446,49706,5764,-4224,-1018,459,728,-27,178,244,462,-122,1,0,33,9,720,1,53298,1
2,30454,30625,31454,49707,5771,-4055,-1254,264,298,-61,183,248,468,-114,1,0,33,9,760,1,53298,1
2,30465,30627,31470,49708,5779,-4251,-1149,165,869,440,200,248,472,-114,1,0,33,9,800,1,53298,1
2,30420,30625,31471,49709,5787,-5870,-207,-454,-356,380,-11,244,474,-116,1,0,33,9,840,1,53298,1
2,30400,30624,31451,49710,5795,-5007,-959,248,-163,-65,-152,241,463,-115,1,0,33,9,880,1,53298,1
2,30477,30623,31454,49711,5802,-4103,-985,371,922,-226,33,249,475,-107,1,0,33,9,920,1,53298,1
2,30490,30627,31467,49712,5802,-3958,-1413,268,127,-50,117,240,470,-114,1,0,33,9,960,1,53298,1
1,30524,30619,31471,49713,5160,-5683,-131,-716,-1790,39,-66,249,481,-103,1,0,33,10,0,0,53298,1
2,30450,30623,31449,49714,5168,-5381,-987,172,-331,195,108,245,477,-119,1,0,33,10,40,0,53298,1
2,30467,30625,31440,49715,5176,-3891,-915,622,2769,105,647,242,476,-114,1,0,33,10,80,0,53298,1
2,30481,30626,31451,49716,5182,-3513,-1362,522,410,-180,477,248,476,-114,1,0,33,10,120,0,53298,1
2,30546,30626,31477,49717,5189,-3238,-1877,680,964,325,122,249,475,-113,1,0,33,10,160,0,53298,1
2,30542,30625,31496,49718,5196,-6508,121,-1180,-2660,530,-500,243,483,-109,1,0,33,10,200,0,53298,1
2,30451,30621,31461,49719,5202,-5495,-779,508,156,440,-223,238,474,-104,1,0,33,10,240,0,53298,1
2,30423,30619,31454,49720,5209,-4035,-792,433,2390,-464,123,243,477,-117,1,0,33,10,280,0,53298,1
2,30449,30619,31477,49721,5216,-3736,-1493,141,246,-313,154,245,475,-113,1,0,33,10,320,0,53298,1
2,30541,30625,31491,49722,5223,-5460,-462,-514,-1918,116,-91,250,470,-116,1,0,33,10,360,0,53298,1
2,30500,30611,31469,49723,5230,-5461,-763,298,-644,76,-142,241,469,-115,1,0,33,10,400,0,53298,1
2,30473,30608,31451,49724,5236,-4061,-909,503,1727,-156,216,246,468,-118,1,0,33,10,440,0,53298,1
2,30476,30611,31453,49725,5243,-3524,-1462,304,599,-182,259,245,477,-119,1,0,33,10,480,0,53298,1
2,30517,30573,31491,49726,5250,-4312,-825,-371,-536,269,-75,247,477,-119,1,0,33,10,520,0,53298,1
2,30490,30371,31470,49727,5257,-6231,-807,-203,-2858,444,-491,255,479,-109,1,0,33,10,560,0,53298,1
2,30386,30241,31433,49728,5264,-4559,-637,650,2099,87,50,245,473,-111,1,0,33,10,600,0,53298,1
2,30380,30349,31430,49729,5270,-3476,-1227,490,1740,-497,488,244,474,-122,1,0,33,10,640,0,53298,1
2,30440,30297,31477,49730,5278,-2902,-2173,717,1097,71,337,233,459,-105,1,0,33,10,680,0,53298,1
2,30470,30426,31508,49731,5286,-6800,226,-1606,-4491,314,-535,248,476,-112,1,0,33,10,720,0,53298,1
2,30384,30321,31452,49732,5294,-5987,-730,557,-96,611,-324,243,481,-117,1,0,33,10,760,0,53298,1
2,30381,30203,31429,49733,5301,-3896,-634,724,3596,-400,356,246,466,-118,1,0,33,10,800,0,53298,1
2,30377,30309,31434,49734,5307,-3064,-1726,402,813,-538,456,237,477,-105,1,0,33,10,840,0,53298,1
2,30453,30253,31487,49735,5314,-3938,-1028,-487,-1065,69,-67,249,477,-111,1,0,33,10,880,0,53298,1
2,30433,30582,31481,49736,5321,-6874,-689,-399,-3585,689,-427,246,478,-116,1,0,33,10,920,0,53298,1
2,30400,30616,31442,49737,5321,-4936,-499,709,2172,80,-57,236,476,-112,1,0,33,10,960,0,53298,1
1,30435,30615,31438,49738,4696,-3522,-1168,454,2185,-661,394,242,476,-114,1,0,33,11,0,0,53298,1
2,30463,30618,31477,49739,4704,-3123,-2073,450,541,-31,277,241,481,-121,1,0,33,11,40,0,53298,1
2,30461,30612,31497,49740,4712,-6487,117,-1211,-3401,373,-303,240,476,-110,1,0,33,11,80,0,53298,1
2,30386,30441,31459,49741,4721,-5649,-810,476,-245,314,-238,247,475,-113,1,0,33,11,120,0,53298,1
2,30378,30380,31443,49742,4729,-3961,-775,509,2396,-440,246,244,482,-108,1,0,33,11,160,0,53298,1
2,30372,30474,31458,49743,4737,-3227,-1724,315,738,-315,288,234,476,-112,1,0,33,11,200,0,53298,1
2,30403,30500,31506,49744,4744,-3645,-1298,249,988,383,124,239,479,-117,1,0,33,11,240,0,53298,1
2,30392,30594,31476,49745,4752,-7623,-257,-244,-2525,589,78,248,472,-112,1,0,33,11,280,0,53298,1
2,30367,30556,31449,49746,4759,-4423,-1025,336,927,-457,-194,241,479,-117,1,0,33,11,320,0,53298,1
2,30411,30604,31468,49747,4767,-3716,-1186,169,1051,-560,202,240,472,-104,1,0,33,11,360,0,53298,1
2,30492,30520,31486,49748,4775,-4438,-1130,194,-604,88,568,236,476,-114,1,0,33,11,400,0,53298,1
2,30647,30622,31498,49749,4786,-4720,-865,985,2051,-325,1591,238,484,-112,1,0,33,11,440,0,53298,1
2,30679,30348,31491,49750,4796,-5026,-761,-478,2078,-1235,785,235,479,-121,1,0,33,11,480,0,53298,1
2,30641,30554,31495,49751,4807,-4325,-415,-238,447,-872,-239,223,475,-97,1,0,33,11,520,0,53298,1
2,30630,30601,31482,49752,4818,-4500,-454,-66,677,-366,1,233,473,-107,1,0,33,11,560,0,53298,1
2,30635,29770,31462,49753,4829,-5004,-1350,712,599,141,23,222,480,-100,1,0,33,11,600,0,53298,1
2,30743,29948,31455,49754,4842,-4709,-721,219,-468,-846,319,232,482,-110,1,0,33,11,640,0,53298,1
2,30690,29799,31474,49755,4854,-4349,-10,-692,-79,-595,288,235,477,-109,1,0,33,11,680,0,53298,1
2,30586,29928,31445,49756,4865,-4619,-1141,288,-631,492,-367,232,482,-92,1,0,33,11,720,0,53298,1
2,30667,30434,31483,49757,4877,-4862,-1128,771,347,796,-139,228,486,-102,1,0,33,11,760,0,53298,1
2,30726,30543,31501,49758,4890,-4591,-1402,1113,-742,-816,205,228,476,-98,1,0,33,11,800,0,53298,1
2,30843,30622,31565,49759,4902,-4270,49,-818,656,-1462,709,237,489,-97,1,0,33,11,840,0,53298,1
2,30753,30575,31535,49760,4914,-4445,-189,-426,-170,95,-246,229,479,-97,1,0,33,11,880,0,53298,1
2,30646,30546,31491,49761,4924,-4362,-77,-586,1123,1445,-650,227,471,-105,1,0,33,11,920,0,53298,1
2,30716,30523,31522,49762,4924,-6181,-4742,2940,19,997,161,231,475,-111,1,0,33,11,960,0,53298,1
1,30844,30242,31526,49763,4233,-4575,-363,-288,-1001,-1468,182,226,474,-106,1,0,33,12,0,0,53298,1
2,30816,30399,31505,49764,4244,-4052,141,-767,1030,-1008,679,236,478,-104,1,0,33,12,40,0,53298,1
2,30739,30487,31477,49765,4254,-4464,-554,-95,-954,1034,-682,244,478,-112,1,0,33,12,80,0,53298,1
2,30797,30481,31505,49766,4264,-5732,-2423,1527,811,1346,21,227,473,-103,1,0,33,12,120,0,53298,1
2,30909,30345,31520,49767,4275,-4703,-806,1290,-349,-1200,93,227,481,-107,1,0,33,12,160,0,53298,1
2,30912,30431,31506,49768,4286,-4206,553,-1386,515,-1043,703,230,476,-106,1,0,33,12,200,0,53298,1
2,30877,30593,31481,49769,4296,-4482,-519,-17,-1031,526,-592,235,473,-111,1,0,33,12,240,0,53298,1
2,30884,30546,31493,49770,4306,-5007,-414,135,751,1436,-86,235,475,-103,1,0,33,12,280,0,53298,1
2,30938,30567,31505,49771,4317,-4150,-1479,2082,-244,-404,90,228,470,-104,1,0,33,12,320,0,53298,1
2,30981,30583,31495,49772,4329,-4483,590,-1268,475,-660,393,231,477,-109,1,0,33,12,360,0,53298,1
2,30925,30588,31475,49773,4339,-4387,-303,-338,-662,-27,-185,235,475,-97,1,0,33,12,400,0,53298,1
2,30947,30553,31490,49774,4348,-4893,-412,-109,56,1279,-290,229,481,-105,1,0,33,12,440,0,53298,1
2,31002,30555,31514,49775,4359,-4298,-1899,2456,-253,-388,150,238,472,-110,1,0,33,12,480,0,53298,1
2,31035,30551,31509,49776,4370,-4561,468,-1565,879,-1149,548,231,477,-105,1,0,33,12,520,0,53298,1
2,30986,30558,31483,49777,4378,-4151,-129,-640,-595,-370,0,231,473,-107,1,0,33,12,560,0,53298,1
2,30986,30557,31487,49778,4387,-4555,-213,-451,-150,1405,-526,228,474,-98,1,0,33,12,600,0,53298,1
2,31046,30555,31500,49779,4397,-4261,-3885,2736,-555,298,127,234,480,-100,1,0,33,12,640,0,53298,1
2,31084,30543,31506,49780,4407,-4625,169,-1266,1291,-1320,441,229,469,-101,1,0,33,12,680,0,53298,1
2,31036,30421,31480,49781,4416,-4031,-133,-710,-225,-544,225,232,476,-104,1,0,33,12,720,0,53298,1
2,31017,30179,31467,49782,4425,-4492,-184,-379,-748,1121,-544,225,475,-105,1,0,33,12,760,0,53298,1
2,31034,30032,31486,49783,4435,-5115,-4520,2049,-564,1179,-81,233,471,-103,1,0,33,12,800,0,53298,1
2,31101,30093,31499,49784,4446,-4595,-834,727,1570,-1219,354,236,474,-98,1,0,33,12,840,0,53298,1
2,31072,30047,31490,49785,4456,-4198,275,-988,-5,-452,397,231,481,-105,1,0,33,12,880,0,53298,1
2,31043,30030,31466,49786,4466,-4553,-482,-67,-964,220,-367,232,478,-102,1,0,33,12,920,0,53298,1
2,31052,29944,31480,49787,4466,-5340,-1679,740,12,1237,-266,230,474,-120,1,0,33,12,960,0,53298,1
1,31099,29961,31493,49788,3769,-4642,-971,1656,471,-740,227,227,475,-95,1,0,33,13,0,0,53298,1
2,31088,29966,31491,49789,3779,-4477,77,-1158,440,-607,440,229,475,-113,1,0,33,13,40,0,53298,1
2,31065,30215,31472,49790,3789,-4436,-448,-125,-828,-130,-109,237,469,-113,1,0,33,13,80,0,53298,1
2,31068,30310,31487,49791,3799,-4614,-355,-343,119,889,-283,234,474,-102,1,0,33,13,120,0,53298,1
2,31111,30255,31495,49792,3810,-4282,-2086,1957,-187,-127,77,232,478,-106,1,0,33,13,160,0,53298,1
2,31119,30289,31500,49793,3820,-4583,207,-947,827,-779,397,235,481,-111,1,0,33,13,200,0,53298,1
2,31082,30062,31480,49794,3831,-4296,-470,-352,-529,-230,14,234,478,-106,1,0,33,13,240,0,53298,1
2,31115,30270,31504,49795,3842,-4797,-769,416,-220,594,-238,233,479,-103,1,0,33,13,280,0,53298,1
2,31146,30281,31519,49796,3855,-4692,-1884,1188,-89,-475,167,234,478,-108,1,0,33,13,320,0,53298,1
2,31139,30313,31503,49797,3868,-4403,452,-708,822,-848,544,223,479,-107,1,0,33,13,360,0,53298,1
2,31092,30316,31479,49798,3878,-4435,-310,-255,-662,58,-232,235,477,-101,1,0,33,13,400,0,53298,1
2,31110,29997,31492,49799,3889,-4822,-454,320,300,1093,-294,228,468,-108,1,0,33,13,440,0,53298,1
2,31131,29977,31500,49800,3900,-4527,-1836,1318,-246,-326,144,241,473,-113,1,0,33,13,480,0,53298,1
2,31116,29872,31493,49801,3911,-4402,324,-847,949,-597,442,234,474,-114,1,0,33,13,520,0,53298,1
2,31090,30250,31474,49802,3922,-4474,-507,-27,-643,37,-186,226,476,-102,1,0,33,13,560,0,53298,1
2,31065,30255,31473,49803,3932,-4574,-136,-630,292,1106,-291,226,480,-108,1,0,33,13,600,0,53298,1
2,31091,30070,31484,49804,3942,-4796,-3790,2164,-434,673,-30,235,479,-103,1,0,33,13,640,0,53298,1
2,31116,30071,31493,49805,3952,-4656,-606,28,810,-1019,360,221,479,-105,1,0,33,13,680,0,53298,1
2,31093,30048,31485,49806,3962,-4288,-99,-607,-23,-376,299,235,471,-101,1,0,33,13,720,0,53298,1
2,31066,30053,31461,49807,3971,-4534,-529,13,-382,249,-263,236,478,-102,1,0,33,13,760,0,53298,1
2,31081,30011,31481,49808,3981,-5176,-1638,539,103,1077,-240,231,483,-107,1,0,33,13,800,0,53298,1
2,31131,30010,31499,49809,3991,-4684,-1294,1881,223,-826,277,228,474,-110,1,0,33,13,840,0,53298,1
2,31123,30000,31497,49810,4003,-4437,311,-1391,148,-761,474,238,486,-106,1,0,33,13,880,0,53298,1
2,31086,30088,31473,49811,4013,-4369,-359,-176,-581,-204,-142,233,469,-103,1,0,33,13,920,0,53298,1
2,31068,30080,31469,49812,4013,-4507,-202,-612,380,1098,-356,231,483,-107,1,0,33,13,960,0,53298,1
1,31089,30000,31490,49813,3305,-4725,-3710,2120,-485,722,-98,230,474,-100,1,0,33,14,0,1,53298,1
2,31132,30016,31495,49814,3315,-4693,-826,331,879,-1210,414,232,470,-100,1,0,33,14,40,1,53298,1
2,31104,30013,31479,49815,3326,-4274,51,-784,-358,-503,375,232,472,-100,1,0,33,14,80,1,53298,1
2,31067,30074,31460,49816,3335,-4464,-354,-141,-445,285,-355,223,469,-93,1,0,33,14,120,1,53298,1
2,31070,29987,31476,49817,3345,-5265,-1450,248,428,1441,-284,234,482,-104,1,0,33,14,160,1,53298,1
2,31129,29998,31499,49818,3356,-4673,-1104,2390,54,-649,158,235,477,-99,1,0,33,14,200,1,53298,1
2,31133,30036,31506,49819,3368,-4606,86,-1647,137,-1113,605,224,482,-112,1,0,33,14,240,1,53298,1
2,31110,29972,31486,49820,3380,-4302,-426,-216,-695,-536,81,228,476,-100,1,0,33,14,280,1,53298,1
2,31153,29877,31515,49821,3391,-4961,-1491,1032,159,467,-259,231,483,-105,1,0,33,14,320,1,53298,1
2,31192,32208,31500,49822,3403,-4518,-1231,686,154,-867,393,233,479,-111,1,0,33,14,360,1,53298,1
2,31198,29855,31521,49823,3416,-4218,240,-508,431,-1365,652,229,479,-107,1,0,33,14,400,1,53298,1
2,31121,30295,31504,49824,3427,-4385,-338,-393,-755,394,-495,226,478,-90,1,0,33,14,440,1,53298,1
2,31116,30212,31489,49825,3437,-4383,217,-607,556,1828,-743,232,480,-104,1,0,33,14,480,1,53298,1
2,31155,30262,31517,49826,3448,-4984,-5217,2974,-522,277,352,235,477,-91,1,0,33,14,520,1,53298,1
2,31164,30344,31517,49827,3459,-4514,457,-1240,2,-1130,254,228,472,-108,1,0,33,14,560,1,53298,1
2,31129,30353,31495,49828,3468,-4115,-92,-488,143,-621,198,223,469,-105,1,0,33,14,600,1,53298,1
2,31077,30333,31467,49829,3478,-4453,-317,-510,-402,1256,-594,230,480,-98,1,0,33,14,640,1,53298,1
2,31109,30288,31489,49830,3487,-5979,-3731,2086,235,1485,-17,226,474,-102,1,0,33,14,680,1,53298,1
2,31159,30218,31506,49831,3498,-4798,-948,1680,276,-1277,225,229,479,-101,1,0,33,14,720,1,53298,1
2,31134,30172,31492,49832,3508,-4226,756,-1580,14,-1007,606,234,474,-104,1,0,33,14,760,1,53298,1
2,31074,30137,31460,49833,3518,-4347,-39,-419,-924,308,-486,227,471,-99,1,0,33,14,800,1,53298,1
2,31071,30077,31477,49834,3527,-5021,-491,-132,893,1862,-304,225,469,-109,1,0,33,14,840,1,53298,1
2,31124,30019,31483,49835,3537,-4118,-1660,2579,-459,-144,23,229,473,-101,1,0,33,14,880,1,53298,1
2,31122,30037,31489,49836,3548,-4770,-57,-1373,892,-965,516,237,481,-105,1,0,33,14,920,1,53298,1
2,31088,30068,31465,49837,3548,-4211,-352,-430,-790,-321,32,234,474,-108,1,0,33,14,960,1,53298,1
1,31072,30077,31466,49838,2841,-4494,-173,-371,-186,871,-5,231,473,-103,1,0,33,15,0,1,53298,1
2,31106,29980,31488,49839,2851,-4709,-3836,1958,-505,615,423,227,475,-101,1,0,33,15,40,1,53298,1
2,31130,29991,31492,49840,2861,-4790,-756,252,1357,-1184,328,224,470,-110,1,0,33,15,80,1,53298,1
2,31097,29999,31477,49841,2872,-4261,7,-778,-383,-535,-360,231,477,-105,1,0,33,15,120,1,53298,1
2,31070,29982,31464,49842,2881,-4450,-333,-223,-595,353,-108,236,474,-106,1,0,33,15,160,1,53298,1
2,31098,29938,31481,49843,2891,-5548,-2707,1392,0,1113,223,232,476,-100,1,0,33,15,200,1,53298,1
2,31129,29964,31490,49844,2901,-4754,-927,1219,549,-880,370,229,471,-99,1,0,33,15,240,1,53298,1
2,31115,29985,31480,49845,2912,-4265,334,-1054,384,-552,-246,229,475,-103,1,0,33,15,280,1,53298,1
2,31070,29951,31460,49846,2921,-4505,-442,-144,-869,90,-262,224,470,-104,1,0,33,15,320,1,53298,1
2,31080,29918,31472,49847,2929,-4969,-636,36,246,1215,143,237,481,-101,1,0,33,15,360,1,53298,1
2,31123,29906,31488,49848,2940,-4545,-1320,2121,-56,-414,458,229,479,-105,1,0,33,15,400,1,53298,1
2,31122,29932,31489,49849,2950,-4607,187,-1286,727,-854,-11,243,481,-101,1,0,33,15,440,1,53298,1
2,31091,29876,31463,49850,2960,-4323,-478,-250,-733,-305,-307,236,470,-112,1,0,33,15,480,1,53298,1
2,31080,29891,31466,49851,2969,-4459,-255,-425,50,778,29,237,477,-105,1,0,33,15,520,1,53298,1
2,31109,29847,31479,49852,2979,-4664,-3412,1844,-298,342,288,238,472,-100,1,0,33,15,560,1,53298,1
2,31119,29860,31480,49853,2990,-4585,-223,-384,814,-758,136,229,473,-105,1,0,33,15,600,1,53298,1
2,31089,29869,31468,49854,3000,-4277,-496,-381,-288,-279,-268,227,481,-101,1,0,33,15,640,1,53298,1
2,31088,29884,31473,49855,3010,-4477,-406,-198,-303,454,25,232,472,-104,1,0,33,15,680,1,53298,1
2,31120,29843,31487,49856,3021,-4929,-3236,1732,-110,302,316,225,481,-97,1,0,33,15,720,1,53298,1
2,31136,29897,31494,49857,3033,-4542,-371,-163,615,-909,281,233,471,-105,1,0,33,15,760,1,53298,1
2,31120,29970,31484,49858,3045,-4228,-347,-445,-150,-559,447,233,477,-107,1,0,33,15,800,1,53298,1
2,31089,30011,31467,49859,3055,-4431,-490,-222,-341,463,-313,235,477,-105,1,0,33,15,840,1,53298,1
2,31114,30075,31485,49860,3066,-5328,-1947,1324,369,864,-120,231,477,-97,1,0,33,15,880,1,53298,1
2,31133,30066,31489,49861,3077,-4719,-789,651,-143,-522,251,232,480,-104,1,0,33,15,920,1,53298,1
2,31116,30075,31488,49862,3077,-4310,-89,-574,295,-453,111,229,471,-95,1,0,33,15,960,1,53298,1
1,31093,30126,31470,49863,2377,-4567,-643,60,-498,652,-159,234,476,-104,1,0,33,16,0,0,53298,1
2,31099,30145,31486,49864,2387,-4817,-935,413,270,-197,136,228,470,-108,1,0,33,16,40,0,53298,1
2,31130,30130,31492,49865,2398,-4670,-1421,1083,-93,-500,241,230,476,-94,1,0,33,16,80,0,53298,1
2,31129,30139,31494,49866,2410,-4464,-155,-530,70,-188,38,234,478,-86,1,0,33,16,120,0,53298,1
2,31106,30147,31480,49867,2419,-4418,-598,-67,-270,513,-193,232,472,-108,1,0,33,16,160,0,53298,1
2,31099,30154,31474,49868,2429,-4460,-498,-355,346,284,53,231,477,-103,1,0,33,16,200,0,53298,1
2,31120,30128,31491,49869,2439,-5118,-2866,1700,9,-512,185,234,470,-110,1,0,33,16,240,0,53298,1
2,31124,30106,31489,49870,2449,-4555,-252,-296,-9,-231,93,232,474,-106,1,0,33,16,280,0,53298,1
2,31107,30137,31481,49871,2459,-4305,-539,-208,64,419,-181,234,472,-104,1,0,33,16,320,0,53298,1
2,31076,30122,31461,49872,2468,-4507,-554,-204,-32,911,-192,233,475,-105,1,0,33,16,360,0,53298,1
2,31100,30134,31482,49873,2477,-5182,-1954,988,94,-703,194,228,468,-112,1,0,33,16,400,0,53298,1
2,31123,30077,31487,49874,2486,-4741,-944,1143,-86,-414,349,225,483,-93,1,0,33,16,440,0,53298,1
2,31104,30066,31482,49875,2496,-4382,-134,-911,366,-40,-150,226,474,-94,1,0,33,16,480,0,53298,1
2,31083,30108,31472,49876,2505,-4600,-657,132,-461,757,-213,227,481,-99,1,0,33,16,520,0,53298,1
2,31083,30112,31479,49877,2514,-4619,-465,-309,321,-92,41,233,471,-103,1,0,33,16,560,0,53298,1
2,31111,30084,31483,49878,2523,-4450,-1757,1499,-268,-458,293,226,482,-108,1,0,33,16,600,0,53298,1
2,31111,30085,31485,49879,2533,-4596,-328,-520,225,-219,38,223,469,-99,1,0,33,16,640,0,53298,1
2,31099,30054,31477,49880,2543,-4428,-594,-70,-343,145,-85,229,475,-97,1,0,33,16,680,0,53298,1
2,31125,30062,31494,49881,2553,-4801,-1256,625,74,82,206,229,481,-103,1,0,33,16,720,0,53298,1
2,31140,30056,31499,49882,2564,-4660,-1174,544,173,-280,294,227,479,-113,1,0,33,16,760,0,53298,1
2,31137,30053,31496,49883,2575,-4439,-202,-220,266,-746,-76,226,474,-108,1,0,33,16,800,0,53298,1
2,31109,30096,31482,49884,2585,-4516,-570,-70,-202,247,-303,232,478,-108,1,0,33,16,840,0,53298,1
2,31077,30056,31468,49885,2594,-4395,-156,-538,345,594,3,223,475,-101,1,0,33,16,880,0,53298,1
2,31107,30032,31484,49886,2603,-5652,-3418,1971,-318,931,185,229,477,-113,1,0,33,16,920,0,53298,1
2,31127,30044,31487,49887,2603,-4771,-940,595,-169,-780,321,229,479,-105,1,0,33,16,960,0,53298,1
1,31119,30063,31487,49888,1914,-4306,-8,-570,-464,-146,-81,222,474,-100,1,0,33,17,0,1,53298,1
2,31142,30061,31495,49889,1926,-4848,-1059,735,154,-369,209,227,473,-101,1,0,33,17,40,1,53298,1
2,31155,30077,31500,49890,1937,-4607,-1119,164,450,-417,228,231,483,-95,1,0,33,17,80,1,53298,1
2,31148,30052,31499,49891,1950,-4486,-299,14,-289,203,-177,228,478,-102,1,0,33,17,120,1,53298,1
2,31112,30028,31477,49892,1960,-4512,-649,-80,75,992,-442,229,481,-103,1,0,33,17,160,1,53298,1
2,31082,30021,31470,49893,1970,-4363,-12,-615,-565,676,55,222,474,-104,1,0,33,17,200,1,53298,1
2,31110,30037,31482,49894,1980,-5374,-3362,1963,104,-672,206,228,478,-94,1,0,33,17,240,1,53298,1
2,31124,30031,31486,49895,1992,-4668,-911,268,307,-435,203,225,481,-103,1,0,33,17,280,1,53298,1
2,31116,30030,31485,49896,2004,-4337,-120,-328,-338,46,-99,226,482,-110,1,0,33,17,320,1,53298,1
2,31114,30028,31484,49897,2015,-4596,-691,139,78,58,-25,223,475,-105,1,0,33,17,360,1,53298,1
2,31128,30028,31487,49898,2027,-4747,-1518,560,248,-326,236,235,473,-97,1,0,33,17,400,1,53298,1
2,31135,30022,31492,49899,2040,-4578,-880,263,-280,-261,142,233,481,-105,1,0,33,17,440,1,53298,1
2,31125,30008,31487,49900,2052,-4463,-540,-102,2,168,-98,228,476,-108,1,0,33,17,480,1,53298,1
2,31112,30026,31484,49901,2063,-4547,-703,104,100,356,-107,217,477,-101,1,0,33,17,520,1,53298,1
2,31119,30000,31485,49902,2074,-4726,-890,435,-163,-47,77,230,476,-102,1,0,33,17,560,1,53298,1
2,31125,30008,31484,49903,2086,-4696,-1320,495,-84,-162,96,229,477,-103,1,0,33,17,600,1,53298,1
2,31122,30023,31484,49904,2096,-4513,-501,-49,-239,-9,-5,229,477,-107,1,0,33,17,640,1,53298,1
2,31149,30025,31498,49905,2107,-4648,-806,203,7,-592,240,228,476,-112,1,0,33,17,680,1,53298,1
2,31173,29904,31511,49906,2120,-4757,-1835,997,243,-901,440,226,474,-100,1,0,33,17,720,1,53298,1
2,31161,29817,31496,49907,2132,-4429,125,-445,-177,9,-165,234,476,-100,1,0,33,17,760,1,53298,1
2,31136,30053,31486,49908,2144,-4478,-413,-22,-212,894,-477,221,479,-93,1,0,33,17,800,1,53298,1
2,31073,30007,31452,49909,2154,-4387,-256,-449,40,1701,-217,227,475,-109,1,0,33,17,840,1,53298,1
2,31063,29957,31469,49910,2162,-5062,-784,-80,423,330,-148,224,470,-98,1,0,33,17,880,1,53298,1
2,31111,29780,31470,49911,2172,-4242,-1968,2494,-1469,-1328,570,231,475,-107,1,0,33,17,920,1,53298,1
2,31125,29851,31476,49912,2172,-4823,-710,-718,1202,-498,246,227,479,-107,1,0,33,17,960,1,53298,1
1,31095,29937,31462,49913,1451,-4348,-45,56,-362,317,-361,235,479,-101,1,0,33,18,0,0,53298,1
2,31072,29789,31445,49914,1462,-4435,-556,240,194,1181,-194,233,481,-99,1,0,33,18,40,0,53298,1
2,31070,29790,31462,49915,1473,-4966,-794,-34,-387,-273,66,231,471,-101,1,0,33,18,80,0,53298,1
2,31117,29799,31476,49916,1484,-4484,-1402,1882,268,-768,384,229,475,-89,1,0,33,18,120,0,53298,1
2,31116,29790,31479,49917,1496,-4643,-204,-1113,-392,-333,48,227,469,-101,1,0,33,18,160,0,53298,1
2,31090,29778,31464,49918,1506,-4331,-387,-8,141,578,-232,237,475,-101,1,0,33,18,200,0,53298,1
2,31062,29770,31443,49919,1515,-4482,-486,-507,116,1241,-262,234,472,-102,1,0,33,18,240,0,53298,1
2,31064,29778,31467,49920,1525,-5223,-1734,682,-199,-607,138,227,471,-105,1,0,33,18,280,0,53298,1
2,31112,29794,31470,49921,1535,-4573,-890,1547,97,-574,413,229,475,-107,1,0,33,18,320,0,53298,1
2,31099,29781,31473,49922,1545,-4624,-206,-1155,-425,-212,-79,223,471,-103,1,0,33,18,360,0,53298,1
2,31087,29786,31463,49923,1554,-4497,-566,109,148,258,-108,226,470,-102,1,0,33,18,400,0,53298,1
2,31082,29802,31460,49924,1564,-4679,-1190,480,315,74,35,223,481,-97,1,0,33,18,440,0,53298,1
2,31076,29781,31457,49925,1574,-4623,-642,228,-173,241,9,233,471,-105,1,0,33,18,480,0,53298,1
2,31063,29817,31453,49926,1583,-4564,-702,-126,-641,498,-125,226,470,-110,1,0,33,18,520,0,53298,1
2,31081,29784,31468,49927,1592,-4789,-1265,311,79,-570,273,231,475,-101,1,0,33,18,560,0,53298,1
2,31106,29794,31473,49928,1602,-4556,-1280,1099,571,-323,248,218,478,-96,1,0,33,18,600,0,53298,1
2,31095,29790,31471,49929,1611,-4605,-111,-659,-140,-74,-145,227,481,-89,1,0,33,18,640,0,53298,1
2,31078,29809,31465,49930,1621,-4513,-628,235,-109,485,-202,229,477,-103,1,0,33,18,680,0,53298,1
2,31056,29770,31456,49931,1629,-4552,-579,-461,-261,698,-246,229,479,-105,1,0,33,18,720,0,53298,1
2,31073,29765,31466,49932,1638,-4894,-1698,826,102,-674,355,227,479,-101,1,0,33,18,760,0,53298,1
2,31100,29780,31472,49933,1649,-4547,-1215,1211,196,-442,385,231,473,-105,1,0,33,18,800,0,53298,1
2,31095,29777,31470,49934,1661,-4623,-246,-837,-219,-106,-107,232,478,-108,1,0,33,18,840,0,53298,1
2,31076,29771,31464,49935,1671,-4537,-626,161,193,541,-266,233,471,-115,1,0,33,18,880,0,53298,1
2,31053,29782,31417,49936,1680,-4545,-644,-318,40,873,-386,229,475,-109,1,0,33,18,920,0,53298,1
2,31023,32399,31430,49937,1680,-4801,-1427,470,332,272,-251,229,471,-93,1,0,33,18,960,0,53298,1
1,31046,30785,31448,49938,988,-4505,-979,85,-266,114,125,231,483,-103,1,0,33,19,0,1,53298,1
2,31065,30286,31459,49939,997,-4725,-933,853,-544,-1033,779,229,479,-105,1,0,33,19,40,1,53298,1
2,31091,30400,31467,49940,1007,-4438,-1160,-713,270,-416,244,229,473,-103,1,0,33,19,80,1,53298,1
2,31078,30102,31463,49941,1017,-4622,-396,135,42,-29,-201,236,474,-104,1,0,33,19,120,1,53298,1
2,31068,30124,31449,49942,1028,-4550,-711,-181,66,595,-282,223,469,-101,1,0,33,19,160,1,53298,1
2,31048,31083,31447,49943,1038,-4603,-602,1240,-333,61,-16,225,473,-101,1,0,33,19,200,1,53298,1
2,31076,31045,31464,49944,1048,-4600,-1862,-45,156,-682,454,230,458,-102,1,0,33,19,240,1,53298,1
2,31087,30809,31467,49945,1058,-4583,-560,-259,-146,-231,199,225,467,-91,1,0,33,19,280,1,53298,1
2,31070,31031,31459,49946,1068,-4510,-518,108,94,97,-149,229,477,-105,1,0,33,19,320,1,53298,1
2,31052,31200,31437,49947,1078,-4578,-978,-187,285,721,-275,232,474,-92,1,0,33,19,360,1,53298,1
2,31031,31362,31434,49948,1087,-4685,-668,713,3,590,-412,222,478,-100,1,0,33,19,400,1,53298,1
2,31056,29842,31464,49949,1095,-4614,-1194,999,-317,-397,380,230,484,-102,1,0,33,19,440,1,53298,1
2,31085,29971,31469,49950,1105,-4649,-1354,-546,-45,-683,503,225,475,-103,1,0,33,19,480,1,53298,1
2,31089,29974,31471,49951,1116,-4808,-406,-82,-117,-157,-20,233,473,-103,1,0,33,19,520,1,53298,1
2,31078,29900,31458,49952,1126,-4449,-749,-32,260,258,-218,228,478,-92,1,0,33,19,560,1,53298,1
2,31063,29900,31458,49953,1135,-4541,-518,938,-132,338,-142,230,478,-92,1,0,33,19,600,1,53298,1
2,31089,29909,31478,49954,1146,-4902,-1922,468,-3,-746,348,225,471,-111,1,0,33,19,640,1,53298,1
2,31105,29893,31484,49955,1156,-4564,-905,-459,-49,-294,247,231,479,-109,1,0,33,19,680,1,53298,1
2,31086,30148,31475,49956,1167,-4465,-411,110,-56,0,-99,230,478,-104,1,0,33,19,720,1,53298,1
2,31069,31194,31458,49957,1176,-4564,-667,196,296,402,-144,224,470,-98,1,0,33,19,760,1,53298,1
2,31075,31257,31463,49958,1186,-4730,-873,952,-219,-283,109,234,486,-104,1,0,33,19,800,1,53298,1
2,31099,31442,31472,49959,1196,-4649,-1343,-409,-142,-434,234,225,473,-109,1,0,33,19,840,1,53298,1
2,31100,31655,31472,49960,1207,-4519,-311,-8,-119,-233,34,236,478,-110,1,0,33,19,880,1,53298,1
2,31087,31546,31461,49961,1219,-4453,-609,-130,411,298,-131,226,480,-98,1,0,33,19,920,1,53298,1
2,31054,31643,31446,49962,1219,-4525,-657,-117,227,936,-248,228,480,-90,1,0,33,19,960,1,53298,1
1,31044,31379,31451,49963,525,-4320,-1347,1642,-784,-44,-73,221,473,-97,1,0,33,20,0,1,53298,1
2,31081,31132,31458,49964,535,-4165,-449,-670,411,-595,455,232,478,-102,1,0,33,20,40,1,53298,1
2,31085,31282,31461,49965,546,-4785,-613,-4,-153,-182,76,239,473,-109,1,0,33,20,80,1,53298,1
2,31067,31240,31446,49966,557,-4510,-748,-38,99,238,-197,230,480,-106,1,0,33,20,120,1,53298,1
2,31059,31251,31440,49967,567,-4505,-1771,939,-55,425,-129,233,477,-103,1,0,33,20,160,1,53298,1
2,31078,31127,31460,49968,576,-5112,-709,326,27,-614,237,233,475,-103,1,0,33,20,200,1,53298,1
2,31091,31179,31469,49969,587,-4418,-497,-389,4,-194,205,226,480,-96,1,0,33,20,240,1,53298,1
2,31075,31273,31453,49970,597,-4359,-775,202,-119,87,-117,226,476,-108,1,0,33,20,280,1,53298,1
2,31061,31083,31446,49971,607,-4723,-673,-100,284,666,-204,234,482,-100,1,0,33,20,320,1,53298,1
2,31050,31131,31444,49972,616,-4747,-1125,897,-276,-26,-64,224,468,-102,1,0,33,20,360,1,53298,1
2,31056,31018,31445,49973,625,-4601,-821,-185,-195,17,164,233,479,-101,1,0,33,20,400,1,53298,1
2,31054,31104,31446,49974,635,-4408,-890,234,-167,-22,7,231,469,-109,1,0,33,20,440,1,53298,1
2,31065,31060,31452,49975,644,-4708,-1284,665,47,-150,165,231,469,-99,1,0,33,20,480,1,53298,1
2,31085,30839,31464,49976,653,-4643,-435,-139,318,-473,241,224,474,-106,1,0,33,20,520,1,53298,1
2,31086,30863,31460,49977,663,-4709,-640,-120,-29,-89,18,228,476,-98,1,0,33,20,560,1,53298,1
2,31075,30920,31450,49978,671,-4588,-807,75,28,199,-122,228,480,-98,1,0,33,20,600,1,53298,1
2,31057,30869,31441,49979,680,-4441,-786,-93,111,684,-189,220,470,-100,1,0,33,20,640,1,53298,1
2,31043,30839,31442,49980,689,-4854,-1551,1103,-241,349,-85,229,477,-99,1,0,33,20,680,1,53298,1
2,31058,30643,31454,49981,697,-4354,-693,-51,168,-142,407,241,481,-107,1,0,33,20,720,1,53298,1
2,31065,30609,31460,49982,706,-4610,-921,83,-180,106,112,231,481,-101,1,0,33,20,760,1,53298,1
2,31082,30455,31467,49983,716,-4696,-1253,601,-328,-515,-20,228,476,-110,1,0,33,20,800,1,53298,1
2,31105,30405,31480,49984,726,-4498,-352,-356,497,-280,36,231,485,-105,1,0,33,20,840,1,53298,1
2,31100,30381,31474,49985,737,-4554,-612,84,17,-39,-105,226,480,-100,1,0,33,20,880,1,53298,1
2,31083,30419,31464,49986,747,-4528,-677,-200,63,301,-95,228,476,-100,1,0,33,20,920,1,53298,1
2,31058,30689,31455,49987,747,-4532,-1825,836,-258,477,21,227,477,-97,1,0,33,20,960,1,53298,1
1,31078,30703,31466,49988,62,-4639,-759,494,-123,-651,323,226,482,-106,1,0,33,21,0,1,53298,1
1,31090,30699,31471,49989,72,-4458,-404,-381,347,-320,327,233,479,-107,1,0,33,21,40,1,53298,1
1,31082,30628,31458,49990,82,-4669,-836,291,-169,-103,-34,238,478,-102,1,0,33,21,80,1,53298,1
1,31085,30631,31460,49991,91,-4666,-1321,422,-91,-136,8,232,480,-106,1,0,33,21,120,1,53298,1
1,31096,30650,31465,49992,102,-4584,-499,55,76,-240,91,235,479,-103,1,0,33,21,160,1,53298,1
1,31095,30643,31466,49993,112,-4571,-806,89,-154,-18,-63,233,475,-111,1,0,33,21,200,1,53298,1
1,31081,30645,31462,49994,121,-4542,-675,25,40,168,-108,235,483,-109,1,0,33,21,240,1,53298,1
1,31068,30631,31450,49995,131,-4925,-1428,679,-81,422,-62,230,478,-104,1,0,33,21,280,1,53298,1
1,31081,30645,31465,49996,140,-4659,-843,428,-210,-239,169,230,476,-100,1,0,33,21,320,1,53298,1
1,31095,30677,31470,49997,150,-4519,-505,-234,120,-86,158,226,480,-108,1,0,33,21,360,1,53298,1
1,31089,30614,31470,49998,160,-4606,-818,162,-50,-1,-43,231,477,-107,1,0,33,21,400,1,53298,1
1,31091,30579,31468,49999,171,-4570,-1191,298,1,-99,-16,225,477,-103,1,0,33,21,440,1,53298,1
1,31093,30594,31472,50000,182,-4592,-665,105,-18,-191,130,230,476,-108,1,0,33,21,480,1,53298,1
1,31091,30585,31469,50001,192,-4588,-860,140,-99,-80,37,231,479,-113,1,0,33,21,520,1,53298,1
1,31081,30586,31465,50002,203,-4538,-726,76,108,71,-10,227,469,-99,1,0,33,21,560,1,53298,1
1,31077,30605,31456,50003,213,-4775,-1527,715,-71,180,-36,229,475,-111,1,0,33,21,600,1,53298,1
1,31095,30599,31473,50004,224,-4572,-743,109,-138,-132,122,230,478,-106,1,0,33,21,640,1,53298,1
1,31095,30572,31472,50005,235,-4508,-655,-39,-46,16,46,233,475,-111,1,0,33,21,680,1,53298,1
3,31088,30591,31469,50006,246,-4643,-916,227,49,97,-83,231,471,-105,1,0,33,21,720,1,53298,1
3,31095,30583,31472,50007,257,-4680,-1055,416,66,-118,63,233,477,-107,1,0,33,21,760,1,53298,1
3,31102,30522,31480,50008,268,-4576,-658,67,-158,-244,146,221,475,-101,1,0,33,21,800,1,53298,1
3,31102,30552,31478,50009,279,-4545,-667,31,-1,-97,50,237,467,-103,1,0,33,21,840,1,53298,1
0,31096,30572,31473,50010,289,-4545,-667,31,-1,-97,50,231,475,-101,1,0,33,21,880,1,53298,1
2,31074,30490,31455,50011,299,-4661,-492,-37,221,466,-128,226,482,-106,1,0,33,21,920,1,53298,1
2,31070,30515,31462,50012,299,-4478,-1427,949,-579,-153,23,233,479,-113,1,0,33,21,960,1,53298,1
1,31091,30550,31462,50013,0,-4619,-462,-339,216,-206,252,224,468,-96,1,0,33,22,0,0,53298,1
2,31095,30580,31473,50014,39610,-4597,-755,188,-71,-69,-4,233,473,-111,1,0,33,22,40,0,53298,1
2,31107,30490,31476,50015,39620,-4701,-1359,472,-202,-200,45,227,481,-103,1,0,33,22,80,0,53298,1
2,31116,30509,31487,50016,39631,-4551,-384,-66,338,-315,91,232,484,-98,1,0,33,22,120,0,53298,1
2,31119,30541,31485,50017,39641,-4500,-625,-50,-82,-74,-8,232,472,-106,1,0,33,22,160,0,53298,1
2,31100,30525,31474,50018,39651,-4562,-770,31,158,179,-64,227,469,-101,1,0,33,22,200,0,53298,1
2,31073,30627,31460,50019,39661,-4637,-284,-300,264,718,-156,231,473,-101,1,0,33,22,240,0,53298,1
2,31071,30676,31462,50020,39670,-4299,-2168,1677,-788,-42,-2,220,484,-98,1,0,33,22,280,0,53298,1
2,31099,30637,31471,50021,39680,-4615,-143,-680,470,-436,343,238,476,-110,1,0,33,22,320,0,53298,1
2,31095,30620,31472,50022,39691,-4556,-714,127,-146,-136,21,224,478,-100,1,0,33,22,360,0,53298,1
2,31086,30606,31466,50023,39702,-4667,-971,282,71,159,-75,233,475,-105,1,0,33,22,400,0,53298,1
2,31101,30647,31474,50024,39713,-4610,-948,388,65,-217,129,225,475,-107,1,0,33,22,440,0,53298,1
2,31109,30594,31480,50025,39724,-4502,-537,-118,-31,-153,87,229,481,-105,1,0,33,22,480,0,53298,1
2,31103,30606,31478,50026,39734,-4588,-794,117,-53,66,-80,230,470,-100,1,0,33,22,520,0,53298,1
2,31089,30537,31464,50027,39745,-4477,-412,-253,224,406,-125,228,464,-106,1,0,33,22,560,0,53298,1
2,31068,30546,31462,50028,39756,-5215,-2649,1473,-309,395,-40,233,469,-95,1,0,33,22,600,0,53298,1
2,31099,30515,31479,50029,39767,-4715,-537,6,-188,-707,235,231,471,-99,1,0,33,22,640,0,53298,1
2,31111,30484,31480,50030,39778,-4357,-456,-266,256,-320,192,227,483,-103,1,0,33,22,680,0,53298,1
2,31095,30475,31472,50031,39789,-4605,-750,157,-56,83,-95,233,479,-97,1,0,33,22,720,0,53298,1
2,31073,30503,31458,50032,39800,-4694,-556,42,307,547,-176,222,482,-104,1,0,33,22,760,0,53298,1
2,31090,30494,31474,50033,39810,-4585,-1205,945,-422,-313,96,222,484,-112,1,0,33,22,800,0,53298,1
2,31104,30493,31473,50034,39820,-4472,-331,-530,176,-218,220,233,479,-105,1,0,33,22,840,0,53298,1
2,31095,30489,31477,50035,39830,-4619,-788,211,-149,15,-77,224,474,-110,1,0,33,22,880,0,53298,1
2,31084,30439,31455,50036,39840,-4526,-505,-336,327,535,-169,228,470,-102,1,0,33,22,920,0,53298,1
2,31073,30400,31459,50037,39850,-4810,-2458,1531,-312,150,-33,228,474,-108,1,0,33,22,960,0,53298,1
1,31094,30397,31474,50038,0,-4589,-381,-380,-34,-440,262,228,484,-106,1,0,33,23,0,0,53298,1
2,31090,30369,31472,50039,39149,-4452,-609,-51,9,-135,67,230,472,-106,1,0,33,23,40,0,53298,1
2,31097,30372,31475,50040,39160,-4803,-1736,963,-73,-119,6,235,469,-99,1,0,33,23,80,0,53298,1
2,31125,30404,31493,50041,39172,-4519,-478,-159,75,-693,275,224,470,-102,1,0,33,23,120,0,53298,1
2,31135,30448,31493,50042,39184,-4383,-437,-140,39,-408,145,229,477,-105,1,0,33,23,160,0,53298,1
2,31114,31340,31479,50043,39195,-4584,-804,47,-77,302,-221,230,478,-108,1,0,33,23,200,0,53298,1
2,31084,31385,31454,50044,39206,-4457,-112,-489,337,909,-295,233,481,-111,1,0,33,23,240,0,53298,1
2,31056,31155,31449,50045,39216,-5188,-3394,1868,-641,851,-100,230,472,-112,1,0,33,23,280,0,53298,1
2,31082,30859,31461,50046,39227,-4453,-703,275,209,-749,239,233,479,-107,1,0,33,23,320,0,53298,1
2,31096,30802,31469,50047,39237,-4372,-262,-410,230,-231,272,236,468,-106,1,0,33,23,360,0,53298,1
2,31078,30774,31458,50048,39247,-4625,-822,265,-261,34,-145,227,483,-93,1,0,33,23,400,0,53298,1
2,31077,30831,31459,50049,39256,-4616,-1430,405,-26,126,-81,222,478,-100,1,0,33,23,440,0,53298,1
2,31082,30811,31460,50050,39265,-4588,-585,148,137,-80,105,225,485,-91,1,0,33,23,480,0,53298,1
2,31078,30707,31461,50051,39274,-4585,-874,71,-235,44,-23,228,476,-106,1,0,33,23,520,0,53298,1
2,31075,30704,31456,50052,39283,-4589,-756,153,16,96,-15,235,479,-107,1,0,33,23,560,0,53298,1
2,31088,30649,31462,50053,39292,-4663,-1376,755,26,-154,141,227,477,-111,1,0,33,23,600,0,53298,1
2,31100,30615,31473,50054,39302,-4561,-360,-224,90,-311,190,229,481,-97,1,0,33,23,640,0,53298,1
2,31099,30627,31469,50055,39312,-4501,-634,20,-44,-43,-48,227,471,-101,1,0,33,23,680,0,53298,1
2,31082,30697,31461,50056,39322,-4540,-630,-170,168,311,-127,231,489,-103,1,0,33,23,720,0,53298,1
2,31055,30650,31446,50057,39331,-4976,-1246,503,39,671,-167,229,475,-101,1,0,33,23,760,0,53298,1
2,31075,30598,31460,50058,39340,-4619,-1069,1208,-439,-638,230,227,473,-109,1,0,33,23,800,0,53298,1
2,31102,30523,31473,50059,39351,-4496,-188,-778,301,-424,359,224,482,-106,1,0,33,23,840,0,53298,1
2,31095,30610,31468,50060,39361,-4569,-670,174,-246,-119,-100,228,464,-110,1,0,33,23,880,0,53298,1
2,31073,30634,31455,50061,39370,-4511,-579,-363,293,528,-212,227,481,-103,1,0,33,23,920,0,53298,1
2,31055,30548,31452,50062,39378,-5014,-2133,1271,-218,564,-178,219,475,-105,1,0,33,23,960,0,53298,1
1,31091,30526,31466,50063,0,-4545,-814,344,-30,-660,277,235,473,-97,1,0,33,24,0,1,53298,1
2,31100,30530,31476,50064,38685,-4397,-331,-440,58,-293,254,226,474,-110,1,0,33,24,40,1,53298,1
2,31084,30518,31470,50065,38695,-4601,-762,202,-93,9,-110,234,474,-94,1,0,33,24,80,1,53298,1
2,31065,30514,31457,50066,38704,-4595,-541,-328,345,582,-214,228,472,-100,1,0,33,24,120,1,53298,1
2,31061,30535,31457,50067,38712,-4706,-2167,1494,-430,130,-77,233,477,-99,1,0,33,24,160,1,53298,1
2,31088,30446,31467,50068,38722,-4650,-418,-425,110,-521,322,234,478,-110,1,0,33,24,200,1,53298,1
2,31090,30397,31470,50069,38732,-4461,-601,-53,-36,-165,105,234,474,-104,1,0,33,24,240,1,53298,1
2,31080,30410,31463,50070,38742,-4711,-952,412,89,108,-72,232,476,-110,1,0,33,24,280,1,53298,1
2,31101,30420,31480,50071,38753,-4688,-1334,658,16,-446,218,233,475,-109,1,0,33,24,320,1,53298,1
2,31120,30466,31482,50072,38764,-4458,-198,-313,78,-483,211,225,467,-95,1,0,33,24,360,1,53298,1
2,31112,30520,31479,50073,38775,-4500,-606,-71,-166,-14,-69,220,484,-106,1,0,33,24,400,1,53298,1
2,31090,30536,31461,50074,38786,-4449,-378,-346,305,574,-223,229,479,-93,1,0,33,24,440,1,53298,1
2,31057,30400,31449,50075,38795,-5262,-1813,874,-61,1048,-195,224,470,-106,1,0,33,24,480,1,53298,1
2,31070,30255,31471,50076,38804,-4743,-1030,1266,-507,-597,157,231,477,-95,1,0,33,24,520,1,53298,1
2,31106,30319,31478,50077,38814,-4488,-115,-940,404,-483,361,230,478,-104,1,0,33,24,560,1,53298,1
2,31091,30354,31475,50078,38824,-4560,-682,189,-315,-150,-74,227,477,-103,1,0,33,24,600,1,53298,1
2,31077,30286,31458,50079,38832,-4514,-592,-384,238,537,-212,231,473,-95,1,0,33,24,640,1,53298,1
2,31059,30375,31456,50080,38841,-4844,-2089,1326,-212,384,-124,227,489,-107,1,0,33,24,680,1,53298,1
2,31077,30277,31466,50081,38849,-4562,-880,214,27,-445,269,232,470,-106,1,0,33,24,720,1,53298,1
2,31089,30261,31472,50082,38859,-4506,-513,-248,-154,-210,190,221,471,-103,1,0,33,24,760,1,53298,1
2,31079,30285,31465,50083,38869,-4594,-810,188,41,34,-38,230,470,-104,1,0,33,24,800,1,53298,1
2,31081,30300,31466,50084,38879,-4735,-1380,531,157,91,19,238,478,-112,1,0,33,24,840,1,53298,1
2,31095,30312,31473,50085,38888,-4555,-681,151,1,-283,221,230,474,-110,1,0,33,24,880,1,53298,1
2,31100,30282,31475,50086,38899,-4506,-654,-154,-138,-111,110,230,484,-104,1,0,33,24,920,1,53298,1
2,31091,30258,31469,50087,38909,-4663,-879,261,101,75,-50,229,477,-111,1,0,33,24,960,1,53298,1
1,31100,30277,31474,50088,0,-4725,-1115,413,4,-85,51,226,470,-96,1,0,33,25,0,0,53298,1
2,31108,30276,31480,50089,38224,-4590,-576,24,-96,-210,82,232,480,-104,1,0,33,25,40,0,53298,1
2,31102,30293,31479,50090,38235,-4541,-670,22,-124,-43,-67,230,480,-104,1,0,33,25,80,0,53298,1
2,31094,30229,31473,50091,38244,-4547,-781,35,184,162,-155,225,479,-105,1,0,33,25,120,0,53298,1
2,31066,30254,31455,50092,38253,-4623,-424,-259,192,704,-245,236,474,-110,1,0,33,25,160,0,53298,1
2,31066,30210,31464,50093,38261,-4410,-1975,1533,-779,82,-25,232,468,-112,1,0,33,25,200,0,53298,1
2,31091,30219,31470,50094,38270,-4641,-327,-532,463,-435,412,227,477,-101,1,0,33,25,240,0,53298,1
2,31096,30194,31474,50095,38280,-4525,-679,31,-18,-90,119,228,470,-102,1,0,33,25,280,0,53298,1
2,31086,30190,31470,50096,38289,-4635,-902,210,17,197,-102,230,474,-114,1,0,33,25,320,0,53298,1
2,31099,30237,31479,50097,38299,-4739,-1182,562,44,-105,53,217,477,-95,1,0,33,25,360,0,53298,1
2,31107,30247,31481,50098,38309,-4517,-489,-119,-9,-291,94,229,483,-99,1,0,33,25,400,0,53298,1
2,31102,30259,31480,50099,38319,-4526,-687,28,-66,-153,-17,227,479,-99,1,0,33,25,440,0,53298,1
2,31095,30298,31468,50100,38328,-4516,-673,-52,149,94,-59,226,476,-90,1,0,33,25,480,0,53298,1
2,31079,30318,31467,50101,38337,-5037,-1877,1063,-73,192,2,225,477,-107,1,0,33,25,520,0,53298,1
2,31105,30277,31480,50102,38346,-4631,-620,166,-330,-559,215,232,480,-112,1,0,33,25,560,0,53298,1
2,31111,30221,31481,50103,38356,-4396,-546,-163,184,-289,160,232,480,-102,1,0,33,25,600,0,53298,1
2,31107,30227,31481,50104,38366,-4607,-765,134,-55,105,-99,225,471,-109,1,0,33,25,640,0,53298,1
2,31085,30344,31467,50105,38375,-4570,-480,-80,251,480,-190,232,476,-112,1,0,33,25,680,0,53298,1
2,31087,30337,31472,50106,38383,-4645,-1609,828,-429,-73,47,230,478,-110,1,0,33,25,720,0,53298,1
2,31105,30311,31477,50107,38393,-4533,-413,-336,78,-209,220,226,468,-106,1,0,33,25,760,0,53298,1
2,31100,30307,31477,50108,38402,-4565,-714,146,-16,-89,28,233,477,-103,1,0,33,25,800,0,53298,1
2,31115,30301,31485,50109,38411,-4737,-1610,872,-61,-260,104,228,484,-116,1,0,33,25,840,0,53298,1
2,31141,30355,31493,50110,38422,-4529,-176,-289,119,-782,357,229,477,-99,1,0,33,25,880,0,53298,1
2,31138,31110,31484,50111,38432,-4402,-587,-204,-33,-329,107,227,483,-109,1,0,33,25,920,0,53298,1
2,31147,29805,31501,50112,38442,-4539,-740,-30,95,396,-297,234,484,-102,1,0,33,25,960,0,53298,1
1,31096,29818,31473,50113,0,-4462,-27,-548,314,1185,-394,228,478,-94,1,0,33,26,0,1,53298,1
2,31064,29808,31466,50114,37760,-5100,-2875,1401,-772,1348,-329,227,473,-87,1,0,33,26,40,1,53298,1
2,31065,29801,31470,50115,37767,-4589,-929,930,96,-400,173,233,483,-95,1,0,33,26,80,1,53298,1
2,31100,29825,31485,50116,37775,-4672,-404,-659,469,-352,438,230,478,-104,1,0,33,26,120,1,53298,1
2,31095,29835,31485,50117,37783,-4639,-933,419,-526,-200,25,227,473,-101,1,0,33,26,160,1,53298,1
2,31102,29827,31486,50118,37792,-4525,-863,42,51,-48,7,233,479,-107,1,0,33,26,200,1,53298,1
2,31103,29825,31484,50119,37802,-4595,-624,75,476,207,3,220,480,-104,1,0,33,26,240,1,53298,1
2,31096,29817,31480,50120,37810,-4703,-999,258,-118,251,-94,229,479,-113,1,0,33,26,280,1,53298,1
2,31106,29823,31489,50121,37819,-4636,-1084,505,-323,-338,115,227,471,-113,1,0,33,26,320,1,53298,1
2,31121,29812,31495,50122,37829,-4539,-474,-172,114,-496,158,227,479,-103,1,0,33,26,360,1,53298,1
2,31120,29800,31495,50123,37838,-4580,-715,140,104,-235,32,234,480,-106,1,0,33,26,400,1,53298,1
2,31122,29805,31498,50124,37849,-4653,-999,324,-109,-152,50,240,478,-112,1,0,33,26,440,1,53298,1
2,31124,29794,31498,50125,37858,-4594,-759,93,-65,-36,103,232,468,-102,1,0,33,26,480,1,53298,1
2,31129,29787,31500,50126,37868,-4675,-1119,434,-88,-97,72,230,468,-112,1,0,33,26,520,1,53298,1
2,31144,29788,31508,50127,37878,-4576,-734,80,55,-277,184,238,474,-106,1,0,33,26,560,1,53298,1
2,31142,29788,31508,50128,37889,-4535,-592,10,97,-151,122,237,477,-115,1,0,33,26,600,1,53298,1
2,31130,29802,31499,50129,37899,-4591,-880,146,92,137,-103,230,488,-96,1,0,33,26,640,1,53298,1
2,31116,29873,31479,50130,37909,-4437,-378,-323,119,421,-215,223,477,-91,1,0,33,26,680,1,53298,1
2,31062,29882,31452,50131,37917,-4803,-646,-66,63,980,-274,227,471,-99,1,0,33,26,720,1,53298,1
2,31057,29764,31471,50132,37924,-4402,-2189,1769,-1026,152,-111,222,484,-98,1,0,33,26,760,1,53298,1
2,31111,29776,31483,50133,37932,-4660,-779,-30,751,-1032,535,230,482,-106,1,0,33,26,800,1,53298,1
2,31122,29783,31490,50134,37942,-4453,-244,-324,-88,-391,291,226,476,-106,1,0,33,26,840,1,53298,1
2,31109,29789,31483,50135,37952,-4487,-661,82,-206,77,-171,230,476,-100,1,0,33,26,880,1,53298,1
2,31082,29822,31471,50136,37961,-4542,-365,-380,589,788,-282,227,473,-97,1,0,33,26,920,1,53298,1
2,31092,29837,31474,50137,37970,-4663,-2943,1952,-454,54,-21,231,471,-103,1,0,33,26,960,1,53298,1
1,31129,29850,31497,50138,0,-4477,-45,-882,-15,-701,327,232,472,-102,1,0,33,27,0,1,53298,1
2,31133,29864,31495,50139,37301,-4332,-445,-153,-4,-379,113,235,481,-103,1,0,33,27,40,1,53298,1
2,31106,30027,31473,50140,37311,-4456,-464,-380,298,622,-264,227,485,-97,1,0,33,27,80,1,53298,1
2,31055,30400,31448,50141,37319,-5081,-823,319,353,1265,-286,228,480,-98,1,0,33,27,120,1,53298,1
2,31076,30335,31464,50142,37328,-4381,-1092,1944,-752,-694,141,229,479,-107,1,0,33,27,160,1,53298,1
2,31112,30200,31474,50143,37337,-4434,118,-1416,530,-677,498,221,483,-105,1,0,33,27,200,1,53298,1
2,31089,30205,31471,50144,37346,-4636,-684,172,-475,-222,-89,230,476,-102,1,0,33,27,240,1,53298,1
2,31113,30105,31479,50145,37355,-4867,-2516,1210,-111,-111,88,227,477,-105,1,0,33,27,280,1,53298,1
2,31136,30014,31498,50146,37366,-4495,107,-354,439,-748,373,233,473,-107,1,0,33,27,320,1,53298,1
2,31135,30009,31495,50147,37378,-4335,-438,-292,-306,-120,-24,226,466,-98,1,0,33,27,360,1,53298,1
2,31107,30153,31470,50148,37388,-4485,-568,-309,-5,693,-408,232,456,-110,1,0,33,27,400,1,53298,1
2,31066,29934,31446,50149,37397,-4872,-528,-186,543,1485,-311,223,471,-109,1,0,33,27,440,1,53298,1
2,31056,29790,31463,50150,37406,-4258,-2273,2155,-959,468,-124,226,474,-104,1,0,33,27,480,1,53298,1
2,31100,29778,31479,50151,37416,-4741,-613,-521,791,-1013,525,232,476,-102,1,0,33,27,520,1,53298,1
2,31111,29787,31485,50152,37426,-4428,-266,-318,-239,-397,252,230,474,-114,1,0,33,27,560,1,53298,1
2,31103,29792,31480,50153,37436,-4925,-1603,1002,-200,-149,-103,234,482,-104,1,0,33,27,600,1,53298,1
2,31130,29795,31499,50154,37446,-4624,-486,-128,147,-425,181,232,480,-110,1,0,33,27,640,1,53298,1
2,31129,29799,31496,50155,37458,-4361,-375,-61,340,-250,74,234,474,-106,1,0,33,27,680,1,53298,1
2,31111,29824,31484,50156,37468,-4560,-777,-109,-288,309,-188,230,474,-106,1,0,33,27,720,1,53298,1
2,31069,29886,31451,50157,37478,-4586,-213,-371,212,979,-244,226,478,-112,1,0,33,27,760,1,53298,1
2,31067,29803,31465,50158,37487,-4350,-2866,2078,-829,230,60,235,477,-97,1,0,33,27,800,1,53298,1
2,31100,29810,31476,50159,37497,-4717,-314,-680,646,-794,397,233,477,-103,1,0,33,27,840,1,53298,1
2,31107,29804,31484,50160,37507,-4412,-463,-148,-115,-298,128,229,479,-109,1,0,33,27,880,1,53298,1
2,31091,29818,31470,50161,37518,-4581,-724,118,-139,211,-191,225,473,-103,1,0,33,27,920,1,53298,1
2,31084,29846,31469,50162,37528,-4664,-1199,330,95,256,-107,224,478,-98,1,0,33,27,960,1,53298,1
1,31083,29864,31466,50163,0,-4659,-1011,352,103,63,27,228,470,-108,1,0,33,28,0,1,53298,1
2,31099,29880,31478,50164,36839,-4786,-1556,689,-396,-181,167,227,481,-111,1,0,33,28,40,1,53298,1
2,31129,29875,31500,50165,36850,-4563,-390,-160,-73,-798,313,232,482,-114,1,0,33,28,80,1,53298,1
2,31143,29925,31503,50166,36862,-4406,-456,-165,470,-432,251,223,481,-101,1,0,33,28,120,1,53298,1
2,31127,29983,31481,50167,36874,-4544,-672,16,101,294,-176,234,474,-112,1,0,33,28,160,1,53298,1
2,31080,30042,31462,50168,36884,-4425,-187,-514,116,939,-319,230,472,-98,1,0,33,28,200,1,53298,1
2,31059,29744,31452,50169,36893,-5261,-2099,671,-223,1344,-227,229,473,-105,1,0,33,28,240,1,53298,1
2,31049,29889,31450,50170,36901,-4491,-1145,1614,-285,-282,26,233,475,-103,1,0,33,28,280,1,53298,1
2,31095,30594,31464,50171,36911,-4783,-535,-591,669,-1171,665,229,479,-99,1,0,33,28,320,1,53298,1
2,31095,30769,31472,50172,36921,-4379,-324,-239,-382,-525,220,228,476,-104,1,0,33,28,360,1,53298,1
2,31074,31285,31456,50173,36932,-4432,-616,-84,-153,67,-223,228,474,-104,1,0,33,28,400,1,53298,1
2,31044,31125,31440,50174,36942,-4802,-604,-266,474,912,-261,232,476,-106,1,0,33,28,440,1,53298,1
2,31044,30494,31455,50175,36951,-4395,-2207,1951,-558,136,-152,235,475,-103,1,0,33,28,480,1,53298,1
2,31099,30308,31474,50176,36962,-4707,-382,-699,161,-1006,448,218,484,-100,1,0,33,28,520,1,53298,1
2,31096,30486,31474,50177,36974,-4359,-321,-248,-250,-354,194,238,476,-100,1,0,33,28,560,1,53298,1
2,31080,30785,31456,50178,36986,-4500,-628,30,-6,272,-226,233,475,-115,1,0,33,28,600,1,53298,1
2,31046,30762,31437,50179,36996,-4745,-609,-334,482,994,-265,232,478,-104,1,0,33,28,640,1,53298,1
2,31048,30411,31452,50180,37006,-4339,-1760,1816,-580,57,-70,225,473,-105,1,0,33,28,680,1,53298,1
2,31081,30438,31463,50181,37016,-4662,-405,-822,158,-514,373,234,472,-106,1,0,33,28,720,1,53298,1
2,31080,30438,31467,50182,37027,-4489,-607,-9,-287,-232,71,224,482,-98,1,0,33,28,760,1,53298,1
2,31065,30408,31459,50183,37037,-4601,-777,138,192,120,-111,233,481,-101,1,0,33,28,800,1,53298,1
2,31088,30426,31469,50184,37048,-4686,-1476,822,21,-450,153,227,473,-101,1,0,33,28,840,1,53298,1
2,31101,30406,31476,50185,37061,-4477,-143,-298,125,-526,239,231,471,-105,1,0,33,28,880,1,53298,1
2,31096,30415,31472,50186,37073,-4486,-631,-22,-279,-117,-45,243,473,-107,1,0,33,28,920,1,53298,1
2,31073,30471,31460,50187,37084,-4474,-405,-306,258,472,-207,233,481,-107,1,0,33,28,960,1,53298,1
1,31064,30485,31454,50188,0,-5073,-2718,1526,-146,431,-39,228,484,-94,1,0,33,29,0,1,53298,1
2,31084,30395,31467,50189,36378,-4632,-441,-100,-54,-450,191,230,472,-102,1,0,33,29,40,1,53298,1
2,31090,30406,31472,50190,36389,-4384,-528,-210,105,-120,115,225,479,-101,1,0,33,29,80,1,53298,1
2,31079,30390,31462,50191,36400,-4606,-811,113,-39,223,-141,220,482,-94,1,0,33,29,120,1,53298,1
2,31048,30321,31442,50192,36411,-4663,-594,-274,389,729,-237,230,484,-106,1,0,33,29,160,1,53298,1
2,31030,30586,31450,50193,36421,-4725,-1430,761,-222,682,-281,234,468,-104,1,0,33,29,200,1,53298,1
2,31019,32421,31420,50194,36430,-4546,-827,271,-147,133,-142,231,473,-111,1,0,33,29,240,1,53298,1
2,31054,29755,31460,50195,36439,-4704,-1259,402,-477,-153,347,234,476,-106,1,0,33,29,280,1,53298,1
2,31077,29774,31475,50196,36450,-4621,-670,446,-690,-846,602,225,471,-117,1,0,33,29,320,1,53298,1
2,31090,29794,31474,50197,36461,-4590,-643,-515,117,-317,183,214,478,-98,1,0,33,29,360,1,53298,1
2,31083,29840,31470,50198,36472,-4742,-1290,795,45,-119,-150,218,480,-104,1,0,33,29,400,1,53298,1
2,31111,29811,31493,50199,36484,-4575,-787,-34,105,-378,19,235,481,-109,1,0,33,29,440,1,53298,1
2,31106,30018,31483,50200,36496,-4487,-494,-49,502,-164,102,234,478,-106,1,0,33,29,480,1,53298,1
2,31090,30126,31474,50201,36508,-4577,-801,63,34,175,-48,226,474,-106,1,0,33,29,520,1,53298,1
2,31066,30557,31451,50202,36519,-4544,-367,-308,321,552,-140,236,478,-94,1,0,33,29,560,1,53298,1
2,31065,30443,31455,50203,36529,-4429,-2113,1216,-373,73,11,232,480,-104,1,0,33,29,600,1,53298,1
2,31083,30310,31463,50204,36539,-4580,-378,-334,242,-340,231,229,481,-109,1,0,33,29,640,1,53298,1
2,31084,30328,31463,50205,36549,-4535,-670,80,-97,-167,34,236,474,-104,1,0,33,29,680,1,53298,1
2,31084,30301,31463,50206,36560,-4666,-1291,440,-101,-87,-28,235,475,-107,1,0,33,29,720,1,53298,1
2,31091,30308,31469,50207,36572,-4604,-744,149,110,-296,151,233,473,-103,1,0,33,29,760,1,53298,1
2,31096,30296,31474,50208,36583,-4498,-600,-24,-51,-104,49,229,477,-103,1,0,33,29,800,1,53298,1
2,31080,30196,31469,50209,36594,-4619,-935,182,-11,94,-74,228,474,-104,1,0,33,29,840,1,53298,1
2,31076,30256,31462,50210,36604,-4751,-977,380,97,224,-29,228,474,-108,1,0,33,29,880,1,53298,1
2,31085,30265,31467,50211,36615,-4642,-824,320,-117,-105,112,226,480,-88,1,0,33,29,920,1,53298,1
2,31091,30228,31474,50212,36626,-4524,-689,-25,-12,-80,112,232,480,-104,1,0,33,29,960,1,53298,1
1,31091,30211,31475,50213,0,-4769,-1246,549,-49,-81,31,228,482,-88,1,0,33,30,0,1,53298,1
2,31118,30222,31484,50214,35917,-4566,-872,161,-48,-621,182,224,478,-106,1,0,33,30,40,1,53298,1
2,31116,30991,31480,50215,35929,-4450,-457,-123,145,-451,165,229,477,-101,1,0,33,30,80,1,53298,1
2,31119,30928,31473,50216,35941,-4569,-703,92,-66,43,-72,225,483,-103,1,0,33,30,120,1,53298,1
2,31095,30065,31475,50217,35953,-4422,-371,-309,131,456,-205,226,480,-106,1,0,33,30,160,1,53298,1
2,31066,30069,31460,50218,35962,-5241,-1801,1160,-121,792,-110,230,472,-106,1,0,33,30,200,1,53298,1
2,31091,30224,31473,50219,35972,-4717,-792,518,-529,-473,92,223,471,-103,1,0,33,30,240,1,53298,1
2,31105,30269,31476,50220,35983,-4397,-308,-364,619,-271,213,229,475,-95,1,0,33,30,280,1,53298,1
2,31090,30258,31471,50221,35994,-4682,-836,292,-303,16,-70,224,476,-106,1,0,33,30,320,1,53298,1
2,31095,30202,31471,50222,36007,-4624,-1088,223,10,80,-43,231,477,-105,1,0,33,30,360,1,53298,1
2,31091,30263,31470,50223,36019,-4601,-690,162,147,9,61,228,476,-100,1,0,33,30,400,1,53298,1
2,31087,30212,31467,50224,36032,-4587,-805,99,-154,66,15,232,474,-104,1,0,33,30,440,1,53298,1
2,31070,30546,31457,50225,36044,-4629,-674,61,-26,193,15,229,471,-105,1,0,33,30,480,1,53298,1
2,31084,30696,31466,50226,36055,-4677,-1546,915,-187,-221,119,224,480,-96,1,0,33,30,520,1,53298,1
2,31106,30700,31475,50227,36067,-4564,-85,-335,141,-397,183,229,481,-111,1,0,33,30,560,1,53298,1
2,31101,30780,31475,50228,36080,-4489,-603,28,-82,-133,-13,231,477,-111,1,0,33,30,600,1,53298,1
2,31090,30504,31467,50229,36092,-4545,-669,-121,215,335,-142,222,470,-110,1,0,33,30,640,1,53298,1
2,31065,29987,31457,50230,36103,-4935,-944,439,114,714,-148,235,475,-99,1,0,33,30,680,1,53298,1
2,31085,30020,31472,50231,36114,-4607,-1155,1020,-647,-370,125,230,472,-104,1,0,33,30,720,1,53298,1
2,31099,30135,31476,50232,36126,-4492,-167,-595,441,-336,274,228,474,-98,1,0,33,30,760,1,53298,1
2,31089,30136,31472,50233,36138,-4604,-749,203,-175,-75,-62,229,479,-95,1,0,33,30,800,1,53298,1
2,31081,30037,31465,50234,36150,-4513,-610,-272,195,412,-165,223,487,-97,1,0,33,30,840,1,53298,1
2,31078,30063,31471,50235,36161,-4828,-2441,1443,-204,19,18,224,470,-104,1,0,33,30,880,1,53298,1
2,31107,30030,31483,50236,36173,-4566,-177,-535,-61,-451,249,233,471,-107,1,0,33,30,920,1,53298,1
2,31106,30024,31480,50237,36185,-4431,-627,2,48,-209,68,221,479,-103,1,0,33,30,960,1,53298,1
1,31089,30060,31472,50238,0,-4592,-802,49,117,223,-74,230,470,-102,1,0,33,31,0,1,53298,1
2,31089,30371,31468,50239,35455,-4956,-1997,1118,51,86,11,227,481,-97,1,0,33,31,40,1,53298,1
2,31105,30241,31483,50240,35467,-4560,-296,-179,-196,-365,195,227,477,-107,1,0,33,31,80,1,53298,1
2,31105,30237,31482,50241,35479,-4427,-613,-64,-31,-133,32,231,475,-99,1,0,33,31,120,1,53298,1
2,31095,30308,31473,50242,35491,-4737,-950,348,116,162,-86,219,477,-103,1,0,33,31,160,1,53298,1
2,31107,30401,31482,50243,35503,-4647,-1191,527,-25,-303,160,225,477,-103,1,0,33,31,200,1,53298,1
2,31121,30310,31489,50244,35516,-4495,-407,-166,-96,-464,245,235,477,-109,1,0,33,31,240,1,53298,1
2,31117,30384,31488,50245,35528,-4519,-580,13,-92,-25,-49,223,475,-101,1,0,33,31,280,1,53298,1
2,31095,30404,31474,50246,35539,-4458,-455,-246,282,436,-230,225,471,-107,1,0,33,31,320,1,53298,1
2,31052,30349,31453,50247,35549,-4770,-482,-144,243,1088,-239,226,478,-106,1,0,33,31,360,1,53298,1
2,31055,30573,31460,50248,35560,-4458,-2426,1988,-1155,113,-5,237,477,-105,1,0,33,31,400,1,53298,1
2,31106,30479,31475,50249,35570,-4846,-708,-575,775,-1027,512,231,471,-103,1,0,33,31,440,1,53298,1
2,31117,30566,31482,50250,35582,-4543,-581,316,-57,-772,304,233,475,-107,1,0,33,31,480,1,53298,1
2,31151,30458,31497,50251,35596,-4537,-728,-51,-548,-932,286,232,478,-106,1,0,33,31,520,1,53298,1
2,31182,29815,31516,50252,35610,-4444,-334,-181,858,-353,203,227,475,-89,1,0,33,31,560,1,53298,1
2,31164,29853,31500,50253,35623,-4552,-665,-47,-16,556,-377,233,477,-103,1,0,33,31,600,1,53298,1
2,31087,29910,31466,50254,35636,-4375,64,-549,182,1293,-463,231,487,-93,1,0,33,31,640,1,53298,1
2,31119,29823,31483,50255,35648,-4469,-3454,2072,-800,-62,173,233,477,-101,1,0,33,31,680,1,53298,1
2,31146,29864,31500,50256,35661,-4401,440,-921,839,-735,404,230,470,-98,1,0,33,31,720,1,53298,1
2,31139,29951,31500,50257,35674,-4411,-455,-69,-66,-307,19,235,475,-105,1,0,33,31,760,1,53298,1
2,31114,29980,31484,50258,35687,-4481,-449,-396,-136,679,-309,229,475,-91,1,0,33,31,800,1,53298,1
2,31074,30253,31467,50259,35697,-5069,-1167,98,221,1471,-340,226,480,-104,1,0,33,31,840,1,53298,1
2,31065,30072,31477,50260,35707,-4405,-1591,2237,-689,8,-30,229,479,-111,1,0,33,31,880,1,53298,1
2,31101,29817,31473,50261,35718,-4787,-380,-1171,582,-868,571,230,474,-108,1,0,33,31,920,1,53298,1
2,31083,30153,31467,50262,35730,-4447,-420,-74,-285,-236,97,232,478,-110,1,0,33,31,960,1,53298,1
1,31076,29762,31465,50263,0,-4470,-636,-108,21,389,-267,234,476,-104,1,0,33,32,0,0,53298,1
2,31062,29806,31467,50264,34994,-5013,-1607,732,7,822,-238,231,477,-103,1,0,33,32,40,0,53298,1
2,31079,29960,31468,50265,35004,-4631,-1126,1313,59,-737,239,231,471,-101,1,0,33,32,80,0,53298,1
2,31104,29847,31475,50266,35015,-4450,-105,-1000,-35,-419,347,223,477,-101,1,0,33,32,120,0,53298,1
2,31084,29935,31466,50267,35027,-4558,-634,170,-379,-102,-158,225,475,-95,1,0,33,32,160,0,53298,1
2,31091,30132,31469,50268,35039,-4948,-2057,933,81,73,-1,224,480,-100,1,0,33,32,200,0,53298,1
2,31108,30167,31481,50269,35051,-4589,-184,-105,392,-547,254,230,470,-104,1,0,33,32,240,0,53298,1
2,31096,30964,31468,50270,35063,-4377,-573,-235,-231,-207,60,229,477,-105,1,0,33,32,280,0,53298,1
2,31082,30505,31452,50271,35075,-4553,-776,27,-141,280,-174,221,477,-97,1,0,33,32,320,0,53298,1
2,31074,29830,31467,50272,35086,-4579,-246,-375,442,947,-241,233,475,-103,1,0,33,32,360,0,53298,1
2,31071,31205,31456,50273,35096,-4497,-2838,2072,-838,113,66,226,476,-102,1,0,33,32,400,0,53298,1
2,31110,34281,31481,50274,35106,-4687,-447,-658,334,-906,424,223,483,-105,1,0,33,32,440,0,53298,1
2,31119,34283,31485,50275,35118,-4391,-373,-157,-1,-486,190,227,481,-103,1,0,33,32,480,0,53298,1
2,31101,34187,31469,50276,35130,-4508,-649,6,5,250,-194,225,469,-107,1,0,33,32,520,0,53298,1
2,31086,29859,31479,50277,35140,-4821,-994,466,254,624,-174,225,481,-99,1,0,33,32,560,0,53298,1
2,31099,29870,31484,50278,35150,-4654,-1207,787,-285,-159,118,234,476,-102,1,0,33,32,600,0,53298,1
2,31119,29880,31493,50279,35161,-4536,-460,-286,-26,-344,202,228,484,-100,1,0,33,32,640,0,53298,1
2,31132,29875,31507,50280,35173,-4739,-1361,865,-277,-580,213,216,478,-96,1,0,33,32,680,0,53298,1
2,31207,30043,31525,50281,35186,-4613,-601,-232,49,-1500,631,222,472,-96,1,0,33,32,720,0,53298,1
2,31244,30440,31535,50282,35201,-4261,-251,-151,957,-1271,315,217,477,-97,1,0,33,32,760,0,53298,1
2,31229,30340,31529,50283,35213,-4473,-564,-78,-175,570,-539,234,472,-100,1,0,33,32,800,0,53298,1
2,31137,30400,31510,50284,35224,-4306,97,-541,163,1592,-801,241,467,-97,1,0,33,32,840,0,53298,1
2,31094,30367,31482,50285,35234,-5942,-3404,2098,-112,1545,97,227,469,-107,1,0,33,32,880,0,53298,1
2,31101,29918,31490,50286,35243,-4847,-903,1237,-515,-794,134,229,479,-109,1,0,33,32,920,0,53298,1
2,31133,29896,31497,50287,35254,-4284,431,-1056,968,-738,405,229,471,-95,1,0,33,32,960,0,53298,1
1,31118,29843,31490,50288,0,-4542,-557,42,-694,-52,-181,234,474,-104,1,0,33,33,0,1,53298,1
2,31070,29795,31462,50289,34532,-4534,-419,-495,237,943,-307,223,481,-101,1,0,33,33,40,1,53298,1
2,31065,30365,31479,50290,34541,-5074,-2220,1180,-173,1312,-322,220,478,-102,1,0,33,33,80,1,53298,1
2,31069,29836,31482,50291,34551,-4686,-1382,1838,-15,-784,362,227,485,-99,1,0,33,33,120,1,53298,1
2,31125,29833,31493,50292,34562,-4524,125,-1619,-40,-815,514,231,475,-101,1,0,33,33,160,1,53298,1
2,31096,29831,31486,50293,34573,-4379,-336,-75,-327,-185,-180,227,473,-103,1,0,33,33,200,1,53298,1
2,31062,30098,31451,50294,34583,-4589,-441,-455,416,982,-332,226,474,-104,1,0,33,33,240,1,53298,1
2,31038,29920,31464,50295,34591,-5018,-2591,1511,-343,971,-296,229,479,-109,1,0,33,33,280,1,53298,1
2,31072,30145,31478,50296,34601,-4507,-1163,1338,428,-1108,422,235,485,-105,1,0,33,33,320,1,53298,1
2,31101,30023,31483,50297,34612,-4274,183,-1233,-153,-570,467,227,479,-109,1,0,33,33,360,1,53298,1
2,31072,30180,31471,50298,34622,-4539,-488,70,-531,-37,-275,230,474,-108,1,0,33,33,400,1,53298,1
2,31042,30537,31448,50299,34631,-4778,-705,-255,509,1025,-248,226,476,-110,1,0,33,33,440,1,53298,1
2,31042,30197,31468,50300,34640,-4439,-1923,1870,-265,-22,5,229,475,-103,1,0,33,33,480,1,53298,1
2,31080,30514,31473,50301,34651,-4657,-528,-564,304,-659,413,227,479,-103,1,0,33,33,520,1,53298,1
2,31066,30792,31469,50302,34661,-4403,-486,-172,-585,-247,89,234,472,-94,1,0,33,33,560,1,53298,1
2,31071,30427,31470,50303,34672,-4891,-1312,935,34,20,-87,233,477,-109,1,0,33,33,600,1,53298,1
2,31101,30602,31486,50304,34682,-4746,-1138,339,372,-496,295,233,479,-97,1,0,33,33,640,1,53298,1
2,31110,31150,31482,50305,34692,-4426,-158,-220,230,-442,183,234,474,-106,1,0,33,33,680,1,53298,1
2,31103,29995,31488,50306,34703,-4524,-678,-48,-411,199,-183,226,470,-100,1,0,33,33,720,1,53298,1
2,31084,30085,31480,50307,34714,-4500,-289,-481,227,916,-313,224,470,-94,1,0,33,33,760,1,53298,1
2,31058,29991,31484,50308,34723,-5241,-2761,1823,-334,811,-131,227,477,-103,1,0,33,33,800,1,53298,1
2,31078,29773,31479,50309,34734,-4555,-817,551,29,-864,388,233,481,-101,1,0,33,33,840,1,53298,1
2,31098,29778,31489,50310,34744,-4348,-119,-657,193,-331,319,227,483,-103,1,0,33,33,880,1,53298,1
2,31083,29772,31484,50311,34755,-4600,-743,174,-297,12,-137,238,476,-106,1,0,33,33,920,1,53298,1
2,31076,29787,31479,50312,34765,-4738,-1375,561,57,240,-131,225,475,-99,1,0,33,33,960,1,53298,1
1,31087,29787,31482,50313,0,-4743,-895,470,279,-150,142,226,478,-104,1,0,33,34,0,0,53298,1
2,31092,29780,31484,50314,34072,-4549,-631,-117,-254,-157,141,224,474,-94,1,0,33,34,40,0,53298,1
2,31094,29785,31493,50315,34083,-4759,-1218,792,-140,-214,110,231,477,-93,1,0,33,34,80,0,53298,1
2,31155,30114,31520,50316,34095,-4672,-1377,464,383,-938,397,220,478,-96,1,0,33,34,120,0,53298,1
2,31175,30149,31527,50317,34109,-4381,-71,-435,706,-894,452,228,482,-100,1,0,33,34,160,0,53298,1
2,31160,30195,31515,50318,34122,-4478,-375,-174,-70,155,-167,225,481,-97,1,0,33,34,200,0,53298,1
2,31107,30144,31490,50319,34134,-4397,-354,-499,-192,1085,-520,222,480,-106,1,0,33,34,240,0,53298,1
2,31060,30010,31469,50320,34144,-5415,-1794,1283,-278,1377,-268,227,483,-105,1,0,33,34,280,0,53298,1
2,31085,29900,31481,50321,34154,-4794,-1062,1402,-798,-592,178,229,479,-105,1,0,33,34,320,0,53298,1
2,31110,29881,31490,50322,34164,-4465,18,-1138,896,-655,447,225,471,-101,1,0,33,34,360,0,53298,1
2,31096,29869,31483,50323,34175,-4546,-622,165,-296,-204,-62,225,471,-111,1,0,33,34,400,0,53298,1
2,31073,29888,31467,50324,34185,-4485,-642,-336,106,554,-254,228,472,-106,1,0,33,34,440,0,53298,1
2,31046,29877,31467,50325,34194,-4994,-1257,753,-19,963,-330,225,471,-103,1,0,33,34,480,0,53298,1
2,31071,29926,31483,50326,34204,-4695,-1373,1549,-608,-546,210,231,475,-105,1,0,33,34,520,0,53298,1
2,31104,29932,31491,50327,34215,-4522,-70,-1160,313,-472,390,230,472,-104,1,0,33,34,560,0,53298,1
2,31089,29922,31491,50328,34226,-4544,-615,177,-180,-92,-124,227,475,-101,1,0,33,34,600,0,53298,1
2,31072,29929,31474,50329,34238,-4634,-688,-87,167,547,-209,227,477,-105,1,0,33,34,640,0,53298,1
2,31084,29890,31484,50330,34249,-4729,-1691,1204,-157,-254,70,227,479,-103,1,0,33,34,680,0,53298,1
2,31108,29907,31495,50331,34260,-4512,-145,-584,94,-430,272,225,471,-101,1,0,33,34,720,0,53298,1
2,31095,29908,31492,50332,34272,-4459,-599,-32,-193,-158,-1,225,471,-99,1,0,33,34,760,0,53298,1
2,31109,29915,31498,50333,34283,-4753,-1740,821,-37,-81,38,230,476,-102,1,0,33,34,800,0,53298,1
2,31123,29921,31512,50334,34296,-4576,-502,-25,359,-418,266,226,472,-96,1,0,33,34,840,0,53298,1
2,31118,29921,31508,50335,34309,-4430,-525,-90,-214,-213,62,227,485,-97,1,0,33,34,880,0,53298,1
2,31103,29895,31495,50336,34321,-4564,-844,37,-26,283,-193,233,475,-105,1,0,33,34,920,0,53298,1
2,31080,29893,31487,50337,34333,-4864,-999,773,186,460,-136,216,474,-102,1,0,33,34,960,0,53298,1
1,31102,29877,31495,50338,0,-4713,-1230,538,-340,-216,161,224,468,-98,1,0,33,35,0,1,53298,1
2,31106,29875,31499,50339,33612,-4450,-450,-203,185,-252,195,231,481,-109,1,0,33,35,40,1,53298,1
2,31099,29871,31495,50340,33623,-4650,-829,226,-60,74,-56,226,474,-98,1,0,33,35,80,1,53298,1
2,31126,29874,31504,50341,33634,-4774,-1746,1048,51,-355,161,232,478,-112,1,0,33,35,120,1,53298,1
2,31151,29870,31519,50342,33646,-4499,-28,-482,349,-952,532,226,478,-108,1,0,33,35,160,1,53298,1
2,31150,30103,31508,50343,33659,-4374,-290,-362,-130,-137,-18,232,484,-100,1,0,33,35,200,1,53298,1
2,31112,30294,31501,50344,33671,-4433,-493,-349,-188,948,-563,223,477,-97,1,0,33,35,240,1,53298,1
2,31049,30116,31455,50345,33681,-4918,-662,46,64,1633,-464,221,473,-97,1,0,33,35,280,1,53298,1
2,31026,29785,31468,50346,33690,-4515,-2356,2053,-1339,645,-246,224,484,-106,1,0,33,35,320,1,53298,1
2,31067,29815,31477,50347,33701,-4507,-1149,313,827,-888,566,223,473,-103,1,0,33,35,360,1,53298,1
2,31083,29824,31487,50348,33712,-4510,-105,-507,0,-381,293,232,480,-116,1,0,33,35,400,1,53298,1
2,31070,29834,31479,50349,33724,-4492,-715,169,-209,-84,-149,233,473,-99,1,0,33,35,440,1,53298,1
2,31053,29833,31463,50350,33736,-4607,-640,-334,325,629,-210,229,487,-97,1,0,33,35,480,1,53298,1
2,31028,29956,31470,50351,33746,-4817,-1211,502,-45,906,-360,233,473,-103,1,0,33,35,520,1,53298,1
2,31029,29808,31471,50352,33756,-4494,-1137,1236,-434,-241,124,230,474,-96,1,0,33,35,560,1,53298,1
2,31062,29772,31478,50353,33766,-4647,-494,-499,96,-666,546,230,480,-104,1,0,33,35,600,1,53298,1
2,31061,29804,31476,50354,33777,-4499,-561,-97,-201,-144,78,229,473,-101,1,0,33,35,640,1,53298,1
2,31044,29808,31466,50355,33788,-4541,-787,13,170,211,-221,229,475,-101,1,0,33,35,680,1,53298,1
2,31023,29850,31464,50356,33799,-4836,-984,375,84,602,-274,229,473,-99,1,0,33,35,720,1,53298,1
2,31039,29802,31474,50357,33810,-4664,-888,899,-215,-373,164,222,482,-96,1,0,33,35,760,1,53298,1
2,31053,29862,31472,50358,33822,-4576,-596,-527,71,-223,351,230,474,-104,1,0,33,35,800,1,53298,1
2,31044,29843,31470,50359,33834,-4673,-833,336,-139,-73,-13,223,475,-113,1,0,33,35,840,1,53298,1
2,31060,29820,31479,50360,33845,-4691,-1124,482,-17,-292,146,227,485,-103,1,0,33,35,880,1,53298,1
2,31072,29808,31486,50361,33856,-4574,-483,-109,308,-334,130,231,471,-109,1,0,33,35,920,1,53298,1
2,31069,29802,31479,50362,33867,-4512,-678,-51,-141,-27,-19,227,471,-109,1,0,33,35,960,1,53298,1
1,31057,29801,31475,50363,0,-4663,-895,254,65,164,-79,224,476,-94,1,0,33,36,0,1,53298,1
2,31073,29831,31485,50364,33150,-4750,-1189,618,-70,-229,135,219,481,-95,1,0,33,36,40,1,53298,1
2,31082,29786,31488,50365,33162,-4544,-458,-149,84,-370,225,226,476,-114,1,0,33,36,80,1,53298,1
2,31090,29786,31490,50366,33175,-4476,-617,-44,-70,-90,23,230,466,-102,1,0,33,36,120,1,53298,1
2,31075,29790,31487,50367,33186,-4732,-1050,418,117,155,-76,233,483,-107,1,0,33,36,160,1,53298,1
2,31079,29784,31485,50368,33198,-4623,-753,193,-2,-33,30,227,477,-107,1,0,33,36,200,1,53298,1
2,31070,29789,31483,50369,33210,-4576,-806,134,-78,-4,17,222,466,-102,1,0,33,36,240,1,53298,1
2,31065,29779,31481,50370,33222,-4596,-796,152,34,29,16,227,479,-107,1,0,33,36,280,1,53298,1
2,31055,29780,31473,50371,33233,-4527,-534,-210,213,288,-10,226,470,-100,1,0,33,36,320,1,53298,1
2,31060,29831,31483,50372,33244,-4590,-1852,1084,-246,122,36,230,484,-88,1,0,33,36,360,1,53298,1
2,31074,29829,31484,50373,33255,-4580,-581,-83,269,-242,258,230,478,-100,1,0,33,36,400,1,53298,1
2,31075,29841,31488,50374,33267,-4557,-660,99,-22,-130,69,225,483,-103,1,0,33,36,440,1,53298,1
2,31076,29835,31489,50375,33278,-4726,-1138,453,-32,-8,-27,228,480,-104,1,0,33,36,480,1,53298,1
2,31084,29826,31500,50376,33289,-4662,-967,285,75,-225,110,227,477,-101,1,0,33,36,520,1,53298,1
2,31084,29811,31500,50377,33299,-4532,-525,-1,25,-181,66,229,473,-109,1,0,33,36,560,1,53298,1
2,31082,29809,31494,50378,33310,-4586,-787,156,15,28,-42,225,477,-103,1,0,33,36,600,1,53298,1
2,31070,29814,31490,50379,33321,-4615,-789,217,97,157,-59,219,473,-103,1,0,33,36,640,1,53298,1
2,31072,29830,31490,50380,33332,-4652,-1143,412,-121,-6,8,222,482,-98,1,0,33,36,680,1,53298,1
2,31072,29819,31494,50381,33343,-4571,-713,95,-107,-82,101,229,475,-111,1,0,33,36,720,1,53298,1
2,31071,29823,31496,50382,33354,-4685,-939,314,-7,-69,42,221,475,-99,1,0,33,36,760,1,53298,1
2,31093,29820,31499,50383,33366,-4605,-1173,366,-10,-392,168,231,473,-111,1,0,33,36,800,1,53298,1
2,31100,29822,31503,50384,33378,-4535,-433,-47,151,-420,142,223,483,-99,1,0,33,36,840,1,53298,1
2,31094,29824,31499,50385,33390,-4540,-622,105,-72,-41,-46,222,474,-108,1,0,33,36,880,1,53298,1
2,31071,29845,31490,50386,33400,-4519,-667,-43,84,277,-158,225,473,-99,1,0,33,36,920,1,53298,1
2,31040,29893,31475,50387,33410,-4608,-215,-157,82,852,-261,230,474,-108,1,0,33,36,960,1,53298,1
1,31053,29894,31488,50388,0,-4485,-2420,1637,-984,-86,57,223,477,-107,1,0,33,37,0,1,53298,1
2,31078,29878,31495,50389,32690,-4525,80,-721,616,-498,279,224,486,-98,1,0,33,37,40,1,53298,1
2,31073,29872,31494,50390,32701,-4495,-640,90,-82,-230,7,223,485,-107,1,0,33,37,80,1,53298,1
2,31060,29875,31485,50391,32713,-4558,-787,-29,47,281,-134,223,463,-101,1,0,33,37,120,1,53298,1
2,31031,29870,31470,50392,32723,-4628,-266,-163,255,741,-217,218,470,-92,1,0,33,37,160,1,53298,1
2,31048,29865,31484,50393,32734,-4447,-2180,1667,-843,-133,83,225,473,-97,1,0,33,37,200,1,53298,1
2,31067,29850,31493,50394,32744,-4554,-63,-760,402,-416,311,231,477,-99,1,0,33,37,240,1,53298,1
2,31059,29851,31490,50395,32755,-4554,-657,179,-78,-118,-39,232,472,-108,1,0,33,37,280,1,53298,1
2,31051,29862,31477,50396,32765,-4536,-713,-159,37,350,-135,230,470,-100,1,0,33,37,320,1,53298,1
2,31018,29860,31467,50397,32775,-4771,-793,-29,171,810,-247,223,483,-95,1,0,33,37,360,1,53298,1
2,31010,29871,31470,50398,32784,-4517,-1202,971,-713,295,-180,236,470,-104,1,0,33,37,400,1,53298,1
2,31012,29894,31469,50399,32793,-4626,-838,-134,58,92,87,229,475,-105,1,0,33,37,440,1,53298,1
2,31017,29905,31473,50400,32801,-4755,-1146,455,-48,-44,134,233,481,-111,1,0,33,37,480,1,53298,1
2,31042,29812,31476,50401,32811,-4409,-1108,609,68,-718,435,232,478,-104,1,0,33,37,520,1,53298,1
2,31051,29790,31479,50402,32821,-4598,-350,-457,335,-300,187,227,475,-103,1,0,33,37,560,1,53298,1
2,31037,29787,31475,50403,32833,-4557,-729,170,-105,-6,-178,234,478,-96,1,0,33,37,600,1,53298,1
2,31024,29796,31472,50404,32844,-4666,-818,76,61,353,-168,230,476,-100,1,0,33,37,640,1,53298,1
2,31039,29777,31479,50405,32854,-4617,-1350,918,-159,-332,167,226,476,-108,1,0,33,37,680,1,53298,1
2,31049,29784,31483,50406,32865,-4539,-335,-366,148,-337,258,231,477,-111,1,0,33,37,720,1,53298,1
2,31042,29781,31480,50407,32876,-4530,-654,134,-50,-118,8,224,478,-104,1,0,33,37,760,1,53298,1
2,31049,29782,31487,50408,32887,-4694,-1417,579,47,-13,-5,231,469,-95,1,0,33,37,800,1,53298,1
2,31059,29782,31493,50409,32899,-4613,-673,136,103,-269,147,222,468,-100,1,0,33,37,840,1,53298,1
2,31055,29790,31494,50410,32911,-4467,-609,-72,-140,-154,32,231,475,-101,1,0,33,37,880,1,53298,1
2,31045,29779,31485,50411,32923,-4610,-877,181,98,102,-59,225,475,-105,1,0,33,37,920,1,53298,1
2,31034,29789,31475,50412,32934,-4644,-530,113,164,378,-100,223,473,-97,1,0,33,37,960,1,53298,1
1,31036,29789,31481,50413,0,-4611,-1552,670,-471,-3,18,223,475,-97,1,0,33,38,0,0,53298,1
2,31037,29785,31478,50414,32229,-4586,-666,-50,32,-17,132,227,477,-103,1,0,33,38,40,0,53298,1
2,31045,29783,31482,50415,32240,-4797,-1169,617,-59,-56,23,225,483,-113,1,0,33,38,80,0,53298,1
2,31065,29788,31493,50416,32252,-4527,-992,119,-17,-486,182,230,482,-104,1,0,33,38,120,0,53298,1
2,31065,29791,31497,50417,32264,-4460,-426,-81,248,-317,133,230,470,-106,1,0,33,38,160,0,53298,1
2,31054,29780,31489,50418,32276,-4580,-757,107,-104,85,-94,225,483,-99,1,0,33,38,200,0,53298,1
2,31029,29797,31478,50419,32288,-4450,-425,-272,116,435,-168,226,478,-90,1,0,33,38,240,0,53298,1
2,31002,29795,31473,50420,32298,-5141,-1693,954,-241,771,-117,227,481,-105,1,0,33,38,280,0,53298,1
2,31028,29799,31483,50421,32309,-4631,-813,648,-462,-394,135,224,472,-102,1,0,33,38,320,0,53298,1
2,31036,29804,31484,50422,32321,-4465,-370,-419,573,-198,255,229,475,-95,1,0,33,38,360,0,53298,1
2,31024,29800,31479,50423,32332,-4658,-837,311,-240,-28,-76,225,479,-109,1,0,33,38,400,0,53298,1
2,31029,29793,31481,50424,32343,-4634,-1189,320,-78,10,-15,227,469,-97,1,0,33,38,440,0,53298,1
2,31031,29795,31486,50425,32355,-4597,-599,117,161,-73,104,221,471,-99,1,0,33,38,480,0,53298,1
2,31027,29794,31484,50426,32366,-4605,-877,134,-165,41,-40,231,475,-93,1,0,33,38,520,0,53298,1
2,31023,29798,31479,50427,32378,-4640,-809,233,45,64,-20,232,476,-102,1,0,33,38,560,0,53298,1
2,31034,29804,31492,50428,32390,-4680,-1249,624,-31,-186,131,224,476,-100,1,0,33,38,600,0,53298,1
2,31047,29807,31495,50429,32403,-4526,-411,-125,67,-304,128,230,478,-100,1,0,33,38,640,0,53298,1
2,31035,29794,31493,50430,32415,-4517,-620,41,9,-39,-22,239,473,-105,1,0,33,38,680,0,53298,1
2,31019,29793,31484,50431,32427,-4552,-739,3,87,197,-93,230,474,-96,1,0,33,38,720,0,53298,1
2,31017,29803,31481,50432,32438,-4885,-1437,832,-87,225,-20,220,478,-98,1,0,33,38,760,0,53298,1
2,31028,29796,31488,50433,32449,-4587,-727,219,-316,-250,140,221,473,-99,1,0,33,38,800,0,53298,1
2,31032,29800,31490,50434,32461,-4474,-586,-20,186,-159,112,238,474,-104,1,0,33,38,840,0,53298,1
2,31020,29795,31488,50435,32473,-4628,-855,203,-4,84,-48,224,480,-98,1,0,33,38,880,0,53298,1
2,31011,29793,31477,50436,32485,-4609,-673,102,103,250,-97,229,471,-107,1,0,33,38,920,0,53298,1
2,31019,29792,31482,50437,32496,-4601,-1193,494,-264,-82,51,220,472,-112,1,0,33,38,960,0,53298,1
1,31023,29789,31485,50438,0,-4554,-646,-63,22,-93,137,224,472,-102,1,0,33,39,0,0,53298,1
2,31026,29788,31480,50439,31769,-4628,-842,227,21,-39,1,227,489,-103,1,0,33,39,40,0,53298,1
2,31030,29799,31486,50440,31781,-4633,-1045,322,41,-6,-2,223,481,-97,1,0,33,39,80,0,53298,1
2,31038,29800,31487,50441,31793,-4605,-773,174,-52,-136,135,222,486,-108,1,0,33,39,120,0,53298,1
2,31028,29802,31490,50442,31803,-4553,-757,72,-53,-52,50,222,474,-106,1,0,33,39,160,0,53298,1
2,31028,29800,31488,50443,31814,-4620,-876,243,84,22,-17,225,481,-101,1,0,33,39,200,0,53298,1
2,31022,29801,31484,50444,31825,-4592,-761,137,28,85,-5,232,480,-108,1,0,33,39,240,0,53298,1
2,31011,29785,31478,50445,31835,-4586,-685,24,-65,240,-69,222,468,-102,1,0,33,39,280,0,53298,1
2,30996,29792,31468,50446,31846,-4682,-829,111,-232,545,-166,230,480,-96,1,0,33,39,320,0,53298,1
2,31006,29799,31478,50447,31856,-4585,-1241,916,-366,-102,75,232,472,-104,1,0,33,39,360,0,53298,1
2,31026,29790,31487,50448,31867,-4621,-571,-240,323,-327,279,234,472,-102,1,0,33,39,400,0,53298,1
2,31020,29780,31481,50449,31878,-4541,-652,73,-51,-163,36,234,476,-110,1,0,33,39,440,0,53298,1
2,31018,29781,31479,50450,31888,-4601,-857,146,35,65,-95,225,477,-99,1,0,33,39,480,0,53298,1
2,31014,29782,31479,50451,31899,-4710,-904,429,-19,57,-57,227,483,-97,1,0,33,39,520,0,53298,1
2,31020,29790,31486,50452,31910,-4571,-872,221,-348,-241,119,231,483,-107,1,0,33,39,560,0,53298,1
2,31024,29794,31486,50453,31921,-4541,-712,-30,-140,-84,97,225,477,-99,1,0,33,39,600,0,53298,1
2,31022,29801,31490,50454,31933,-4752,-1044,432,21,15,-15,229,473,-97,1,0,33,39,640,0,53298,1
2,31045,29801,31499,50455,31945,-4644,-1138,423,0,-413,207,225,473,-109,1,0,33,39,680,0,53298,1
2,31054,29804,31503,50456,31958,-4496,-437,-129,-36,-318,140,230,484,-116,1,0,33,39,720,0,53298,1
2,31046,29813,31500,50457,31970,-4572,-725,100,-32,-26,-44,233,481,-111,1,0,33,39,760,0,53298,1
2,31035,29817,31493,50458,31982,-4537,-676,-16,89,223,-110,239,479,-107,1,0,33,39,800,0,53298,1
2,31017,29822,31480,50459,31992,-4748,-888,374,-138,401,-116,230,478,-98,1,0,33,39,840,0,53298,1
2,31007,29802,31480,50460,32003,-4652,-1030,391,-532,211,-64,230,476,-98,1,0,33,39,880,0,53298,1
2,31018,29805,31487,50461,32014,-4629,-1004,382,-22,-123,143,232,472,-104,1,0,33,39,920,0,53298,1
2,31018,29798,31493,50462,32026,-4612,-632,32,107,-146,105,228,476,-102,1,0,33,39,960,0,53298,1
1,31021,29800,31489,50463,0,-4570,-787,149,-54,-49,-11,232,478,-100,1,0,33,40,0,0,53298,1
2,31013,29796,31485,50464,31309,-4615,-818,144,49,74,-38,236,472,-104,1,0,33,40,40,0,53298,1
2,31010,29803,31480,50465,31320,-4656,-751,183,35,122,-56,226,478,-98,1,0,33,40,80,0,53298,1
2,31031,29814,31496,50466,31331,-4721,-1478,808,-257,-274,148,230,482,-98,1,0,33,40,120,0,53298,1
2,31032,29815,31505,50467,31342,-4538,-275,-234,16,-384,175,230,480,-108,1,0,33,40,160,0,53298,1
2,31026,29807,31498,50468,31354,-4509,-647,52,28,-104,-2,233,481,-103,1,0,33,40,200,0,53298,1
2,31016,29811,31495,50469,31365,-4611,-848,130,118,190,-118,226,482,-102,1,0,33,40,240,0,53298,1
2,31006,29805,31488,50470,31377,-4799,-976,538,13,247,-59,226,478,-104,1,0,33,40,280,0,53298,1
2,31025,29809,31496,50471,31388,-4627,-971,339,-296,-179,125,227,475,-89,1,0,33,40,320,0,53298,1
2,31023,29807,31500,50472,31399,-4504,-551,-22,140,-201,136,221,485,-89,1,0,33,40,360,0,53298,1
2,31012,29804,31499,50473,31410,-4804,-1083,468,-11,-41,17,224,486,-92,1,0,33,40,400,0,53298,1
2,31034,29815,31509,50474,31422,-4575,-1023,280,-93,-373,152,240,478,-102,1,0,33,40,440,0,53298,1
2,31037,29815,31507,50475,31433,-4480,-455,-61,-10,-354,139,227,471,-107,1,0,33,40,480,0,53298,1
2,31027,29811,31502,50476,31446,-4572,-771,152,-44,63,-89,232,468,-98,1,0,33,40,520,0,53298,1
2,30993,29804,31491,50477,31457,-4456,-449,-214,137,382,-175,223,473,-95,1,0,33,40,560,0,53298,1
2,30944,29806,31472,50478,31468,-4720,-393,-168,194,1025,-218,232,480,-104,1,0,33,40,600,0,53298,1
2,30945,29826,31484,50479,31478,-4490,-2931,2023,-1303,318,-67,228,474,-100,1,0,33,40,640,0,53298,1
2,30998,29821,31494,50480,31489,-4769,-394,-620,841,-835,363,229,479,-103,1,0,33,40,680,0,53298,1
2,30980,29823,31494,50481,31501,-4420,-444,-112,16,-357,132,234,468,-110,1,0,33,40,720,0,53298,1
2,30951,29820,31486,50482,31512,-4526,-748,100,-116,134,-166,218,466,-96,1,0,33,40,760,0,53298,1
2,30917,29821,31474,50483,31522,-4603,-405,-247,383,646,-187,223,481,-97,1,0,33,40,800,0,53298,1
2,30913,29812,31475,50484,31531,-4899,-2473,1413,-592,509,-82,232,468,-102,1,0,33,40,840,0,53298,1
2,30943,29808,31481,50485,31541,-4557,-626,28,31,-504,234,234,476,-102,1,0,33,40,880,0,53298,1
2,30938,29803,31487,50486,31551,-4474,-443,-182,112,-172,166,226,472,-110,1,0,33,40,920,0,53298,1
2,30930,29796,31478,50487,31562,-4600,-841,200,-29,82,-103,233,473,-103,1,0,33,40,960,0,53298,1
1,30916,29802,31469,50488,0,-4615,-646,-145,177,453,-163,232,474,-106,1,0,33,41,0,1,53298,1
2,30915,29794,31477,50489,30847,-4639,-2085,1384,-471,8,3,227,481,-99,1,0,33,41,40,1,53298,1
2,30937,29810,31484,50490,30858,-4654,-386,-476,166,-476,299,226,468,-96,1,0,33,41,80,1,53298,1
2,30925,29799,31483,50491,30869,-4513,-646,79,-1,-150,48,222,476,-96,1,0,33,41,120,1,53298,1
2,30945,29805,31489,50492,30880,-4674,-1645,860,-86,-204,42,223,475,-111,1,0,33,41,160,1,53298,1
2,30945,29810,31499,50493,30892,-4535,-225,-282,215,-585,182,231,477,-105,1,0,33,41,200,1,53298,1
2,30944,29796,31498,50494,30905,-4420,-566,-100,-18,-173,42,231,469,-109,1,0,33,41,240,1,53298,1
2,30929,29805,31485,50495,30918,-4576,-799,42,15,268,-158,229,469,-99,1,0,33,41,280,1,53298,1
2,30894,29791,31470,50496,30930,-4563,-235,-288,233,754,-197,221,483,-99,1,0,33,41,320,1,53298,1
2,30900,29802,31482,50497,30941,-4550,-2779,1695,-781,141,48,227,481,-107,1,0,33,41,360,1,53298,1
2,30932,29804,31492,50498,30953,-4627,-154,-624,380,-574,296,222,474,-112,1,0,33,41,400,1,53298,1
2,30945,29796,31490,50499,30964,-4481,-619,43,12,-228,67,230,480,-110,1,0,33,41,440,1,53298,1
2,30940,29788,31485,50500,30976,-4654,-941,284,-44,123,-95,227,477,-107,1,0,33,41,480,1,53298,1
2,30951,29791,31493,50501,30987,-4672,-1028,506,63,-108,58,227,477,-99,1,0,33,41,520,1,53298,1
2,30917,29787,31494,50502,31000,-4534,-572,-56,-47,-135,107,226,472,-106,1,0,33,41,560,1,53298,1
2,30927,29788,31490,50503,31011,-4597,-863,159,-58,13,-58,232,468,-96,1,0,33,41,600,1,53298,1
2,30918,29784,31490,50504,31022,-4746,-963,454,181,117,-17,226,480,-104,1,0,33,41,640,1,53298,1
2,30930,29812,31506,50505,31034,-4676,-1376,672,-118,-548,293,224,472,-94,1,0,33,41,680,1,53298,1
2,30939,29813,31511,50506,31047,-4402,-135,-350,97,-586,322,229,479,-99,1,0,33,41,720,1,53298,1
2,30922,29802,31504,50507,31060,-4576,-639,123,-8,103,-130,229,473,-109,1,0,33,41,760,1,53298,1
2,30903,29808,31494,50508,31071,-4644,-915,221,86,358,-220,228,480,-104,1,0,33,41,800,1,53298,1
2,30905,29803,31482,50509,31082,-4583,-614,99,-72,354,-75,229,469,-103,1,0,33,41,840,1,53298,1
2,30885,29799,31470,50510,31093,-4820,-1018,404,-148,488,17,227,467,-113,1,0,33,41,880,1,53298,1
2,30932,29815,31505,50511,31103,-4799,-1915,1648,-465,-761,216,235,469,-99,1,0,33,41,920,1,53298,1
2,30878,29822,31507,50512,31116,-4423,493,-1019,356,-1195,577,227,475,-93,1,0,33,41,960,1,53298,1
1,30867,29810,31494,50513,0,-4347,-132,-335,-389,-206,-136,223,469,-101,1,0,33,42,0,0,53298,1
2,29899,29790,31441,50514,30388,-4464,-427,-439,414,1229,-633,232,478,-106,1,0,33,42,40,0,53298,1
2,29555,29781,31429,50515,30399,-5317,-1690,573,232,1629,-212,229,483,-99,1,0,33,42,80,0,53298,1
2,29582,29851,31445,50516,30409,-4691,-1740,2566,-754,-283,39,236,474,-104,1,0,33,42,120,0,53298,1
2,29535,29846,31467,50517,30422,-4651,371,-2000,425,-1198,572,232,474,-96,1,0,33,42,160,0,53298,1
2,29615,29828,31456,50518,30435,-4266,-215,-177,-254,-483,26,228,482,-102,1,0,33,42,200,0,53298,1
2,29615,29806,31432,50519,30447,-4494,-533,-285,309,781,-322,233,475,-109,1,0,33,42,240,0,53298,1
2,29405,29773,31425,50520,30458,-5196,-1730,391,234,1215,-132,228,472,-98,1,0,33,42,280,0,53298,1
2,29470,29802,31441,50521,30469,-4505,-1589,2433,-416,-521,140,229,473,-99,1,0,33,42,320,0,53298,1
2,29542,29820,31467,50522,30481,-4601,170,-1881,-150,-1216,583,223,469,-109,1,0,33,42,360,0,53298,1
2,29527,29804,31457,50523,30494,-4208,-68,-266,-307,-405,-44,229,481,-115,1,0,33,42,400,0,53298,1
2,29540,29807,31438,50524,30505,-4849,-920,456,444,908,-306,222,474,-104,1,0,33,42,440,0,53298,1
2,29547,29804,31467,50525,30516,-4863,-1736,1432,-325,-367,73,232,476,-98,1,0,33,42,480,0,53298,1
2,29586,29804,31468,50526,30529,-4355,553,-883,528,-806,476,224,474,-102,1,0,33,42,520,0,53298,1
2,29585,29793,31458,50527,30543,-4484,-489,-115,-789,157,-304,233,477,-103,1,0,33,42,560,0,53298,1
2,29540,29799,31436,50528,30555,-4544,-314,-300,493,1032,-352,240,470,-102,1,0,33,42,600,0,53298,1
2,29281,29805,31429,50529,30566,-5212,-1871,508,515,1320,-110,222,480,-100,1,0,33,42,640,0,53298,1
2,29365,29745,31438,50530,30576,-4463,-1452,1882,-602,-194,55,227,477,-105,1,0,33,42,680,0,53298,1
2,29306,29774,31463,50531,30588,-4836,-859,-835,90,-1216,603,228,486,-98,1,0,33,42,720,0,53298,1
2,29429,29771,31460,50532,30599,-4267,-39,-258,-380,-425,102,237,469,-99,1,0,33,42,760,0,53298,1
2,29395,29759,31439,50533,30611,-4407,-376,-295,211,464,-346,223,477,-97,1,0,33,42,800,0,53298,1
2,29260,29736,31425,50534,30621,-5173,-1911,300,35,1291,-262,224,470,-90,1,0,33,42,840,0,53298,1
2,29371,29750,31443,50535,30631,-4543,-1599,2236,-137,-207,45,228,474,-104,1,0,33,42,880,0,53298,1
2,29323,29770,31461,50536,30643,-4937,-317,-1310,97,-974,515,227,477,-103,1,0,33,42,920,0,53298,1
2,29368,29755,31450,50537,30656,-4290,-274,-192,-496,-265,-2,229,479,-105,1,0,33,42,960,0,53298,1
1,29339,29752,31454,50538,0,-4930,-1509,876,74,244,-172,233,477,-103,1,0,33,43,0,1,53298,1
2,29385,29761,31472,50539,29931,-4661,-596,113,157,-418,155,227,479,-95,1,0,33,43,40,1,53298,1
2,29391,29769,31469,50540,29945,-4294,-237,-308,559,-316,186,228,480,-96,1,0,33,43,80,1,53298,1
2,29412,29763,31460,50541,29958,-4637,-950,175,-544,180,-170,226,478,-104,1,0,33,43,120,1,53298,1
2,29440,29767,31449,50542,29971,-4824,-1002,546,380,398,-27,224,474,-90,1,0,33,43,160,1,53298,1
2,29488,29771,31467,50543,29985,-4789,-874,589,-143,-458,226,233,479,-107,1,0,33,43,200,1,53298,1
2,29514,29770,31470,50544,30000,-4390,-188,-425,-114,-678,325,227,479,-97,1,0,33,43,240,1,53298,1
2,29505,29770,31462,50545,30014,-4492,-501,28,-243,84,-155,231,481,-103,1,0,33,43,280,1,53298,1
2,29483,29757,31435,50546,30026,-4487,-100,-501,574,985,-332,232,476,-102,1,0,33,43,320,1,53298,1
2,29227,29745,31431,50547,30038,-5237,-2543,747,-183,1352,-218,222,480,-102,1,0,33,43,360,1,53298,1
2,29333,29743,31435,50548,30049,-4373,-1053,1663,-469,-226,41,230,472,-102,1,0,33,43,400,1,53298,1
2,29312,29806,31453,50549,30062,-4923,-827,-668,330,-955,567,232,474,-102,1,0,33,43,440,1,53298,1
2,29312,29826,31453,50550,30075,-4389,-153,-200,-480,-441,71,234,472,-98,1,0,33,43,480,1,53298,1
2,29351,29811,31437,50551,30088,-4425,-537,-126,183,196,-260,224,474,-104,1,0,33,43,520,1,53298,1
2,29344,29741,31428,50552,30100,-4989,-963,-72,326,961,-128,228,480,-104,1,0,33,43,560,1,53298,1
2,29282,29755,31434,50553,30111,-4543,-1488,1288,-345,482,-301,235,475,-109,1,0,33,43,600,1,53298,1
2,29355,29805,31451,50554,30123,-4458,-1556,1127,111,-1056,615,221,479,-95,1,0,33,43,640,1,53298,1
2,29284,29828,31457,50555,30136,-4455,309,-946,-314,-593,377,225,477,-101,1,0,33,43,680,1,53298,1
2,29301,29781,31444,50556,30149,-4465,-505,91,-29,-107,-259,229,479,-101,1,0,33,43,720,1,53298,1
2,29360,29764,31425,50557,30161,-4700,-505,-382,548,787,-138,234,480,-104,1,0,33,43,760,1,53298,1
2,29321,29743,31435,50558,30173,-4808,-2177,1273,-439,775,-285,233,469,-109,1,0,33,43,800,1,53298,1
2,29358,29769,31444,50559,30185,-4482,-1317,1119,238,-970,451,223,479,-101,1,0,33,43,840,1,53298,1
2,29233,29778,31455,50560,30197,-4417,41,-970,-179,-518,381,229,483,-105,1,0,33,43,880,1,53298,1
2,29301,29775,31445,50561,30210,-4545,-618,226,-235,-112,-206,231,473,-103,1,0,33,43,920,1,53298,1
2,29336,29768,31441,50562,30221,-4658,-1121,170,201,281,-40,222,466,-104,1,0,33,43,960,1,53298,1
1,29370,29760,31441,50563,0,-4614,-774,252,266,184,32,229,473,-107,1,0,33,44,0,0,53298,1
2,29402,29746,31442,50564,29470,-4619,-920,-24,-406,410,23,227,473,-105,1,0,33,44,40,0,53298,1
2,29384,29747,31434,50565,29480,-4764,-1267,544,-217,414,-76,236,480,-96,1,0,33,44,80,0,53298,1
2,29418,29762,31446,50566,29492,-4541,-1460,1263,365,-730,429,222,476,-104,1,0,33,44,120,0,53298,1
2,29479,29774,31458,50567,29504,-4567,172,-827,75,-642,212,228,478,-98,1,0,33,44,160,0,53298,1
2,29479,29763,31449,50568,29517,-4399,-491,22,-312,-219,-197,225,485,-95,1,0,33,44,200,0,53298,1
2,29452,29755,31431,50569,29529,-4556,-415,-420,257,620,-208,223,483,-95,1,0,33,44,240,0,53298,1
2,29325,29745,31430,50570,29541,-4961,-2036,611,-158,1066,-324,233,479,-97,1,0,33,44,280,0,53298,1
2,29372,29749,31438,50571,29552,-4481,-1012,1509,-87,-570,233,219,485,-101,1,0,33,44,320,0,53298,1
2,29312,29772,31449,50572,29565,-4726,-245,-1097,152,-520,463,227,469,-109,1,0,33,44,360,0,53298,1
2,29351,29770,31455,50573,29577,-4647,-1069,469,-599,-295,-54,236,470,-102,1,0,33,44,400,0,53298,1
2,29392,29775,31457,50574,29589,-4613,-1069,224,149,-94,-58,223,471,-99,1,0,33,44,440,0,53298,1
2,29452,29771,31467,50575,29602,-4551,-438,114,346,-146,21,231,477,-105,1,0,33,44,480,0,53298,1
2,29436,29777,31453,50576,29615,-4586,-836,35,-91,149,-81,227,479,-101,1,0,33,44,520,0,53298,1
2,29444,29764,31439,50577,29627,-4521,-360,-210,128,293,-50,227,479,-103,1,0,33,44,560,0,53298,1
2,29464,29760,31442,50578,29640,-5136,-2914,1403,-42,366,135,242,482,-102,1,0,33,44,600,0,53298,1
2,29482,29778,31460,50579,29652,-4775,-887,177,46,-835,276,224,474,-100,1,0,33,44,640,0,53298,1
2,29521,29790,31467,50580,29664,-4311,-65,-349,299,-536,213,227,471,-99,1,0,33,44,680,0,53298,1
2,29502,29780,31453,50581,29677,-4530,-549,63,-270,121,-209,232,476,-100,1,0,33,44,720,0,53298,1
2,29475,29762,31432,50582,29689,-4587,-199,-537,671,842,-196,222,472,-104,1,0,33,44,760,0,53298,1
2,29263,29737,31433,50583,29700,-4853,-2382,933,-468,1151,-378,231,475,-109,1,0,33,44,800,0,53298,1
2,29330,29746,31439,50584,29710,-4539,-1292,1444,-56,-348,195,227,479,-99,1,0,33,44,840,0,53298,1
2,29296,29780,31462,50585,29722,-5026,-639,-735,-40,-898,539,227,475,-101,1,0,33,44,880,0,53298,1
2,29287,29795,31455,50586,29734,-4316,-262,-109,-335,-377,-17,231,477,-109,1,0,33,44,920,0,53298,1
2,29331,29794,31448,50587,29746,-4517,-551,-59,344,227,-202,229,477,-109,1,0,33,44,960,0,53298,1
1,29373,29752,31436,50588,0,-4926,-1369,-43,203,870,-144,227,469,-101,1,0,33,45,0,0,53298,1
2,29360,29755,31444,50589,29010,-4456,-1593,1447,-437,214,-179,225,473,-107,1,0,33,45,40,0,53298,1
2,29266,29787,31450,50590,29021,-4699,-660,-127,154,-785,526,229,473,-107,1,0,33,45,80,0,53298,1
2,29268,29793,31456,50591,29033,-4467,-359,-288,-320,-285,187,227,483,-99,1,0,33,45,120,0,53298,1
2,29290,29791,31453,50592,29045,-4764,-1304,629,89,-91,-123,231,479,-99,1,0,33,45,160,0,53298,1
2,29389,29814,31473,50593,29057,-4752,-1193,458,-118,-530,133,221,473,-99,1,0,33,45,200,0,53298,1
2,29410,29800,31477,50594,29070,-4362,-68,-243,-31,-515,160,236,478,-102,1,0,33,45,240,0,53298,1
2,29439,29791,31466,50595,29083,-4568,-678,108,-333,128,-173,235,473,-103,1,0,33,45,280,0,53298,1
2,29486,29762,31450,50596,29095,-4459,-219,-313,379,557,-162,217,483,-95,1,0,33,45,320,0,53298,1
2,29358,29740,31439,50597,29106,-5154,-1567,246,181,1149,-93,233,477,-107,1,0,33,45,360,0,53298,1
2,29204,29734,31438,50598,29116,-4425,-843,1071,-811,498,-456,228,486,-104,1,0,33,45,400,0,53298,1
2,29294,29765,31447,50599,29125,-4553,-1744,1107,189,-657,621,221,477,-93,1,0,33,45,440,0,53298,1
2,29262,29807,31466,50600,29137,-4996,-124,-1049,-303,-1016,413,233,479,-103,1,0,33,45,480,0,53298,1
2,29294,29788,31465,50601,29150,-4220,-404,-161,24,-446,-113,227,483,-103,1,0,33,45,520,0,53298,1
2,29332,29788,31455,50602,29163,-4638,-577,38,344,379,-182,227,473,-115,1,0,33,45,560,0,53298,1
2,29391,29814,31470,50603,29176,-4644,-2052,990,-318,-250,85,227,475,-101,1,0,33,45,600,0,53298,1
2,29415,29789,31474,50604,29189,-4439,-94,-435,158,-503,299,231,471,-99,1,0,33,45,640,0,53298,1
2,29437,29781,31469,50605,29202,-4540,-689,158,-628,-23,-81,234,464,-96,1,0,33,45,680,0,53298,1
2,29463,29804,31479,50606,29215,-4705,-1111,305,146,9,47,229,479,-101,1,0,33,45,720,0,53298,1
2,29446,29799,31475,50607,29228,-4581,-576,126,324,-115,162,222,478,-94,1,0,33,45,760,0,53298,1
2,29476,29786,31470,50608,29240,-4595,-830,93,-293,94,-120,231,479,-103,1,0,33,45,800,0,53298,1
2,29453,29771,31459,50609,29253,-4412,-319,-227,199,323,-183,229,477,-99,1,0,33,45,840,0,53298,1
2,29418,29750,31435,50610,29265,-4782,-423,-237,638,955,-66,223,467,-101,1,0,33,45,880,0,53298,1
2,29197,29733,31438,50611,29275,-4544,-2120,1004,-1105,875,-320,230,480,-108,1,0,33,45,920,0,53298,1
2,29309,29753,31440,50612,29286,-4516,-1236,1038,352,-508,351,232,472,-104,1,0,33,45,960,0,53298,1
1,29281,29778,31462,50613,0,-4933,-847,-437,31,-886,476,222,476,-98,1,0,33,46,0,1,53298,1
2,29266,29789,31461,50614,28551,-4372,-245,-74,-544,-514,-48,237,471,-101,1,0,33,46,40,1,53298,1
2,29301,29787,31457,50615,28563,-4492,-625,-32,206,97,-163,228,482,-104,1,0,33,46,80,1,53298,1
2,29344,29766,31435,50616,28574,-4620,-359,-238,553,624,-100,239,473,-105,1,0,33,46,120,1,53298,1
2,29253,29750,31430,50617,28583,-4830,-1933,477,-323,997,-246,233,469,-109,1,0,33,46,160,1,53298,1
2,29170,29743,31429,50618,28593,-4513,-719,676,-97,236,-259,223,475,-101,1,0,33,46,200,1,53298,1
2,29180,30012,31428,50619,28602,-4634,-903,-43,209,194,54,230,470,-108,1,0,33,46,240,1,53298,1
2,29242,29774,31449,50620,28612,-4662,-1085,419,-122,-223,280,233,475,-103,1,0,33,46,280,1,53298,1
2,29268,30211,31458,50621,28621,-4582,-738,94,-295,-314,324,231,477,-111,1,0,33,46,320,1,53298,1
2,29287,30292,31457,50622,28630,-4649,-810,9,-98,-20,41,231,473,-103,1,0,33,46,360,1,53298,1
2,29315,30237,31453,50623,28639,-4583,-879,166,93,-7,-118,229,471,-113,1,0,33,46,400,1,53298,1
2,29333,30319,31457,50624,28650,-4635,-846,127,176,81,-85,230,468,-104,1,0,33,46,440,1,53298,1
2,29305,30283,31455,50625,28659,-4698,-1131,420,-33,11,9,229,477,-105,1,0,33,46,480,1,53298,1
2,29253,34355,31445,50626,28669,-4473,-912,374,-352,-422,407,231,477,-107,1,0,33,46,520,1,53298,1
2,29239,34366,31445,50627,28679,-4670,-531,-240,131,-159,180,228,484,-114,1,0,33,46,560,1,53298,1
2,29269,34355,31444,50628,28689,-4588,-887,163,-43,86,-126,223,473,-109,1,0,33,46,600,1,53298,1
2,29334,34342,31438,50629,28700,-4630,-681,-23,19,222,-172,227,469,-99,1,0,33,46,640,1,53298,1
2,29303,34323,31434,50630,28709,-4911,-909,-158,-2286,422,-532,223,481,-103,1,0,33,46,680,1,53298,1
2,29268,34297,31436,50631,28719,-4504,-1038,550,-2368,158,-616,235,477,-105,1,0,33,46,720,1,53298,1
2,29272,34277,31425,50632,28728,-4406,-906,231,-1585,-51,-384,233,473,-109,1,0,33,46,760,1,53298,1
2,29263,30450,31426,50633,28737,-4579,-1029,228,-1003,-10,-172,243,479,-113,1,0,33,46,800,1,53298,1
2,29245,33227,31445,50634,28746,-4559,-942,189,-332,75,-113,241,475,-115,1,0,33,46,840,1,53298,1
2,29284,30417,31456,50635,28756,-4958,-358,-183,-674,47,-140,244,472,-108,1,0,33,46,880,1,53298,1
2,29282,30627,31451,50636,28766,-5083,-965,-101,-2475,24,-500,241,479,-109,1,0,33,46,920,1,53298,1
2,29244,30381,31425,50637,28776,-4384,-1074,476,142,208,-58,240,474,-118,1,0,33,46,960,1,53298,1
1,29210,30574,31447,50638,0,-3990,-1093,422,597,1,174,248,476,-116,1,0,33,47,0,1,53298,1
2,29244,30535,31446,50639,28089,-3989,-1410,216,319,262,155,239,477,-111,1,0,33,47,40,1,53298,1
2,29271,30549,31462,50640,28099,-4349,-954,359,1799,620,213,238,482,-110,1,0,33,47,80,1,53298,1
2,29274,30625,31485,50641,28107,-6102,-597,-375,-2147,172,-293,241,471,-109,1,0,33,47,120,1,53298,1
2,29265,30624,31465,50642,28116,-4515,-901,402,793,-129,-120,242,476,-110,1,0,33,47,160,1,53298,1
2,29246,30615,31452,50643,28124,-3691,-1106,433,1911,-285,264,235,475,-115,1,0,33,47,200,1,53298,1
2,29272,30615,31459,50644,28133,-3716,-1508,316,91,13,189,240,480,-120,1,0,33,47,240,1,53298,1
2,29259,30606,31486,50645,28142,-4833,-464,-368,-152,270,79,237,477,-111,1,0,33,47,280,1,53298,1
2,29281,30566,31489,50646,28151,-5799,-736,86,-1633,203,-57,242,474,-114,1,0,33,47,320,1,53298,1
2,29263,30616,31465,50647,28160,-4346,-856,319,916,-289,-25,238,474,-114,1,0,33,47,360,1,53298,1
2,29292,30588,31462,50648,28168,-3750,-1313,281,800,-287,101,234,476,-106,1,0,33,47,400,1,53298,1
2,29249,29924,31467,50649,28177,-3931,-1421,320,630,305,174,237,477,-113,1,0,33,47,440,1,53298,1
2,29325,30298,31498,50650,28186,-6989,407,-767,-1466,319,11,246,482,-118,1,0,33,47,480,1,53298,1
2,29253,29857,31466,50651,28195,-5153,-1193,213,-919,-129,-384,243,481,-113,1,0,33,47,520,1,53298,1
2,29216,30274,31454,50652,28203,-3799,-946,474,1922,-254,201,232,474,-108,1,0,33,47,560,1,53298,1
2,29215,30541,31455,50653,28212,-3624,-1514,311,111,-110,259,239,479,-111,1,0,33,47,600,1,53298,1
2,29229,30551,31469,50654,28220,-3615,-1587,473,935,508,114,236,476,-108,1,0,33,47,640,1,53298,1
2,29277,30608,31497,50655,28228,-7440,659,-1105,-2188,601,-241,232,482,-114,1,0,33,47,680,1,53298,1
2,29236,30605,31465,50656,28236,-5068,-1149,360,113,-16,-209,240,482,-122,1,0,33,47,720,1,53298,1
2,29229,30606,31451,50657,28245,-3812,-940,358,2071,-499,157,234,472,-112,1,0,33,47,760,1,53298,1
2,29261,30603,31454,50658,28254,-3403,-1684,365,516,10,195,237,473,-123,1,0,33,47,800,1,53298,1
2,29208,30616,31500,50659,28263,-6807,658,-1448,-2477,211,-115,235,469,-109,1,0,33,47,840,1,53298,1
