sensorStatus,cap1,cap2,cap3,counter,microseconds_since_last_tick,accX,accY,accZ,gyroX,gyroY,gyroZ,magnetX,magnetY,magnetZ,day,hour,min,sec,msec,sync,battery_fuel,crc_good
2,31403,30372,31923,37292,8398,-3957,-2909,-187,25,2,11,432,326,-192,1,0,24,53,160,1,53298,1
2,31402,30370,31922,37293,8415,-3959,-2902,-189,11,-2,11,439,329,-197,1,0,24,53,200,1,53298,1
2,31404,30370,31917,37294,8431,-3954,-2909,-186,4,-19,23,431,333,-189,1,0,24,53,240,1,53298,1
2,31403,30381,31923,37295,8448,-3962,-2921,-191,7,-15,22,429,333,-195,1,0,24,53,280,1,53298,1
2,31399,30361,31909,37296,8464,-3953,-2908,-186,8,-7,25,434,330,-190,1,0,24,53,320,1,53298,1
2,31402,30348,31912,37297,8479,-3958,-2918,-193,15,8,25,435,323,-195,1,0,24,53,360,1,53298,1
2,31398,30349,31918,37298,8495,-3954,-2920,-200,21,15,14,437,327,-193,1,0,24,53,400,1,53298,1
2,31398,30335,31912,37299,8510,-3958,-2917,-195,25,10,21,438,328,-194,1,0,24,53,440,1,53298,1
0,31398,30335,31912,37299,8526,-3958,-2917,-195,25,10,21,438,328,-194,1,0,24,53,440,1,53298,1
2,31400,30331,31920,37314,7874,-3956,-2909,-195,-2,-14,30,438,330,-192,1,0,24,54,40,0,53298,1
2,31403,30325,31926,37315,7891,-3951,-2917,-196,2,-15,24,429,317,-191,1,0,24,54,80,0,53298,1
2,31400,30332,31919,37316,7907,-3948,-2903,-185,9,-11,14,433,333,-193,1,0,24,54,120,0,53298,1
2,31400,30328,31936,37317,7922,-3936,-2906,-186,17,-4,20,431,333,-189,1,0,24,54,160,0,53298,1
2,31399,30324,31922,37318,7938,-3945,-2914,-182,16,-3,9,436,334,-198,1,0,24,54,200,0,53298,1
2,31401,30305,31918,37319,7955,-3954,-2902,-186,20,-12,-5,442,330,-196,1,0,24,54,240,0,53298,1
2,31402,30322,31920,37320,7971,-3952,-2916,-206,3,-22,-16,440,334,-198,1,0,24,54,280,0,53298,1
2,31402,30306,31924,37321,7987,-3957,-2913,-186,2,-37,-22,445,329,-199,1,0,24,54,320,0,53298,1
2,31400,30318,31925,37322,8004,-3968,-2928,-193,-33,-43,4,432,328,-186,1,0,24,54,360,0,53298,1
2,31394,30309,31914,37323,8021,-3965,-2907,-202,-32,-42,25,435,331,-191,1,0,24,54,400,0,53298,1
2,31393,30304,31926,37324,8038,-3951,-2908,-202,22,-9,-6,437,331,-199,1,0,24,54,440,0,53298,1
2,31397,30321,31927,37325,8054,-3974,-2920,-184,48,-8,-24,439,333,-195,1,0,24,54,480,0,53298,1
0,31397,30321,31927,37325,8070,-3974,-2920,-184,48,-8,-24,439,333,-195,1,0,24,54,480,0,53298,1
2,31398,30299,31923,37327,8087,-3954,-2914,-184,3,-32,-25,437,333,-187,1,0,24,54,560,0,53298,1
2,31397,30320,31919,37328,8104,-3941,-2916,-184,1,-7,17,432,330,-188,1,0,24,54,600,0,53298,1
2,31394,30298,31908,37329,8119,-3947,-2923,-195,40,25,57,438,328,-190,1,0,24,54,640,0,53298,1
2,31401,30291,31912,37330,8135,-3957,-2912,-184,80,66,47,436,328,-198,1,0,24,54,680,0,53298,1
2,31394,30294,31920,37331,8151,-3963,-2918,-191,76,45,19,441,335,-191,1,0,24,54,720,0,53298,1
2,31396,30283,31923,37332,8168,-3950,-2925,-187,11,-22,18,429,325,-187,1,0,24,54,760,0,53298,1
2,31396,30289,31920,37333,8184,-3949,-2923,-180,-68,-79,17,431,331,-179,1,0,24,54,800,0,53298,1
2,31396,30286,31921,37334,8200,-3960,-2929,-166,-79,-77,31,432,336,-198,1,0,24,54,840,0,53298,1
2,31395,30285,31921,37335,8217,-3939,-2912,-184,-41,-28,39,433,325,-191,1,0,24,54,880,0,53298,1
2,31391,30278,31923,37336,8234,-3950,-2908,-199,10,20,31,437,329,-197,1,0,24,54,920,0,53298,1
2,31392,30297,31908,37337,8251,-3953,-2924,-199,56,38,22,435,333,-191,1,0,24,54,960,0,53298,1
1,31393,30276,31911,37338,7400,-3952,-2911,-185,68,45,14,439,335,-183,1,0,24,55,0,0,53298,1
2,31398,30286,31926,37339,7416,-3947,-2911,-193,34,-3,-11,433,329,-195,1,0,24,55,40,0,53298,1
2,31393,30270,31920,37340,7433,-3962,-2924,-196,-29,-61,-12,438,324,-190,1,0,24,55,80,0,53298,1
2,31393,30263,31918,37341,7448,-3944,-2925,-183,-53,-68,-9,438,326,-202,1,0,24,55,120,0,53298,1
2,31394,30253,31912,37342,7464,-3950,-2918,-206,-43,-60,14,432,328,-196,1,0,24,55,160,0,53298,1
2,31391,30269,31910,37343,7479,-3955,-2920,-181,4,-13,51,441,339,-195,1,0,24,55,200,0,53298,1
2,31393,30243,31915,37344,7495,-3938,-2914,-182,28,21,56,432,330,-180,1,0,24,55,240,0,53298,1
2,31393,30260,31914,37345,7510,-3946,-2905,-190,37,33,32,433,327,-201,1,0,24,55,280,0,53298,1
2,31393,30254,31910,37346,7526,-3955,-2907,-195,40,33,5,438,326,-186,1,0,24,55,320,0,53298,1
2,31391,30235,31913,37347,7542,-3951,-2918,-195,33,21,8,430,326,-194,1,0,24,55,360,0,53298,1
2,31391,30249,31915,37348,7558,-3949,-2920,-187,11,-18,6,435,331,-187,1,0,24,55,400,0,53298,1
2,31389,30235,31923,37349,7575,-3949,-2912,-229,-13,-110,26,436,334,-196,1,0,24,55,440,0,53298,1
2,31390,30220,31917,37350,7590,-3966,-2981,-330,-88,-135,122,433,331,-189,1,0,24,55,480,0,53298,1
2,31388,30235,31912,37351,7590,-3983,-2924,-240,180,32,230,443,331,-195,1,0,24,55,520,0,53298,1
2,31359,30466,31903,37352,7623,-3999,-2996,-254,270,268,389,427,333,-195,1,0,24,55,560,0,53298,1
2,31377,30179,31882,37353,7623,-3965,-2804,-163,1131,414,412,434,332,-182,1,0,24,55,600,0,53298,1
2,31358,30237,31879,37354,7639,-3933,-2860,-24,595,521,141,430,328,-192,1,0,24,55,640,0,53298,1
2,31370,30335,31890,37355,7655,-3985,-2938,-193,-37,338,110,432,330,-192,1,0,24,55,680,0,53298,1
2,31382,30252,31895,37356,7670,-4014,-2886,-281,255,321,275,432,334,-184,1,0,24,55,720,0,53298,1
2,31395,30721,31895,37357,7686,-3934,-2900,-220,239,414,273,430,340,-196,1,0,24,55,760,0,53298,1
2,31388,30480,31899,37358,7702,-3964,-2859,-2,-3,256,412,429,341,-189,1,0,24,55,800,0,53298,1
2,31391,30542,31893,37359,7718,-4071,-2771,53,-690,-190,435,434,342,-190,1,0,24,55,840,0,53298,1
2,31338,30494,31882,37360,7733,-4037,-2868,-170,-1743,-657,586,434,342,-192,1,0,24,55,880,0,53298,1
2,31393,30509,31877,37361,7750,-3901,-2923,-370,-1824,-721,609,424,340,-192,1,0,24,55,920,0,53298,1
2,31394,30450,31881,37362,7766,-3919,-2892,-428,-1144,-430,494,430,328,-198,1,0,24,55,960,0,53298,1
1,31389,30401,31886,37363,6927,-3992,-2845,-327,-343,-36,309,431,331,-197,1,0,24,56,0,0,53298,1
2,31389,30367,31877,37364,6943,-4068,-2778,-135,86,73,80,435,333,-197,1,0,24,56,40,0,53298,1
2,31391,30385,31882,37365,6959,-4037,-2802,-120,-343,-178,-148,427,341,-197,1,0,24,56,80,0,53298,1
2,31390,30430,31883,37366,6976,-3957,-2871,-242,-879,-454,-176,437,333,-203,1,0,24,56,120,0,53298,1
2,31387,30304,31872,37367,6992,-3899,-2911,-305,-822,-488,-38,426,332,-192,1,0,24,56,160,0,53298,1
2,31384,30386,31872,37368,7009,-3943,-2881,-313,-292,-314,65,429,339,-185,1,0,24,56,200,0,53298,1
2,31386,30483,31883,37369,7025,-4026,-2820,-233,206,-138,123,429,343,-199,1,0,24,56,240,0,53298,1
2,31386,30539,31888,37370,7040,-4017,-2798,-168,275,-134,68,424,334,-184,1,0,24,56,280,0,53298,1
2,31389,30542,31878,37371,7055,-3993,-2805,-139,-28,-211,-84,435,331,-193,1,0,24,56,320,0,53298,1
2,31390,30514,31887,37372,7071,-3956,-2879,-240,-89,-178,-225,431,341,-193,1,0,24,56,360,0,53298,1
2,31387,30482,31888,37373,7086,-3960,-2868,-302,103,22,-244,426,334,-192,1,0,24,56,400,0,53298,1
2,31391,30590,31891,37374,7102,-3992,-2853,-237,362,208,-236,437,341,-197,1,0,24,56,440,0,53298,1
2,31391,30492,31880,37375,7118,-4024,-2834,-201,455,268,-206,438,332,-194,1,0,24,56,480,0,53298,1
2,31386,30335,31877,37376,7133,-4022,-2841,-217,264,150,-152,431,331,-203,1,0,24,56,520,0,53298,1
2,31379,30344,31880,37377,7148,-3991,-2845,-239,13,-24,-85,427,333,-187,1,0,24,56,560,0,53298,1
2,31380,30370,31879,37378,7164,-3979,-2881,-239,-121,-136,8,438,330,-198,1,0,24,56,600,0,53298,1
2,31383,30431,31880,37379,7179,-3990,-2859,-205,-186,-135,55,433,329,-193,1,0,24,56,640,0,53298,1
2,31385,30445,31877,37380,7194,-3995,-2860,-222,-148,-72,79,440,338,-196,1,0,24,56,680,0,53298,1
2,31386,30428,31888,37381,7211,-3979,-2865,-223,35,54,55,431,327,-193,1,0,24,56,720,0,53298,1
2,31386,30430,31881,37382,7226,-4012,-2854,-202,90,118,21,430,336,-198,1,0,24,56,760,0,53298,1
2,31387,30491,31881,37383,7241,-4017,-2863,-227,13,127,207,434,342,-198,1,0,24,56,800,0,53298,1
2,31402,30505,31893,37384,7257,-4011,-2831,-251,-44,87,287,428,338,-204,1,0,24,56,840,0,53298,1
2,31394,30408,31876,37385,7274,-3978,-2907,-473,-348,109,676,427,339,-199,1,0,24,56,880,0,53298,1
2,31389,30432,32069,37386,7293,-4021,-2827,-425,-124,259,1075,429,339,-211,1,0,24,56,920,0,53298,1
2,31489,30408,32119,37387,7293,-3649,-2889,-225,425,-43,1926,427,347,-201,1,0,24,56,960,0,53298,1
1,31532,32229,31986,37388,6454,-2793,2644,-1591,-1522,600,3935,423,363,-219,1,0,24,57,0,0,53298,1
2,31491,34087,32097,37389,6473,-3936,-1086,-3131,-9454,6406,8652,416,392,-224,1,0,24,57,40,0,53298,1
2,31537,30721,32069,37390,6492,-4383,-777,-1178,1578,8610,12997,399,435,-233,1,0,24,57,80,0,53298,1
2,31458,33521,32024,37391,6509,-4789,-882,-121,-424,10160,13621,383,475,-235,1,0,24,57,120,0,53298,1
2,31420,34199,31946,37392,6526,-4709,-1459,-75,-8130,9373,12505,363,505,-267,1,0,24,57,160,0,53298,1
2,31386,33371,31875,37393,6542,-4993,-2772,-423,-9941,6272,12338,341,539,-271,1,0,24,57,200,0,53298,1
2,31325,32315,31842,37394,6560,-5130,-2641,-706,-5519,3336,12032,296,568,-264,1,0,24,57,240,0,53298,1
2,31310,31693,31821,37395,6576,-5388,-1868,-237,993,222,10807,270,572,-272,1,0,24,57,280,0,53298,1
2,31287,31722,31801,37396,6593,-5366,-2186,-850,-969,-1000,8211,254,578,-254,1,0,24,57,320,0,53298,1
2,31263,31738,31768,37397,6609,-5081,-1943,-959,-1208,-1799,5293,233,579,-241,1,0,24,57,360,0,53298,1
2,31298,32028,31755,37398,6626,-4869,-736,-664,-399,-2730,2964,228,576,-238,1,0,24,57,400,0,53298,1
2,31733,30550,32359,37399,6643,-4493,-480,-1439,-5667,-1879,508,236,574,-232,1,0,24,57,440,0,53298,1
2,32034,30981,32511,37400,6662,-4137,-2974,-3618,-8104,-1044,-465,228,568,-236,1,0,24,57,480,0,53298,1
2,31820,32091,32376,37401,6682,-4461,-103,-817,9934,-1762,1306,221,575,-209,1,0,24,57,520,0,53298,1
2,31705,31660,32205,37402,6700,-4403,2267,402,9868,-3417,1075,222,568,-222,1,0,24,57,560,0,53298,1
2,31640,34172,32112,37403,6719,-4208,-1140,-2505,-11370,-407,-1073,226,568,-218,1,0,24,57,600,0,53298,1
2,31678,34232,32058,37404,6737,-4553,-911,-1593,690,-2744,879,228,570,-214,1,0,24,57,640,0,53298,1
2,31601,33040,32056,37405,6755,-4483,939,441,6532,-4187,2255,224,560,-192,1,0,24,57,680,0,53298,1
2,31595,34144,32039,37406,6772,-4686,-1647,-1153,-4908,-2453,913,205,561,-181,1,0,24,57,720,0,53298,1
2,31596,34150,32119,37407,6789,-4780,-830,-1591,226,-2649,864,207,549,-177,1,0,24,57,760,0,53298,1
2,31685,34277,32297,37408,6807,-4895,-1460,-1198,2655,-892,361,191,555,-175,1,0,24,57,800,0,53298,1
2,31705,34851,32337,37409,6824,-4918,820,773,11970,-2212,1557,196,544,-158,1,0,24,57,840,0,53298,1
2,31661,34803,32200,37410,6841,-4550,812,514,3832,-3700,1993,197,537,-153,1,0,24,57,880,0,53298,1
2,31619,34806,32125,37411,6858,-4439,-74,-622,-11005,-2517,537,213,533,-153,1,0,24,57,920,0,53298,1
2,31606,34743,32062,37412,6858,-4441,-923,-630,-11542,-3382,-595,211,523,-151,1,0,24,57,960,0,53298,1
1,31632,34634,32079,37413,5981,-4667,-364,-43,-6577,-4646,-1517,224,496,-134,1,0,24,58,0,1,53298,1
2,31618,34541,32074,37414,5997,-4596,-1973,-11,-3133,-6961,-1547,224,498,-140,1,0,24,58,40,1,53298,1
2,31629,34703,32119,37415,6013,-4951,-1491,-670,-4980,-4940,-968,227,489,-123,1,0,24,58,80,1,53298,1
2,31669,34800,32144,37416,6030,-5225,-378,960,3786,-7009,-1987,230,474,-114,1,0,24,58,120,1,53298,1
2,31696,34933,32164,37417,6047,-5244,-1126,-380,-4941,-6061,-3614,246,474,-114,1,0,24,58,160,1,53298,1
2,31679,34919,32141,37418,6065,-4653,-1161,-435,-2854,-5753,-5660,260,458,-108,1,0,24,58,200,1,53298,1
2,31732,34980,32195,37419,6081,-4308,-693,-119,110,-4868,-7249,270,456,-90,1,0,24,58,240,1,53298,1
2,31571,31973,32062,37420,6095,-4109,100,-53,1362,-4014,-8058,290,448,-90,1,0,24,58,280,1,53298,1
2,31504,32489,32086,37421,6111,-3605,857,-1231,3024,-3750,-7234,286,450,-102,1,0,24,58,320,1,53298,1
2,31676,30999,32155,37422,6127,-3629,-822,64,-592,36,-259,280,444,-100,1,0,24,58,360,1,53298,1
2,31791,31342,32239,37423,6143,-4269,-542,-581,-2026,1971,1890,275,447,-105,1,0,24,58,400,1,53298,1
2,31777,32054,32221,37424,6159,-4098,-248,-115,1665,2190,2622,270,462,-98,1,0,24,58,440,1,53298,1
2,31804,32079,32244,37425,6175,-6617,-2698,1664,5161,1713,2014,262,454,-86,1,0,24,58,480,1,53298,1
2,31883,31535,32333,37426,6189,-5619,-357,1076,6487,-1137,312,267,451,-87,1,0,24,58,520,1,53298,1
2,31836,31216,32273,37427,6204,-4141,-71,284,1387,-988,156,261,453,-97,1,0,24,58,560,1,53298,1
2,32005,30533,32439,37428,6219,-4435,-1384,591,-1209,-33,127,265,449,-95,1,0,24,58,600,1,53298,1
2,31996,30629,32458,37429,6232,-4364,-1371,192,-2159,853,-451,266,462,-92,1,0,24,58,640,1,53298,1
2,32082,30973,32483,37430,6246,-4326,-1101,273,869,677,-173,265,457,-101,1,0,24,58,680,1,53298,1
2,32101,30931,32563,37431,6260,-4355,-1076,616,1407,922,-254,265,457,-99,1,0,24,58,720,1,53298,1
2,32143,31023,32715,37432,6274,-4361,-928,780,1366,615,-108,269,459,-103,1,0,24,58,760,1,53298,1
2,32117,31015,32655,37433,6288,-4606,-747,663,328,98,59,268,452,-102,1,0,24,58,800,1,53298,1
2,32105,31015,32647,37434,6301,-4433,-1034,502,-495,-326,395,271,453,-117,1,0,24,58,840,1,53298,1
2,32126,30994,32652,37435,6314,-4775,-945,178,-662,-366,304,267,455,-107,1,0,24,58,880,1,53298,1
2,32105,30736,32649,37436,6327,-4609,-926,336,363,-220,476,270,452,-108,1,0,24,58,920,1,53298,1
2,32113,30766,32631,37437,6327,-3999,-1180,635,1356,-259,1122,261,453,-105,1,0,24,58,960,1,53298,1
1,32055,32530,32503,37438,5507,-4237,-1269,443,1001,-350,425,270,444,-100,1,0,24,59,0,0,53298,1
2,32155,30985,32705,37439,5521,-5095,-738,-36,-475,160,-611,252,450,-106,1,0,24,59,40,0,53298,1
2,32063,30597,32633,37440,5536,-4513,-954,648,1450,292,-34,264,454,-112,1,0,24,59,80,0,53298,1
2,32058,30882,32552,37441,5552,-4169,-891,733,2285,3,191,269,459,-105,1,0,24,59,120,0,53298,1
2,31845,30532,32590,37442,5568,-4939,-677,149,-119,22,-497,266,454,-100,1,0,24,59,160,0,53298,1
2,31941,30557,32477,37443,5584,-4526,-1232,475,-524,336,-555,265,461,-97,1,0,24,59,200,0,53298,1
2,31920,31455,32460,37444,5599,-4126,-1051,599,1199,266,-271,271,453,-103,1,0,24,59,240,0,53298,1
2,31855,31599,32502,37445,5615,-4785,-924,-213,-177,411,-669,262,462,-110,1,0,24,59,280,0,53298,1
2,32005,32693,32571,37446,5632,-4309,-2207,-401,-1397,1643,-1843,273,463,-111,1,0,24,59,320,0,53298,1
2,31851,34628,32344,37447,5648,-3383,-1560,273,6164,2272,-1525,260,462,-104,1,0,24,59,360,0,53298,1
2,32025,34827,32602,37448,5665,-3172,-1370,1144,8485,2186,-1088,264,470,-112,1,0,24,59,400,0,53298,1
2,32014,34451,32600,37449,5683,-2534,73,1395,5719,1307,-297,260,480,-90,1,0,24,59,440,0,53298,1
2,32048,34861,32582,37450,5702,-4619,-35,1053,-465,1222,1735,251,475,-105,1,0,24,59,480,0,53298,1
2,31959,33865,32481,37451,5722,-11936,-1058,-2433,-6217,944,2397,257,481,-97,1,0,24,59,520,0,53298,1
2,31978,33460,32519,37452,5742,-4674,-754,924,-2494,-306,-1210,261,483,-105,1,0,24,59,560,0,53298,1
2,31904,33264,32462,37453,5761,-3828,396,-573,-3849,-154,719,270,480,-116,1,0,24,59,600,0,53298,1
2,31990,33255,32509,37454,5779,-3208,-636,-1079,-8461,3667,2828,256,488,-116,1,0,24,59,640,0,53298,1
2,32304,34716,32898,37455,5796,-4155,-749,-441,-2242,4831,4477,252,494,-106,1,0,24,59,680,0,53298,1
2,32185,34554,32783,37456,5811,-7962,-3362,1527,4372,3973,1341,243,491,-105,1,0,24,59,720,0,53298,1
2,32439,30713,33061,37457,5825,-5041,-645,227,3371,170,-1131,249,491,-111,1,0,24,59,760,0,53298,1
2,32197,30655,32749,37458,5839,-3923,-155,314,3134,-915,85,248,492,-116,1,0,24,59,800,0,53298,1
2,32120,30767,32752,37459,5854,-3492,-1271,461,274,-394,1197,242,494,-114,1,0,24,59,840,0,53298,1
2,32010,30478,32644,37460,5868,-5653,-215,-222,-601,-311,-170,244,488,-116,1,0,24,59,880,0,53298,1
2,31984,30486,32615,37461,5883,-5362,-793,-170,-633,386,-203,246,484,-110,1,0,24,59,920,0,53298,1
2,31911,30488,32525,37462,5883,-3912,-900,227,2628,-495,399,246,482,-120,1,0,24,59,960,0,53298,1
1,31979,30470,32648,37463,5035,-4011,-840,154,1183,-403,158,253,487,-123,1,0,25,0,0,1,53298,1
2,31934,30471,32616,37464,5048,-4306,-1070,81,-1397,195,-38,246,486,-128,1,0,25,0,40,1,53298,1
2,31816,30908,32441,37465,5062,-4377,-916,-96,-563,3,120,252,480,-122,1,0,25,0,80,1,53298,1
2,32013,30985,32612,37466,5075,-5062,-471,-277,-447,191,-159,238,480,-120,1,0,25,0,120,1,53298,1
2,32004,30990,32594,37467,5089,-5138,-637,67,-63,201,-87,253,489,-117,1,0,25,0,160,1,53298,1
2,31971,30949,32566,37468,5102,-3947,-937,371,1681,-564,744,243,481,-117,1,0,25,0,200,1,53298,1
2,31948,30958,32546,37469,5115,-3275,-1289,425,613,-696,647,241,487,-117,1,0,25,0,240,1,53298,1
2,32051,31012,32692,37470,5128,-4161,-1225,-316,-1286,-272,-4,254,478,-124,1,0,25,0,280,1,53298,1
2,32072,30995,32684,37471,5141,-6770,-41,-945,-3482,1154,-1379,243,487,-113,1,0,25,0,320,1,53298,1
2,31987,30966,32540,37472,5155,-5125,-442,419,2635,508,206,243,487,-119,1,0,25,0,360,1,53298,1
2,32108,31014,32684,37473,5170,-3370,-820,789,4249,-650,1150,240,480,-122,1,0,25,0,400,1,53298,1
2,31935,30966,32668,37474,5184,-2663,-2181,400,981,-1011,868,247,487,-117,1,0,25,0,440,1,53298,1
2,32107,30682,32718,37475,5198,-5884,165,-1194,-4776,576,-1372,249,485,-121,1,0,25,0,480,1,53298,1
2,32066,30849,32700,37476,5212,-6295,-740,-178,-2424,1268,-1075,252,488,-118,1,0,25,0,520,1,53298,1
2,31983,30770,32555,37477,5226,-4347,-531,421,3255,114,414,242,492,-116,1,0,25,0,560,1,53298,1
2,31883,30813,32522,37478,5240,-3538,-1063,581,3171,-730,812,248,484,-118,1,0,25,0,600,1,53298,1
2,31926,30835,32537,37479,5253,-3934,-1074,-81,-776,-381,153,243,479,-123,1,0,25,0,640,1,53298,1
2,31948,30636,32530,37480,5266,-5190,-633,-444,-2704,497,-619,247,493,-123,1,0,25,0,680,1,53298,1
2,31929,30585,32530,37481,5280,-4978,-777,17,-286,498,-274,248,486,-126,1,0,25,0,720,1,53298,1
2,31791,31751,32420,37482,5293,-5480,-196,-127,1124,65,-96,244,486,-116,1,0,25,0,760,1,53298,1
2,31774,31708,32362,37483,5307,-4818,-642,285,440,-150,194,251,485,-121,1,0,25,0,800,1,53298,1
2,31819,30897,32403,37484,5321,-3893,-912,329,573,-614,629,246,488,-124,1,0,25,0,840,1,53298,1
2,31904,30695,32499,37485,5335,-3572,-1313,237,-498,-409,376,248,482,-120,1,0,25,0,880,1,53298,1
2,31896,30528,32503,37486,5350,-4952,-664,-706,-1545,176,-329,247,489,-125,1,0,25,0,920,1,53298,1
2,31886,30603,32491,37487,5350,-5798,-680,-264,-1347,893,-675,247,481,-123,1,0,25,0,960,1,53298,1
1,31845,30583,32447,37488,4561,-4417,-599,381,2529,132,333,240,478,-108,1,0,25,1,0,1,53298,1
2,31859,30763,32456,37489,4575,-3558,-968,552,2136,-520,628,233,491,-115,1,0,25,1,40,1,53298,1
2,31829,30482,32409,37490,4589,-3502,-1467,120,-446,-468,371,244,484,-128,1,0,25,1,80,1,53298,1
2,31872,30476,32484,37491,4603,-6316,-48,-1038,-3802,736,-1254,242,482,-130,1,0,25,1,120,1,53298,1
2,31835,30531,32457,37492,4617,-5720,-505,129,151,644,-299,247,485,-117,1,0,25,1,160,1,53298,1
2,31827,30520,32427,37493,4631,-3786,-752,525,3505,-522,887,234,484,-116,1,0,25,1,200,1,53298,1
2,31713,30766,32422,37494,4645,-3160,-1388,485,1203,-786,666,236,486,-112,1,0,25,1,240,1,53298,1
2,31865,30458,32501,37495,4659,-4768,-645,-704,-2137,-106,-414,255,485,-129,1,0,25,1,280,1,53298,1
2,31843,30441,32463,37496,4673,-6087,-635,-289,-3034,1063,-1019,244,482,-118,1,0,25,1,320,1,53298,1
2,31835,30447,32428,37497,4687,-4655,-542,363,1989,84,344,240,484,-114,1,0,25,1,360,1,53298,1
2,31792,30556,32381,37498,4701,-3574,-1006,530,2598,-747,883,241,479,-117,1,0,25,1,400,1,53298,1
2,31867,30649,32497,37499,4715,-3414,-1630,-34,-344,-516,424,252,486,-122,1,0,25,1,440,1,53298,1
2,31886,30700,32520,37500,4729,-6050,-167,-878,-3245,776,-1132,249,491,-125,1,0,25,1,480,1,53298,1
2,31843,30453,32460,37501,4742,-5754,-481,177,-244,797,-440,249,483,-121,1,0,25,1,520,1,53298,1
2,31823,30592,32428,37502,4756,-3943,-742,450,2788,-434,764,237,483,-123,1,0,25,1,560,1,53298,1
2,31833,30645,32422,37503,4768,-3337,-1290,402,1044,-816,682,244,488,-116,1,0,25,1,600,1,53298,1
2,31883,30692,32499,37504,4782,-4596,-780,-640,-1706,-172,-259,254,496,-118,1,0,25,1,640,1,53298,1
2,31864,30745,32487,37505,4795,-5929,-597,-276,-2583,980,-913,245,491,-123,1,0,25,1,680,1,53298,1
2,31847,30741,32452,37506,4808,-4733,-534,333,1660,87,271,244,478,-110,1,0,25,1,720,1,53298,1
2,31844,30716,32420,37507,4821,-3670,-993,475,2182,-699,800,251,483,-119,1,0,25,1,760,1,53298,1
2,31824,30791,32420,37508,4833,-3138,-1618,206,47,-566,501,234,486,-114,1,0,25,1,800,1,53298,1
2,31845,30782,32437,37509,4848,-3544,-1296,-219,-672,71,-104,247,489,-115,1,0,25,1,840,1,53298,1
2,31870,30639,32506,37510,4863,-4531,-800,-642,142,821,-227,250,488,-120,1,0,25,1,880,1,53298,1
2,31871,30746,32535,37511,4877,-8496,706,-1065,-1122,1979,-1425,244,492,-114,1,0,25,1,920,1,53298,1
2,31793,30728,32412,37512,4877,-6098,-440,677,1855,377,-361,241,491,-123,1,0,25,1,960,1,53298,1
1,31775,30720,32365,37513,4088,-3452,-439,787,5711,-1839,1557,247,491,-115,1,0,25,2,0,1,53298,1
2,31795,30721,32378,37514,4103,-2937,-1132,664,1941,-1831,1289,245,489,-119,1,0,25,2,40,1,53298,1
2,31829,30705,32439,37515,4116,-3843,-1148,-224,-3635,-350,71,245,485,-109,1,0,25,2,80,1,53298,1
2,31818,30817,32455,37516,4131,-6097,-551,-851,-5807,1145,-1120,241,491,-121,1,0,25,2,120,1,53298,1
2,31792,30805,32413,37517,4145,-5583,-666,-17,-323,918,-368,243,493,-99,1,0,25,2,160,1,53298,1
2,31786,30810,32393,37518,4158,-3968,-787,329,3688,-59,507,243,485,-111,1,0,25,2,200,1,53298,1
2,31807,30828,32406,37519,4171,-3578,-1051,295,2484,-252,348,240,492,-120,1,0,25,2,240,1,53298,1
2,31818,30855,32433,37520,4185,-4581,-708,-190,-1501,326,-470,248,490,-116,1,0,25,2,280,1,53298,1
2,31789,30796,32421,37521,4199,-5247,-774,-197,-2419,541,-587,231,489,-111,1,0,25,2,320,1,53298,1
2,31792,30722,32420,37522,4213,-4912,-749,-87,-4,-55,66,251,485,-115,1,0,25,2,360,1,53298,1
2,31783,30739,32400,37523,4226,-5206,-529,-62,335,-306,108,251,487,-117,1,0,25,2,400,1,53298,1
2,31756,30739,32370,37524,4240,-4339,-777,240,357,-606,386,244,488,-116,1,0,25,2,440,1,53298,1
2,31749,30712,32354,37525,4254,-3796,-976,266,7,-594,492,246,490,-116,1,0,25,2,480,1,53298,1
2,31773,30725,32394,37526,4268,-3938,-1281,-60,-747,-234,171,247,485,-123,1,0,25,2,520,1,53298,1
2,31780,30602,32394,37527,4283,-5477,-461,-490,-1361,487,-542,243,491,-113,1,0,25,2,560,1,53298,1
2,31744,30596,32358,37528,4298,-5119,-629,140,421,544,-188,243,499,-111,1,0,25,2,600,1,53298,1
2,31725,30603,32334,37529,4313,-4070,-782,363,1626,-49,261,243,487,-113,1,0,25,2,640,1,53298,1
2,31757,30825,32375,37530,4327,-3388,-1321,315,905,-315,419,246,488,-122,1,0,25,2,680,1,53298,1
2,31766,30790,32393,37531,4341,-5497,-180,-739,-1836,324,-645,244,496,-122,1,0,25,2,720,1,53298,1
2,31743,30759,32364,37532,4355,-5782,-692,-45,-1750,738,-578,237,491,-117,1,0,25,2,760,1,53298,1
2,31736,30744,32345,37533,4369,-4206,-694,339,2056,-371,548,247,485,-125,1,0,25,2,800,1,53298,1
2,31731,30757,32337,37534,4383,-3454,-1107,422,1728,-833,770,239,493,-97,1,0,25,2,840,1,53298,1
2,31779,30669,32400,37535,4397,-3909,-1206,-184,-453,-383,272,247,481,-121,1,0,25,2,880,1,53298,1
2,31815,30842,32446,37536,4410,-6365,-376,-746,-3762,922,-1255,242,484,-122,1,0,25,2,920,1,53298,1
2,31815,30856,32442,37537,4410,-5334,-459,276,1010,339,-22,258,488,-112,1,0,25,2,960,1,53298,1
1,31794,30843,32403,37538,3616,-3644,-828,553,3234,-738,919,238,492,-114,1,0,25,3,0,0,53298,1
2,31802,30854,32421,37539,3630,-3066,-1498,350,811,-737,627,232,486,-108,1,0,25,3,40,0,53298,1
2,31816,30789,32452,37540,3644,-5040,-424,-827,-2440,389,-625,249,483,-119,1,0,25,3,80,0,53298,1
2,31800,30731,32442,37541,3658,-6084,-786,-209,-2764,1235,-1026,239,483,-111,1,0,25,3,120,0,53298,1
2,31787,30721,32396,37542,3671,-4569,-534,328,2246,9,368,243,485,-107,1,0,25,3,160,0,53298,1
2,31775,30710,32386,37543,3684,-3574,-976,482,2575,-828,857,250,488,-112,1,0,25,3,200,0,53298,1
2,31801,30696,32435,37544,3698,-3762,-1253,-129,-391,-523,313,244,484,-116,1,0,25,3,240,0,53298,1
2,31815,30742,32448,37545,3712,-5918,-387,-630,-3234,718,-1015,247,491,-123,1,0,25,3,280,0,53298,1
2,31790,30756,32400,37546,3726,-5460,-503,197,-61,433,-228,246,486,-118,1,0,25,3,320,0,53298,1
2,31784,30748,32377,37547,3739,-3927,-818,405,2308,-554,709,243,485,-107,1,0,25,3,360,0,53298,1
2,31739,30623,32326,37548,3753,-3281,-1328,326,1013,-680,631,245,485,-119,1,0,25,3,400,0,53298,1
2,31764,30837,32361,37549,3767,-3388,-1339,-61,-64,-215,236,244,486,-114,1,0,25,3,440,0,53298,1
2,31833,30888,32485,37550,3783,-4302,-919,-399,-601,710,-213,243,491,-111,1,0,25,3,480,0,53298,1
2,31859,30768,32509,37551,3798,-7323,429,-1012,-973,1616,-1031,243,489,-115,1,0,25,3,520,0,53298,1
2,31790,30765,32432,37552,3813,-6327,-723,402,141,729,-846,231,491,-103,1,0,25,3,560,0,53298,1
2,31755,30770,32351,37553,3827,-3879,-405,651,4777,-1508,1228,238,496,-104,1,0,25,3,600,0,53298,1
2,31749,30769,32339,37554,3841,-3028,-1019,615,2420,-1786,1370,239,491,-111,1,0,25,3,640,0,53298,1
2,31762,30716,32382,37555,3855,-3770,-1136,-111,-2959,-421,207,244,482,-118,1,0,25,3,680,0,53298,1
2,31742,30557,32375,37556,3870,-5854,-551,-714,-5185,1014,-948,247,489,-109,1,0,25,3,720,0,53298,1
2,31728,30562,32336,37557,3884,-5493,-700,-30,-634,851,-367,244,500,-116,1,0,25,3,760,0,53298,1
2,31715,30540,32307,37558,3898,-4018,-777,306,3147,-56,423,240,486,-122,1,0,25,3,800,0,53298,1
2,31721,30540,32326,37559,3913,-3584,-1085,263,2187,-218,305,241,497,-113,1,0,25,3,840,0,53298,1
2,31739,30632,32355,37560,3926,-5010,-474,-320,-1722,482,-662,245,491,-125,1,0,25,3,880,0,53298,1
2,31729,30725,32336,37561,3940,-5417,-763,-80,-2490,648,-686,243,487,-123,1,0,25,3,920,0,53298,1
2,31712,30744,32315,37562,3940,-4452,-796,84,581,-307,195,240,486,-120,1,0,25,3,960,0,53298,1
1,31720,30743,32332,37563,3144,-3774,-1115,157,1307,-681,657,248,482,-114,1,0,25,4,0,0,53298,1
2,31738,30787,32357,37564,3158,-4715,-677,-421,-683,-159,-113,246,500,-114,1,0,25,4,40,0,53298,1
2,31723,30806,32340,37565,3171,-5392,-703,-32,-1622,474,-431,244,486,-106,1,0,25,4,80,0,53298,1
2,31717,30812,32314,37566,3185,-4479,-681,258,876,-226,346,245,485,-121,1,0,25,4,120,0,53298,1
2,31713,30811,32304,37567,3199,-3777,-1015,279,1115,-541,702,235,485,-113,1,0,25,4,160,0,53298,1
2,31738,30788,32359,37568,3212,-4177,-1046,-252,-398,-102,180,250,492,-124,1,0,25,4,200,0,53298,1
2,31774,30739,32378,37569,3227,-5964,-471,-426,-2445,876,-940,245,489,-119,1,0,25,4,240,0,53298,1
2,31781,30708,32385,37570,3241,-5023,-522,279,844,343,185,242,484,-118,1,0,25,4,280,0,53298,1
2,31775,30684,32368,37571,3255,-3761,-907,412,2071,-503,663,241,485,-113,1,0,25,4,320,0,53298,1
2,31787,30617,32378,37572,3269,-3407,-1390,178,-58,-455,407,245,489,-111,1,0,25,4,360,0,53298,1
2,31828,30676,32453,37573,3283,-5052,-595,-752,-2313,302,-569,250,488,-118,1,0,25,4,400,0,53298,1
2,31834,30733,32445,37574,3297,-5784,-740,-179,-1622,816,-739,250,486,-126,1,0,25,4,440,0,53298,1
2,31797,30731,32385,37575,3310,-4421,-627,337,2373,-146,339,239,491,-119,1,0,25,4,480,0,53298,1
2,31771,30730,32361,37576,3324,-3564,-1049,480,2033,-677,601,243,483,-121,1,0,25,4,520,0,53298,1
2,31784,30507,32388,37577,3338,-3605,-1276,8,-245,-433,329,239,489,-125,1,0,25,4,560,0,53298,1
2,31732,30521,32350,37578,3352,-6078,-249,-799,-3064,781,-995,248,488,-120,1,0,25,4,600,0,53298,1
2,31754,30548,32368,37579,3366,-5716,-472,115,52,524,-301,240,494,-108,1,0,25,4,640,0,53298,1
2,31751,30555,32345,37580,3379,-4017,-733,444,2837,-613,762,247,491,-113,1,0,25,4,680,0,53298,1
2,31782,30523,32373,37581,3393,-3609,-1149,258,918,-774,619,248,482,-116,1,0,25,4,720,0,53298,1
2,31785,30418,32406,37582,3407,-5111,-527,-440,-2184,16,-328,250,488,-120,1,0,25,4,760,0,53298,1
2,31776,30364,32375,37583,3421,-5433,-661,-28,-1723,546,-371,241,491,-121,1,0,25,4,800,0,53298,1
2,31760,30370,32360,37584,3434,-4265,-782,236,1318,-88,334,239,489,-111,1,0,25,4,840,0,53298,1
2,31766,30364,32362,37585,3448,-3571,-1202,279,1434,-295,439,241,477,-115,1,0,25,4,880,0,53298,1
2,31811,30465,32418,37586,3462,-4540,-817,-481,-746,263,-311,252,496,-124,1,0,25,4,920,0,53298,1
2,31799,30413,32420,37587,3462,-5847,-616,-244,-2230,1059,-939,250,486,-116,1,0,25,4,960,0,53298,1
1,31804,30446,32399,37588,2672,-4671,-609,269,1281,48,722,247,485,-121,1,0,25,5,0,1,53298,1
2,31793,30469,32384,37589,2685,-3657,-1036,374,1740,-613,509,246,488,-120,1,0,25,5,40,1,53298,1
2,31672,33759,32275,37590,2698,-3253,-1677,7,92,-739,-946,236,488,-114,1,0,25,5,80,1,53298,1
2,31790,30519,32405,37591,2711,-6031,-45,-953,-2788,651,-400,248,480,-112,1,0,25,5,120,1,53298,1
2,31782,30452,32405,37592,2725,-5932,-483,157,-363,644,887,243,485,-117,1,0,25,5,160,1,53298,1
2,31756,30453,32346,37593,2738,-3986,-637,519,3217,-680,797,239,491,-117,1,0,25,5,200,1,53298,1
2,31777,30493,32352,37594,2752,-3306,-1217,477,1406,-826,99,246,484,-120,1,0,25,5,240,1,53298,1
2,31750,30530,32375,37595,2765,-3943,-1164,-337,-1384,-360,-1335,240,482,-124,1,0,25,5,280,1,53298,1
2,31755,30489,32387,37596,2780,-6396,-418,-720,-3689,1091,-131,249,481,-121,1,0,25,5,320,1,53298,1
2,31697,30899,32303,37597,2794,-5363,-426,288,1213,579,859,245,481,-111,1,0,25,5,360,1,53298,1
2,31707,30845,32264,37598,2808,-3685,-821,535,3370,-559,539,245,493,-115,1,0,25,5,400,1,53298,1
2,31712,31627,32294,37599,2822,-3142,-1443,319,532,-567,-647,242,494,-112,1,0,25,5,440,1,53298,1
2,31696,31219,32312,37600,2836,-5204,-401,-816,-2570,343,-936,238,490,-120,1,0,25,5,480,1,53298,1
2,31647,32179,32238,37601,2850,-6089,-705,-158,-2526,1086,522,249,483,-115,1,0,25,5,520,1,53298,1
2,31644,32025,32232,37602,2865,-4413,-608,318,2387,-214,903,249,485,-117,1,0,25,5,560,1,53298,1
2,31670,31515,32235,37603,2879,-3489,-1039,457,2452,-927,291,239,483,-113,1,0,25,5,600,1,53298,1
2,31791,30530,32427,37604,2893,-3643,-1307,-147,-562,-471,-1098,249,493,-125,1,0,25,5,640,1,53298,1
2,31811,30559,32429,37605,2905,-6058,-313,-677,-3242,828,-285,249,491,-113,1,0,25,5,680,1,53298,1
2,31779,30602,32385,37606,2919,-5582,-450,179,24,522,751,239,477,-111,1,0,25,5,720,1,53298,1
2,31769,30607,32362,37607,2933,-3935,-809,408,2601,-520,570,251,481,-117,1,0,25,5,760,1,53298,1
2,31797,30626,32395,37608,2949,-3376,-1285,282,893,-606,-492,244,490,-120,1,0,25,5,800,1,53298,1
2,31814,30677,32427,37609,2964,-4965,-572,-616,-1827,246,-831,245,481,-115,1,0,25,5,840,1,53298,1
2,31792,30672,32406,37610,2980,-5815,-650,-123,-2119,945,388,246,486,-128,1,0,25,5,880,1,53298,1
2,31781,30640,32377,37611,2994,-4446,-654,275,1719,-135,773,241,489,-119,1,0,25,5,920,1,53298,1
2,31780,30636,32369,37612,2994,-3584,-1068,357,1834,-726,340,247,487,-127,1,0,25,5,960,1,53298,1
1,31797,30477,32394,37613,2201,-3554,-1508,-162,-452,823,-1054,238,492,-114,1,0,25,6,0,1,53298,1
2,31768,30410,32363,37614,2216,-6058,-245,-733,-2594,534,-283,248,492,-122,1,0,25,6,40,1,53298,1
2,31680,30850,32280,37615,2232,-5646,-426,196,68,-596,770,249,489,-117,1,0,25,6,80,1,53298,1
2,31705,30590,32284,37616,2246,-3954,-767,451,2762,-740,617,242,490,-124,1,0,25,6,120,1,53298,1
2,31719,30717,32313,37617,2262,-3400,-1251,333,668,26,-352,248,486,-114,1,0,25,6,160,1,53298,1
2,31744,30513,32320,37618,2277,-4733,-728,-625,-1969,915,-817,240,476,-106,1,0,25,6,200,1,53298,1
2,31740,30389,32341,37619,2293,-5812,-700,-221,-2080,-28,333,243,489,-117,1,0,25,6,240,1,53298,1
2,31722,30389,32302,37620,2308,-4596,-613,277,1556,-643,745,247,483,-113,1,0,25,6,280,1,53298,1
2,31709,30529,32288,37621,2322,-3662,-993,417,2068,-329,334,238,486,-116,1,0,25,6,320,1,53298,1
2,31745,30397,32378,37622,2337,-3570,-1472,-138,-294,712,-952,244,488,-114,1,0,25,6,360,1,53298,1
2,31780,30429,32385,37623,2353,-6046,-245,-684,-2601,516,-269,242,494,-118,1,0,25,6,400,1,53298,1
2,31754,30423,32359,37624,2367,-5615,-443,158,-14,-542,712,242,492,-114,1,0,25,6,440,1,53298,1
2,31759,30456,32332,37625,2382,-3942,-820,402,2335,-683,577,246,482,-114,1,0,25,6,480,1,53298,1
2,31780,30491,32362,37626,2397,-3355,-1290,263,714,103,-389,241,493,-123,1,0,25,6,520,1,53298,1
2,31767,30386,32364,37627,2413,-4708,-729,-625,-1738,963,-882,254,492,-126,1,0,25,6,560,1,53298,1
2,31764,30389,32355,37628,2428,-5861,-675,-209,-2158,-49,300,243,495,-123,1,0,25,6,600,1,53298,1
2,31740,30384,32322,37629,2443,-4620,-580,307,1792,-701,750,247,487,-109,1,0,25,6,640,1,53298,1
2,31740,30379,32314,37630,2458,-3627,-988,410,1951,-358,313,245,485,-111,1,0,25,6,680,1,53298,1
2,31791,30482,32396,37631,2473,-3623,-1423,-137,-527,699,-958,248,480,-112,1,0,25,6,720,1,53298,1
2,31782,30430,32393,37632,2489,-6040,-265,-704,-2670,512,-256,240,496,-128,1,0,25,6,760,1,53298,1
2,31760,30420,32350,37633,2505,-5591,-428,175,152,-562,753,246,484,-122,1,0,25,6,800,1,53298,1
2,31753,30421,32334,37634,2520,-3917,-811,429,2524,-676,602,240,490,-124,1,0,25,6,840,1,53298,1
2,31766,30448,32356,37635,2535,-3363,-1320,257,737,70,-217,242,486,-122,1,0,25,6,880,1,53298,1
2,31803,30533,32406,37636,2550,-4358,-958,-550,-1535,1048,-1114,243,485,-117,1,0,25,6,920,1,53298,1
2,31782,30529,32392,37637,2550,-6227,-601,-439,-2550,97,198,252,484,-120,1,0,25,6,960,1,53298,1
1,31761,30565,32351,37638,1730,-4951,-449,487,2602,-809,850,242,480,-120,1,0,25,7,0,1,53298,1
2,31762,30573,32333,37639,1745,-3645,-903,487,-235,-569,382,243,487,-123,1,0,25,7,40,1,53298,1
2,31802,30642,32374,37640,1760,-3290,-1340,160,-2409,441,-702,249,485,-109,1,0,25,7,80,1,53298,1
2,31689,31202,32278,37641,1775,-5171,-520,-735,-1429,941,-820,256,490,-122,1,0,25,7,120,1,53298,1
2,31650,31254,32261,37642,1790,-5957,-647,-140,2420,-182,441,242,496,-118,1,0,25,7,160,1,53298,1
2,31660,30809,32247,37643,1806,-4495,-592,325,1940,-751,751,246,492,-114,1,0,25,7,200,1,53298,1
2,31676,30668,32236,37644,1821,-3722,-971,378,-1183,-261,139,247,489,-101,1,0,25,7,240,1,53298,1
2,31751,30397,32341,37645,1837,-3969,-1116,-139,-2204,417,-672,242,490,-122,1,0,25,7,280,1,53298,1
2,31769,30546,32379,37646,1853,-5575,-543,-421,269,224,-127,244,494,-116,1,0,25,7,320,1,53298,1
2,31755,30539,32352,37647,1868,-5250,-567,80,1778,-358,483,242,488,-124,1,0,25,7,360,1,53298,1
2,31753,30556,32343,37648,1884,-4119,-852,253,402,-201,271,247,497,-113,1,0,25,7,400,1,53298,1
2,31783,30619,32373,37649,1899,-3944,-1059,86,-1394,394,-382,251,493,-117,1,0,25,7,440,1,53298,1
2,31785,30614,32379,37650,1914,-5223,-565,-260,-399,432,-61,237,487,-115,1,0,25,7,480,1,53298,1
2,31777,30633,32376,37651,1929,-5143,-625,34,966,-129,461,230,480,-126,1,0,25,7,520,1,53298,1
2,31785,30636,32377,37652,1943,-4256,-851,148,-367,-126,147,241,497,-113,1,0,25,7,560,1,53298,1
2,31785,30619,32371,37653,1957,-4589,-724,-81,-881,64,111,251,485,-127,1,0,25,7,600,1,53298,1
2,31780,30635,32360,37654,1972,-4649,-809,-4,123,-74,216,248,486,-120,1,0,25,7,640,1,53298,1
2,31775,30655,32350,37655,1986,-4320,-854,69,534,-138,198,244,486,-120,1,0,25,7,680,1,53298,1
2,31781,30694,32372,37656,2001,-3901,-1118,141,-533,163,-424,238,492,-108,1,0,25,7,720,1,53298,1
2,31807,30711,32398,37657,2016,-5022,-607,-467,-456,564,-359,250,488,-106,1,0,25,7,760,1,53298,1
2,31784,30722,32371,37658,2030,-5394,-560,17,1259,-154,507,244,490,-116,1,0,25,7,800,1,53298,1
2,31782,30720,32353,37659,2045,-4307,-702,311,583,-545,724,244,488,-120,1,0,25,7,840,1,53298,1
2,31785,30715,32356,37660,2059,-3696,-1161,292,-1027,-290,254,242,484,-122,1,0,25,7,880,1,53298,1
2,31804,30641,32396,37661,2074,-4236,-1134,-354,-2151,634,-811,242,492,-122,1,0,25,7,920,1,53298,1
2,31786,30577,32369,37662,2074,-5879,-408,-617,1428,170,135,244,482,-122,1,0,25,7,960,1,53298,1
1,31775,30625,32349,37663,1259,-5045,-266,531,2124,-694,667,236,488,-100,1,0,25,8,0,0,53298,1
2,31759,30603,32326,37664,1274,-3873,-778,245,-356,-773,369,242,484,-124,1,0,25,8,40,0,53298,1
2,31793,30618,32377,37665,1288,-3458,-1383,-794,-2760,216,-831,241,485,-125,1,0,25,8,80,0,53298,1
2,31645,33118,32207,37666,1303,-5254,-473,-162,-1166,884,-718,244,486,-122,1,0,25,8,120,0,53298,1
2,31658,34510,32220,37667,1317,-5761,-613,396,2536,-14,455,244,486,-122,1,0,25,8,160,0,53298,1
2,31660,34491,32189,37668,1331,-4278,-621,451,1553,-634,698,238,482,-124,1,0,25,8,200,0,53298,1
2,31678,34589,32204,37669,1345,-3580,-1111,-260,-1406,-309,138,234,480,-120,1,0,25,8,240,0,53298,1
2,31635,32496,32201,37670,1361,-4062,-1118,-702,-2816,615,-882,239,487,-119,1,0,25,8,280,0,53298,1
2,31655,31383,32232,37671,1375,-5913,-431,193,1154,285,109,244,486,-122,1,0,25,8,320,0,53298,1
2,31658,31146,32227,37672,1390,-5204,-510,473,2755,-549,790,241,503,-111,1,0,25,8,360,0,53298,1
2,31653,30745,32223,37673,1404,-3871,-826,216,426,-558,417,241,481,-117,1,0,25,8,400,0,53298,1
2,31707,30414,32310,37674,1419,-3519,-1288,155,-2371,274,-762,244,488,-118,1,0,25,8,440,0,53298,1
2,31795,30505,32390,37675,1434,-5457,-335,-760,-1026,544,-494,246,482,-122,1,0,25,8,480,0,53298,1
2,31782,30526,32356,37676,1449,-5680,-510,92,2024,-342,560,246,492,-116,1,0,25,8,520,0,53298,1
2,31770,30544,32341,37677,1464,-4153,-699,325,1148,-656,625,246,484,-116,1,0,25,8,560,0,53298,1
2,31782,30571,32350,37678,1479,-3568,-1203,486,-1280,-29,22,246,478,-118,1,0,25,8,600,0,53298,1
2,31804,30558,32411,37679,1493,-4121,-1095,-285,-2106,925,-868,243,481,-111,1,0,25,8,640,0,53298,1
2,31806,30567,32403,37680,1508,-5929,-412,-515,1305,572,55,244,484,-126,1,0,25,8,680,0,53298,1
2,31807,30592,32384,37681,1523,-5132,-436,193,2389,-268,664,243,487,-115,1,0,25,8,720,0,53298,1
2,31799,30602,32375,37682,1538,-3882,-823,418,-2,-276,308,237,487,-131,1,0,25,8,760,0,53298,1
2,31823,30623,32406,37683,1554,-3560,-1275,134,-2214,399,-685,247,485,-117,1,0,25,8,800,0,53298,1
2,31833,30677,32427,37684,1568,-5259,-508,-602,-1100,615,-648,246,490,-122,1,0,25,8,840,0,53298,1
2,31818,30662,32418,37685,1583,-5695,-559,-205,1967,-404,425,232,498,-118,1,0,25,8,880,0,53298,1
2,31805,30654,32388,37686,1598,-4266,-711,294,1210,-803,548,243,481,-117,1,0,25,8,920,0,53298,1
2,31815,30660,32403,37687,1598,-3668,-1136,418,-1340,-238,-152,255,481,-127,1,0,25,8,960,0,53298,1
1,31834,30654,32433,37688,787,-4574,-572,-254,-1713,474,-611,241,485,-115,1,0,25,9,0,0,53298,1
2,31829,30660,32426,37689,802,-5598,-592,231,1110,17,219,245,493,-115,1,0,25,9,40,0,53298,1
2,31815,30670,32398,37690,817,-4713,-985,344,1402,-474,549,245,487,-117,1,0,25,9,80,0,53298,1
2,31809,30662,32397,37691,831,-3817,-1287,-94,-428,-191,168,243,479,-113,1,0,25,9,120,0,53298,1
2,31847,30672,32438,37692,846,-3809,-335,-547,-1949,639,-861,250,488,-124,1,0,25,9,160,0,53298,1
2,31831,30639,32429,37693,860,-5758,-457,170,468,509,-190,245,491,-121,1,0,25,9,200,0,53298,1
2,31826,30617,32415,37694,874,-5324,-816,395,1930,-297,590,241,495,-123,1,0,25,9,240,0,53298,1
2,31814,30611,32389,37695,888,-3982,-1265,214,179,-397,447,243,483,-113,1,0,25,9,280,0,53298,1
2,31851,30615,32424,37696,902,-3528,-670,-636,-1842,269,-459,247,485,-135,1,0,25,9,320,0,53298,1
2,31841,30633,32438,37697,916,-4961,-572,-161,-1055,751,-612,250,492,-118,1,0,25,9,360,0,53298,1
2,31818,30574,32411,37698,930,-5734,-636,314,2009,-141,425,242,484,-110,1,0,25,9,400,0,53298,1
2,31801,30578,32387,37699,944,-4403,-577,363,1263,-690,621,243,487,-125,1,0,25,9,440,0,53298,1
2,31813,30591,32388,37700,959,-3668,-1239,-216,-1169,-305,110,249,495,-123,1,0,25,9,480,0,53298,1
2,31852,30629,32440,37701,974,-3959,-1130,-602,-2228,560,-878,241,485,-123,1,0,25,9,520,0,53298,1
2,31844,30655,32442,37702,988,-5950,-424,238,1087,280,33,249,487,-131,1,0,25,9,560,0,53298,1
2,31828,30670,32415,37703,1003,-5228,-314,455,2218,-494,714,240,490,-116,1,0,25,9,600,0,53298,1
2,31815,30672,32392,37704,1017,-3874,-1010,215,-99,-420,389,247,487,-119,1,0,25,9,640,0,53298,1
2,31832,30680,32412,37705,1033,-3489,-1116,-634,-2052,377,-575,247,491,-109,1,0,25,9,680,0,53298,1
2,31845,30642,32440,37706,1047,-5050,-586,-171,-1072,872,-694,251,495,-121,1,0,25,9,720,0,53298,1
2,31827,30690,32426,37707,1062,-5798,-633,306,2182,-74,434,240,490,-120,1,0,25,9,760,0,53298,1
2,31821,30696,32399,37708,1077,-4394,-538,343,1335,-602,635,258,488,-122,1,0,25,9,800,0,53298,1
2,31821,30708,32398,37709,1091,-3680,-1036,-137,-1174,-237,147,241,487,-119,1,0,25,9,840,0,53298,1
2,31781,30413,32365,37710,1106,-3790,-1404,-379,-1235,352,-377,243,491,-119,1,0,25,9,880,0,53298,1
2,31801,30470,32415,37711,1121,-4676,-837,-159,1078,307,-40,244,492,-118,1,0,25,9,920,0,53298,1
2,31836,30630,32440,37712,1121,-4742,-794,-328,918,363,-457,252,494,-114,1,0,25,9,960,0,53298,1
1,31809,30657,32405,37713,317,-5189,-414,444,874,-142,86,240,486,-116,1,0,25,10,0,0,53298,1
0,31786,30648,32383,37714,332,-5189,-414,444,874,-142,86,245,489,-109,1,0,25,10,40,0,53298,1
2,31763,30633,32345,37715,347,-3579,-1292,131,-775,-742,490,251,483,-111,1,0,25,10,80,0,53298,1
2,31778,30654,32376,37716,362,-4606,-864,-641,-1760,193,-231,237,487,-119,1,0,25,10,120,0,53298,1
2,31781,30705,32384,37717,376,-5748,-770,-348,-1390,1124,-814,239,489,-113,1,0,25,10,160,0,53298,1
2,31757,30708,32362,37718,390,-4703,-518,303,2237,329,143,237,493,-125,1,0,25,10,200,0,53298,1
2,31741,30703,32325,37719,404,-3789,-840,478,2089,-439,558,246,492,-118,1,0,25,10,240,0,53298,1
2,31752,30705,32317,37720,418,-3545,-1388,16,-513,-390,290,243,481,-123,1,0,25,10,280,0,53298,1
2,31770,30628,32367,37721,432,-5699,-311,-732,-2714,470,-810,241,495,-117,1,0,25,10,320,0,53298,1
2,31773,30586,32373,37722,447,-5684,-589,17,-536,520,-427,258,484,-124,1,0,25,10,360,0,53298,1
2,31740,30480,32337,37723,461,-4134,-704,336,2453,-446,595,236,484,-114,1,0,25,10,400,0,53298,1
2,31723,30461,32301,37724,476,-4336,-1081,320,1306,-705,661,231,489,-115,1,0,25,10,440,0,53298,1
2,31724,30459,32323,37725,490,-3469,-777,-381,-1468,-70,-116,239,483,-117,1,0,25,10,480,0,53298,1
2,31741,30377,32339,37726,505,-4466,-688,-307,-2559,730,-803,251,489,-125,1,0,25,10,520,0,53298,1
2,31697,30485,32272,37727,520,-5757,-577,204,1216,-15,232,249,485,-131,1,0,25,10,560,0,53298,1
2,31630,31014,32195,37728,536,-4773,-937,363,2033,-540,653,248,486,-124,1,0,25,10,600,0,53298,1
2,31665,30494,32246,37729,550,-3838,-1184,-70,-236,-151,189,241,497,-113,1,0,25,10,640,0,53298,1
2,31669,30782,32253,37730,565,-3729,-404,-531,-2522,682,-880,252,484,-116,1,0,25,10,680,0,53298,1
2,31713,30398,32309,37731,579,-5767,-493,139,168,319,-90,243,495,-107,1,0,25,10,720,0,53298,1
2,31710,30344,32295,37732,593,-5224,-868,340,1821,-550,621,243,493,-119,1,0,25,10,760,0,53298,1
2,31706,30354,32273,37733,607,-3967,-1301,165,398,-586,480,244,490,-122,1,0,25,10,800,0,53298,1
2,31730,30370,32310,37734,622,-3553,-539,-681,-1756,245,-486,249,485,-121,1,0,25,10,840,0,53298,1
2,31752,30444,32348,37735,638,-5030,-604,-35,-1327,747,-638,242,486,-118,1,0,25,10,880,0,53298,1
2,31754,30511,32342,37736,653,-5869,-619,330,1983,-253,476,241,489,-115,1,0,25,10,920,0,53298,1
2,31738,30603,32312,37737,653,-4331,-1087,361,1444,-696,669,250,482,-120,1,0,25,10,960,0,53298,1
1,31749,30624,32324,37738,0,-4001,-1160,-225,-1019,-147,107,241,491,-123,1,0,25,11,0,0,53298,1
2,31784,30658,32379,37739,39862,-5948,-493,-591,-2694,841,-1014,253,491,-123,1,0,25,11,40,0,53298,1
2,31763,30669,32375,37740,39878,-5173,-443,207,1032,351,-4,246,482,-128,1,0,25,11,80,0,53298,1
2,31746,30657,32323,37741,39893,-3850,-839,443,2343,-537,718,239,493,-115,1,0,25,11,120,0,53298,1
2,31736,30656,32316,37742,39907,-3371,-1282,212,165,-526,488,245,487,-115,1,0,25,11,160,0,53298,1
2,31758,30671,32369,37743,39921,-5340,-374,-720,-2235,326,-635,247,493,-113,1,0,25,11,200,0,53298,1
2,31775,30652,32387,37744,39936,-5887,-579,-37,-1274,780,-646,244,484,-112,1,0,25,11,240,0,53298,1
2,31750,30602,32345,37745,39951,-4234,-646,343,2335,-334,561,239,489,-123,1,0,25,11,280,0,53298,1
2,31734,30602,32314,37746,39965,-3499,-1144,367,1508,-768,715,246,494,-118,1,0,25,11,320,0,53298,1
2,31743,30608,32315,37747,39979,-3966,-1160,-257,-1127,-201,77,247,493,-111,1,0,25,11,360,0,53298,1
2,31770,30604,32374,37748,39994,-6053,-463,-623,-2796,865,-1074,246,490,-114,1,0,25,11,400,0,53298,1
1,31769,30557,32357,37749,9,-5265,-426,216,1043,351,-14,247,493,-115,1,0,25,11,440,0,53298,1
1,31741,30556,32326,37750,23,-3834,-857,451,2503,-574,784,246,488,-110,1,0,25,11,480,0,53298,1
1,31734,30568,32310,37751,37,-3424,-1345,156,160,-520,486,249,485,-123,1,0,25,11,520,0,53298,1
1,31756,30570,32348,37752,52,-5476,-351,-657,-2528,426,-676,245,491,-121,1,0,25,11,560,0,53298,1
1,31769,30620,32369,37753,68,-5706,-542,4,-1014,657,-501,244,492,-122,1,0,25,11,600,0,53298,1
1,31751,30645,32337,37754,82,-4164,-726,319,2098,-350,557,240,486,-118,1,0,25,11,640,0,53298,1
1,31746,30649,32320,37755,96,-3499,-1240,287,1285,-689,640,250,490,-118,1,0,25,11,680,0,53298,1
1,31757,30678,32341,37756,112,-4405,-879,-392,-1360,-19,-173,237,487,-119,1,0,25,11,720,0,53298,1
1,31780,30696,32375,37757,127,-5619,-643,-313,-1793,706,-713,249,477,-119,1,0,25,11,760,0,53298,1
1,31764,30690,32374,37758,141,-4886,-512,184,1269,119,149,234,494,-114,1,0,25,11,800,0,53298,1
1,31752,30698,32334,37759,156,-3992,-892,302,1650,-449,581,245,489,-109,1,0,25,11,840,0,53298,1
1,31759,30705,32342,37760,172,-4177,-960,-105,-585,-162,121,239,487,-121,1,0,25,11,880,0,53298,1
1,31765,30706,32361,37761,187,-5200,-629,-242,-1421,332,-419,244,492,-124,1,0,25,11,920,0,53298,1
1,31762,30697,32345,37762,203,-4906,-623,32,259,116,-31,240,488,-126,1,0,25,11,960,0,53298,1
1,31756,30691,32335,37763,0,-4181,-900,150,890,-278,308,247,485,-115,1,0,25,12,0,0,53298,1
2,31761,30686,32338,37764,39392,-4590,-741,-153,-449,-94,-36,242,492,-110,1,0,25,12,40,0,53298,1
2,31764,30695,32346,37765,39406,-5028,-646,-19,-800,155,-145,254,486,-122,1,0,25,12,80,0,53298,1
2,31762,30690,32340,37766,39421,-4446,-775,103,283,-122,219,248,494,-116,1,0,25,12,120,0,53298,1
2,31743,30671,32329,37767,39435,-3922,-1117,113,467,-256,332,245,487,-123,1,0,25,12,160,0,53298,1
2,31750,30652,32345,37768,39449,-4778,-742,-434,-624,110,-172,245,485,-121,1,0,25,12,200,0,53298,1
2,31768,30614,32365,37769,39464,-6066,-303,-196,-1377,583,-601,245,487,-129,1,0,25,12,240,0,53298,1
2,31749,30517,32331,37770,39479,-4347,-619,421,1610,-333,534,242,498,-122,1,0,25,12,280,0,53298,1
2,31730,30485,32306,37771,39494,-3483,-1164,407,1244,-849,849,246,492,-116,1,0,25,12,320,0,53298,1
2,31739,30486,32314,37772,39509,-3273,-1538,82,-1182,-455,326,240,482,-124,1,0,25,12,360,0,53298,1
2,31752,30414,32334,37773,39524,-5055,-626,-1040,-1991,489,-709,239,487,-125,1,0,25,12,400,0,53298,1
2,31788,30414,32387,37774,39538,-6169,-545,-179,-524,1389,-955,243,487,-127,1,0,25,12,440,0,53298,1
2,31748,30433,32352,37775,39553,-4421,-397,532,3465,171,467,242,480,-120,1,0,25,12,480,0,53298,1
2,31592,30411,32139,37776,39568,-3545,-968,612,1711,-725,787,244,482,-122,1,0,25,12,520,0,53298,1
2,31552,30409,32138,37777,39583,-3454,-1604,-33,-1581,-654,373,238,486,-120,1,0,25,12,560,0,53298,1
2,31563,30409,32154,37778,39597,-6014,-283,-1066,-3617,552,-1078,246,490,-118,1,0,25,12,600,0,53298,1
2,31640,30639,32453,37779,39612,-5951,-235,38,154,644,-101,248,488,-124,1,0,25,12,640,0,53298,1
2,31830,30564,32338,37780,39628,-3773,-647,694,3065,-534,1467,244,484,-120,1,0,25,12,680,0,53298,1
2,31849,30474,32373,37781,39645,-3512,-1034,367,492,-831,727,236,496,-102,1,0,25,12,720,0,53298,1
2,31818,30434,32392,37782,39661,-3392,-1429,-108,-955,-578,224,236,490,-108,1,0,25,12,760,0,53298,1
2,31883,30818,32438,37783,39677,-4310,-962,-625,-61,445,-563,241,487,-117,1,0,25,12,800,0,53298,1
2,31869,30454,32490,37784,39693,-5609,-754,-540,1241,1087,235,238,492,-118,1,0,25,12,840,0,53298,1
2,31834,30733,32399,37785,39710,-5762,-504,525,3122,396,1316,228,502,-114,1,0,25,12,880,0,53298,1
2,32045,30977,32589,37786,39730,-5011,290,367,1377,-1626,1185,234,500,-110,1,0,25,12,920,0,53298,1
2,32065,30973,32660,37787,39751,-4470,-649,-217,-391,-1805,890,221,503,-95,1,0,25,12,960,0,53298,1
1,31832,30903,32387,37788,0,-4364,-491,-221,-6097,704,-873,224,506,-98,1,0,25,13,0,0,53298,1
2,31801,30940,32587,37789,38927,-4753,-759,47,-3704,1235,-1072,237,495,-101,1,0,25,13,40,0,53298,1
2,32022,30980,32655,37790,38946,-4512,-112,-812,1307,741,-654,239,495,-105,1,0,25,13,80,0,53298,1
2,32052,30973,32680,37791,38962,-5532,-1269,176,3143,951,-173,237,493,-113,1,0,25,13,120,0,53298,1
2,31930,30937,32518,37792,38980,-2956,-1278,665,2841,437,1243,224,500,-112,1,0,25,13,160,0,53298,1
2,32007,30970,32614,37793,38999,-4386,-388,688,1100,29,887,225,499,-103,1,0,25,13,200,0,53298,1
2,32029,30969,32639,37794,39018,-5671,-60,-751,-1374,272,156,222,506,-106,1,0,25,13,240,0,53298,1
2,31991,30652,32454,37795,39037,-4677,-552,-281,628,400,-562,233,495,-101,1,0,25,13,280,0,53298,1
2,32002,30973,32648,37796,39053,-4502,-1108,39,2399,244,-171,224,494,-110,1,0,25,13,320,0,53298,1
2,31928,30949,32558,37797,39069,-4420,-1110,61,3056,171,301,222,490,-118,1,0,25,13,360,0,53298,1
2,31954,30957,32588,37798,39084,-4595,-442,6,1913,355,92,225,509,-115,1,0,25,13,400,0,53298,1
2,31963,30970,32601,37799,39099,-4616,-805,-163,616,577,-26,224,506,-106,1,0,25,13,440,0,53298,1
2,31980,30767,32631,37800,39114,-4281,-902,-422,755,1443,-682,227,505,-103,1,0,25,13,480,0,53298,1
2,31963,30817,32643,37801,39129,-4455,-748,14,2782,2243,-1027,227,505,-119,1,0,25,13,520,0,53298,1
2,31899,30840,32586,37802,39143,-4695,-435,425,2585,2165,-1139,225,513,-111,1,0,25,13,560,0,53298,1
2,31895,30605,32567,37803,39159,-4800,-601,-107,525,1724,-1014,224,512,-116,1,0,25,13,600,0,53298,1
2,31929,30917,32611,37804,39174,-4581,-824,-409,-225,1862,-60,224,504,-124,1,0,25,13,640,0,53298,1
2,31909,30797,32556,37805,39189,-4723,-918,-442,-218,1377,-377,224,512,-124,1,0,25,13,680,0,53298,1
2,31794,30773,32464,37806,39206,-4521,-1106,-103,418,260,196,228,514,-118,1,0,25,13,720,0,53298,1
2,31868,31083,32456,37807,39224,-4634,-1237,73,31,-1243,726,225,509,-123,1,0,25,13,760,0,53298,1
2,31855,30666,32487,37808,39243,-4986,-662,-643,581,-1978,1771,226,512,-124,1,0,25,13,800,0,53298,1
2,31967,30905,32561,37809,39264,-4522,-605,-350,-33,-1814,1392,218,520,-108,1,0,25,13,840,0,53298,1
2,31909,30848,32533,37810,39285,-4459,-324,-415,-1079,-1359,954,212,508,-108,1,0,25,13,880,0,53298,1
2,31861,30900,32421,37811,39305,-4497,-378,-549,-410,-694,73,213,511,-109,1,0,25,13,920,0,53298,1
2,31760,30521,32373,37812,39323,-3944,-518,-625,351,371,-1109,217,513,-119,1,0,25,13,960,0,53298,1
1,31762,30720,32395,37813,0,-4606,-1583,929,2263,365,64,219,511,-111,1,0,25,14,0,1,53298,1
2,31726,30547,32309,37814,38453,-4353,-451,197,859,-869,372,213,509,-111,1,0,25,14,40,1,53298,1
2,31760,30874,32423,37815,38467,-4464,-788,-412,-169,-743,546,218,508,-100,1,0,25,14,80,1,53298,1
2,31789,30741,32447,37816,38481,-4714,-704,-103,-1016,-258,153,218,514,-110,1,0,25,14,120,1,53298,1
2,31796,30731,32454,37817,38495,-4677,-628,-96,-394,-196,108,207,513,-101,1,0,25,14,160,1,53298,1
2,31786,30789,32448,37818,38509,-4788,-456,-232,-257,-11,-98,218,506,-118,1,0,25,14,200,1,53298,1
2,31742,30494,32410,37819,38523,-4728,-611,-87,-808,49,-345,223,505,-107,1,0,25,14,240,1,53298,1
2,31679,30813,32359,37820,38536,-4528,-701,74,-984,-140,-84,219,511,-113,1,0,25,14,280,1,53298,1
2,31672,30755,32323,37821,38549,-4404,-836,-72,-1235,-321,70,221,507,-115,1,0,25,14,320,1,53298,1
2,31662,30801,32343,37822,38563,-4392,-870,-301,-1148,-213,128,226,504,-118,1,0,25,14,360,1,53298,1
2,31674,30707,32343,37823,38576,-4467,-872,-336,-296,125,70,219,507,-103,1,0,25,14,400,1,53298,1
2,31685,30741,32422,37824,38589,-4595,-379,-250,698,187,408,218,504,-116,1,0,25,14,440,1,53298,1
2,31879,30600,32450,37825,38605,-3106,-1365,844,922,-621,1832,214,504,-118,1,0,25,14,480,1,53298,1
2,31958,30557,32589,37826,38622,-6127,615,-734,-2117,-597,405,218,510,-112,1,0,25,14,520,1,53298,1
2,32018,30682,32611,37827,38641,-4500,-602,-271,-1525,-249,-260,220,508,-102,1,0,25,14,560,1,53298,1
2,32012,30652,32605,37828,38660,-4652,-1777,-3,-286,-96,-332,217,509,-113,1,0,25,14,600,1,53298,1
2,32060,30914,32630,37829,38678,-4590,-260,-183,-215,-364,387,218,510,-112,1,0,25,14,640,1,53298,1
2,32092,30678,32671,37830,38697,-4438,-314,-136,-382,-12,201,213,507,-107,1,0,25,14,680,1,53298,1
2,32158,31018,32736,37831,38716,-4513,-798,165,-334,39,297,219,509,-113,1,0,25,14,720,1,53298,1
2,32244,31041,32799,37832,38735,-4534,-447,-398,-358,-192,428,218,496,-100,1,0,25,14,760,1,53298,1
2,32144,30893,32737,37833,38756,-4510,-438,-216,527,100,-21,216,508,-108,1,0,25,14,800,1,53298,1
2,32055,30868,32623,37834,38775,-4878,-1397,203,278,217,-432,215,517,-105,1,0,25,14,840,1,53298,1
2,32176,31022,32737,37835,38796,-4563,-322,72,-639,-621,641,210,506,-100,1,0,25,14,880,1,53298,1
2,32057,30905,32608,37836,38817,-4367,-241,-565,-1251,-406,370,209,509,-115,1,0,25,14,920,1,53298,1
2,31927,31873,32438,37837,38836,-4718,-464,-405,-66,500,-561,225,505,-107,1,0,25,14,960,1,53298,1
1,31896,31471,32468,37838,0,-6165,-1826,410,956,189,-240,216,508,-108,1,0,25,15,0,0,53298,1
2,32124,30985,32688,37839,37988,-4493,46,-479,-861,-698,689,219,513,-107,1,0,25,15,40,0,53298,1
2,32014,30734,32573,37840,38008,-4196,-565,-292,-403,170,-205,218,508,-104,1,0,25,15,80,0,53298,1
2,32059,35665,32546,37841,38028,-4394,-1422,368,237,682,-782,215,513,-95,1,0,25,15,120,0,53298,1
2,31891,30853,32356,37842,38048,-4077,-423,397,558,-495,570,221,497,-105,1,0,25,15,160,0,53298,1
2,32082,30950,32644,37843,38068,-4456,-114,-743,-1187,-275,368,223,505,-111,1,0,25,15,200,0,53298,1
2,31975,30873,32533,37844,38088,-4766,-648,-70,-153,615,-580,221,509,-113,1,0,25,15,240,0,53298,1
2,31927,30859,32500,37845,38108,-4526,-922,520,464,-200,152,213,509,-103,1,0,25,15,280,0,53298,1
2,31783,30790,32385,37846,38128,-4443,-192,-599,-481,-430,488,227,505,-109,1,0,25,15,320,0,53298,1
2,31925,30832,32477,37847,38147,-4727,-710,-219,-49,422,-368,225,501,-109,1,0,25,15,360,0,53298,1
2,31916,30735,32485,37848,38166,-5009,-1009,306,337,77,-88,222,510,-104,1,0,25,15,400,0,53298,1
2,31868,30731,32429,37849,38185,-4475,-365,-402,-67,-333,337,220,506,-92,1,0,25,15,440,0,53298,1
2,31881,30738,32435,37850,38205,-4591,-649,-179,-42,229,-224,219,499,-113,1,0,25,15,480,0,53298,1
2,31910,30490,32505,37851,38223,-4079,206,-988,691,875,-775,215,511,-109,1,0,25,15,520,0,53298,1
2,31922,30550,32533,37852,38240,-5462,-1840,1457,1857,472,-122,225,497,-99,1,0,25,15,560,0,53298,1
2,31877,30579,32468,37853,38258,-4529,-14,-580,-1544,-623,11,219,509,-105,1,0,25,15,600,0,53298,1
2,31846,30530,32425,37854,38276,-4331,-833,-453,-518,113,-52,220,496,-100,1,0,25,15,640,0,53298,1
2,31857,30542,32429,37855,38293,-5051,-1564,784,201,52,-9,222,504,-104,1,0,25,15,680,0,53298,1
2,31869,30604,32442,37856,38313,-4073,-62,-400,-666,-894,802,217,505,-109,1,0,25,15,720,0,53298,1
2,31934,30607,32510,37857,38332,-4431,-614,-210,-888,23,208,224,500,-98,1,0,25,15,760,0,53298,1
2,32127,30666,32700,37858,38353,-4590,-706,214,-660,153,170,220,508,-96,1,0,25,15,800,0,53298,1
2,32178,30656,32752,37859,38374,-4450,-190,-406,2,-165,284,212,504,-108,1,0,25,15,840,0,53298,1
2,31970,30499,32522,37860,38392,-4372,-183,-840,847,599,-589,225,507,-105,1,0,25,15,880,0,53298,1
2,32085,30833,32648,37861,38409,-5000,-899,-536,1797,1829,-1394,216,500,-104,1,0,25,15,920,0,53298,1
2,32014,30825,32609,37862,38424,-4826,-1220,1028,3109,391,-35,220,500,-108,1,0,25,15,960,0,53298,1
1,31945,31781,32467,37863,0,-4277,-472,-77,1234,-771,384,213,501,-107,1,0,25,16,0,1,53298,1
2,31911,30531,32405,37864,37515,-4676,-743,-410,87,-605,723,216,510,-98,1,0,25,16,40,1,53298,1
2,31855,30785,32429,37865,37531,-4141,-1283,781,-1118,-575,958,213,505,-105,1,0,25,16,80,1,53298,1
2,31929,30851,32535,37866,37549,-4831,326,-562,-2386,-576,-45,211,501,-111,1,0,25,16,120,1,53298,1
2,31953,30923,32455,37867,37568,-4798,-1372,35,-612,-293,-18,217,505,-115,1,0,25,16,160,1,53298,1
2,31945,30925,32500,37868,37587,-4218,-65,-183,-1191,-167,-16,221,503,-105,1,0,25,16,200,1,53298,1
2,31905,30879,32497,37869,37606,-4471,-411,-504,-448,469,-340,220,494,-110,1,0,25,16,240,1,53298,1
2,31912,30791,32479,37870,37623,-4797,-2069,234,483,757,-587,218,500,-110,1,0,25,16,280,1,53298,1
2,31952,30619,32507,37871,37642,-4162,-81,146,-66,-377,632,230,498,-114,1,0,25,16,320,1,53298,1
2,31994,30756,32551,37872,37661,-4403,-216,-765,-1418,-125,259,219,511,-101,1,0,25,16,360,1,53298,1
2,31932,30465,32464,37873,37679,-4566,-193,-353,-42,656,-684,219,511,-111,1,0,25,16,400,1,53298,1
2,31915,30533,32474,37874,37698,-5252,-1143,678,867,67,-120,222,510,-104,1,0,25,16,440,1,53298,1
2,31879,30445,32432,37875,37717,-4646,-375,-531,-740,-502,73,216,504,-110,1,0,25,16,480,1,53298,1
2,31891,30497,32451,37876,37735,-4517,-510,-238,-359,81,-89,214,510,-104,1,0,25,16,520,1,53298,1
2,31903,30452,32506,37877,37750,-4751,-771,-386,221,690,-330,225,505,-113,1,0,25,16,560,1,53298,1
2,31980,30628,32380,37878,37766,-4959,-759,129,1437,588,-493,219,499,-111,1,0,25,16,600,1,53298,1
2,31938,30686,32557,37879,37780,-4661,-528,198,-94,112,-465,221,503,-113,1,0,25,16,640,1,53298,1
2,31884,30434,32513,37880,37795,-4464,-808,2,-880,-222,15,220,498,-110,1,0,25,16,680,1,53298,1
2,31894,30556,32531,37881,37809,-4533,-745,-273,-1020,-334,-12,228,498,-112,1,0,25,16,720,1,53298,1
2,31892,30610,32545,37882,37823,-4572,-836,-296,-508,-173,-153,229,507,-111,1,0,25,16,760,1,53298,1
2,31925,30601,32536,37883,37838,-4764,-603,-239,351,-39,-149,221,503,-119,1,0,25,16,800,1,53298,1
2,31895,30465,32537,37884,37851,-4819,-667,-27,275,64,-232,236,498,-114,1,0,25,16,840,1,53298,1
2,31847,30610,32435,37885,37865,-4418,-696,82,569,-227,12,231,503,-113,1,0,25,16,880,1,53298,1
2,31869,30496,32521,37886,37878,-4310,-712,-3,-12,-261,97,217,503,-105,1,0,25,16,920,1,53298,1
2,32004,30725,32594,37887,37892,-5306,-457,-341,-1621,78,-320,226,504,-108,1,0,25,16,960,1,53298,1
1,32023,30811,32668,37888,0,-4772,-657,-9,-577,-19,-12,241,493,-123,1,0,25,17,0,0,53298,1
2,31996,30713,32595,37889,37043,-3982,-803,149,953,-418,416,233,499,-123,1,0,25,17,40,0,53298,1
2,31910,30828,32496,37890,37056,-4240,-922,-150,-119,-265,197,238,502,-122,1,0,25,17,80,0,53298,1
2,32002,30561,32582,37891,37070,-5272,-575,-400,-2071,309,-411,234,500,-124,1,0,25,17,120,0,53298,1
2,32153,30889,32751,37892,37083,-4673,-658,-12,245,117,129,234,494,-116,1,0,25,17,160,0,53298,1
2,32134,30797,32743,37893,37098,-3917,-872,222,1074,-233,595,236,496,-122,1,0,25,17,200,0,53298,1
2,32059,30669,32640,37894,37112,-3547,-1328,75,341,-321,486,229,491,-129,1,0,25,17,240,0,53298,1
2,32037,30669,32641,37895,37126,-6056,60,-924,-2833,288,-811,231,493,-131,1,0,25,17,280,0,53298,1
2,32027,30857,32660,37896,37141,-5442,-463,56,57,380,-118,237,493,-125,1,0,25,17,320,0,53298,1
2,31879,32614,32426,37897,37154,-3759,-723,469,2835,-623,1100,231,493,-119,1,0,25,17,360,0,53298,1
2,31928,30713,32577,37898,37169,-3239,-1217,349,320,-883,771,223,491,-119,1,0,25,17,400,0,53298,1
2,31917,30669,32531,37899,37182,-4010,-1199,-453,-2185,-551,55,226,496,-116,1,0,25,17,440,0,53298,1
2,31938,30533,32593,37900,37197,-5560,-616,-929,-3033,757,-895,237,481,-123,1,0,25,17,480,0,53298,1
2,31935,30572,32563,37901,37212,-4757,-638,92,2166,713,-83,236,496,-126,1,0,25,17,520,0,53298,1
2,32015,30739,32641,37902,37227,-3559,-876,369,3984,-93,513,221,493,-119,1,0,25,17,560,0,53298,1
2,31923,30720,32538,37903,37242,-3606,-662,5,1638,-162,581,223,493,-119,1,0,25,17,600,0,53298,1
2,31899,30624,32498,37904,37258,-3971,-591,-288,20,271,1613,210,504,-106,1,0,25,17,640,0,53298,1
2,32017,30582,32674,37905,37275,-10135,857,-1071,-2146,968,541,208,512,-108,1,0,25,17,680,0,53298,1
2,31821,30694,32523,37906,37292,-4790,-582,644,644,-1275,-650,218,496,-106,1,0,25,17,720,0,53298,1
2,31815,31036,32443,37907,37309,-3581,-813,-205,225,-1855,-201,224,496,-104,1,0,25,17,760,0,53298,1
2,31797,30578,32435,37908,37325,-3796,-1186,-206,367,-773,55,220,498,-92,1,0,25,17,800,0,53298,1
2,31888,31842,32454,37909,37341,-5459,-384,-276,-1841,807,-674,224,502,-108,1,0,25,17,840,0,53298,1
2,31960,30581,32603,37910,37355,-5048,-535,258,155,699,-266,217,501,-107,1,0,25,17,880,0,53298,1
2,31942,30647,32595,37911,37370,-3944,-651,264,1394,118,293,217,507,-101,1,0,25,17,920,0,53298,1
2,31953,30910,32588,37912,37385,-3891,-989,-103,348,96,92,221,499,-107,1,0,25,17,960,0,53298,1
1,31850,30593,32589,37913,0,-5216,-459,-500,-2122,865,-809,223,499,-109,1,0,25,18,0,1,53298,1
2,31965,30866,32614,37914,36575,-5072,-639,-96,-680,675,-632,232,492,-112,1,0,25,18,40,1,53298,1
2,31922,30718,32558,37915,36590,-4134,-761,94,1191,-114,17,236,490,-116,1,0,25,18,80,1,53298,1
2,31910,30800,32554,37916,36606,-4827,-510,-408,1,-253,-139,232,492,-114,1,0,25,18,120,1,53298,1
2,31944,30675,32560,37917,36620,-5502,-582,-223,-1984,97,-451,227,499,-123,1,0,25,18,160,1,53298,1
2,31939,30649,32555,37918,36635,-4231,-658,243,905,-657,769,229,499,-117,1,0,25,18,200,1,53298,1
2,31880,30708,32476,37919,36649,-3370,-968,341,1101,-923,1248,226,502,-124,1,0,25,18,240,1,53298,1
2,31814,30442,32406,37920,36664,-3243,-1500,-23,-576,-601,573,229,489,-125,1,0,25,18,280,1,53298,1
2,31865,30466,32491,37921,36679,-6062,52,-1183,-3650,636,-1117,230,488,-120,1,0,25,18,320,1,53298,1
2,31895,30490,32528,37922,36693,-5863,-466,82,373,1065,-694,232,492,-122,1,0,25,18,360,1,53298,1
2,31870,30460,32472,37923,36707,-3835,-567,560,4087,-152,662,220,498,-116,1,0,25,18,400,1,53298,1
2,31742,30418,32339,37924,36722,-2715,-1374,660,2749,-729,959,228,486,-124,1,0,25,18,440,1,53298,1
2,31775,30437,32385,37925,36738,-5454,-3,-1108,-3537,87,-844,230,494,-120,1,0,25,18,480,1,53298,1
2,31818,30484,32446,37926,36753,-6463,-851,-353,-4431,1259,-1235,229,493,-125,1,0,25,18,520,1,53298,1
2,31768,30415,32381,37927,36768,-4226,-456,329,3462,-258,548,233,497,-123,1,0,25,18,560,1,53298,1
2,31732,30542,32340,37928,36783,-3151,-1012,518,3857,-1040,1093,221,491,-119,1,0,25,18,600,1,53298,1
2,31950,30860,32517,37929,36799,-3153,-1565,58,176,-633,560,234,496,-108,1,0,25,18,640,1,53298,1
2,31905,30892,32512,37930,36814,-6409,214,-1351,-5471,1049,-1621,233,495,-111,1,0,25,18,680,1,53298,1
2,31927,30689,32548,37931,36829,-6183,-389,79,-623,1100,-675,231,493,-129,1,0,25,18,720,1,53298,1
2,31854,30637,32454,37932,36845,-3800,-605,558,4348,-531,1167,236,498,-126,1,0,25,18,760,1,53298,1
2,31859,30637,32415,37933,36861,-2740,-1390,537,2784,-1115,1206,232,486,-124,1,0,25,18,800,1,53298,1
2,31914,30639,32499,37934,36876,-4568,-518,-921,-2752,-105,-439,230,494,-122,1,0,25,18,840,1,53298,1
2,31894,30772,32505,37935,36893,-6127,-709,-507,-4407,1313,-1176,228,496,-110,1,0,25,18,880,1,53298,1
2,31841,30772,32470,37936,36908,-5060,-257,205,1587,258,-9,231,495,-127,1,0,25,18,920,1,53298,1
2,31828,30781,32436,37937,36924,-4379,-515,163,3035,-763,661,231,497,-117,1,0,25,18,960,1,53298,1
1,31810,30746,32405,37938,0,-4523,-725,-66,-364,-518,174,231,495,-119,1,0,25,19,0,0,53298,1
2,31809,30785,32395,37939,36105,-4232,-825,25,-570,-326,332,229,489,-125,1,0,25,19,40,0,53298,1
2,31782,30724,32370,37940,36120,-3743,-1200,111,-53,-77,257,226,492,-120,1,0,25,19,80,0,53298,1
2,31810,30575,32395,37941,36136,-5982,-40,-830,-1901,430,-739,234,498,-124,1,0,25,19,120,0,53298,1
2,31822,30752,32409,37942,36151,-5272,-519,62,226,570,-220,228,500,-124,1,0,25,19,160,0,53298,1
2,31815,30677,32398,37943,36166,-3679,-784,462,2786,-263,725,222,502,-118,1,0,25,19,200,0,53298,1
2,31732,30568,32330,37944,36181,-3154,-1288,391,488,-383,524,224,488,-126,1,0,25,19,240,0,53298,1
2,31776,30605,32358,37945,36196,-3914,-1104,-459,-1712,-199,-168,232,490,-114,1,0,25,19,280,0,53298,1
2,31863,30756,32460,37946,36210,-6624,-287,-1127,-4527,1337,-1676,231,499,-123,1,0,25,19,320,0,53298,1
2,31850,30486,32492,37947,36225,-5438,-229,218,2409,686,-50,231,493,-133,1,0,25,19,360,0,53298,1
2,31469,30353,32368,37948,36239,-3590,-643,645,4924,-848,1198,234,492,-116,1,0,25,19,400,0,53298,1
2,31934,30572,32507,37949,36254,-2799,-1733,356,952,-1044,907,219,493,-125,1,0,25,19,440,0,53298,1
2,31861,30815,32482,37950,36269,-5679,221,-1156,-4728,97,-980,226,498,-122,1,0,25,19,480,0,53298,1
2,31821,30723,32481,37951,36284,-6416,-642,-254,-3343,997,-1017,238,498,-126,1,0,25,19,520,0,53298,1
2,31835,30705,32452,37952,36300,-4262,-449,334,3442,-291,761,230,500,-120,1,0,25,19,560,0,53298,1
2,31737,30698,32331,37953,36315,-3103,-1145,569,3362,-950,1193,230,490,-120,1,0,25,19,600,0,53298,1
2,31918,30788,32513,37954,36329,-3640,-1127,-247,-646,-419,233,227,489,-107,1,0,25,19,640,0,53298,1
2,31833,30820,32460,37955,36344,-6478,-183,-1010,-5140,1303,-1556,236,496,-114,1,0,25,19,680,0,53298,1
2,31828,30849,32459,37956,36358,-5696,-281,163,491,784,-337,224,486,-124,1,0,25,19,720,0,53298,1
2,31793,30842,32422,37957,36373,-3725,-664,495,4123,-708,1015,237,493,-121,1,0,25,19,760,0,53298,1
2,31748,30418,32346,37958,36387,-3175,-1553,110,1349,-867,784,228,498,-116,1,0,25,19,800,0,53298,1
2,31769,30800,32387,37959,36402,-5516,-114,-915,-3674,398,-854,233,497,-127,1,0,25,19,840,0,53298,1
2,31702,30336,32352,37960,36418,-5674,-557,-20,-1603,845,-626,228,500,-132,1,0,25,19,880,0,53298,1
2,31679,30314,32310,37961,36432,-4070,-634,336,2269,-179,476,232,494,-120,1,0,25,19,920,0,53298,1
2,31699,30345,32290,37962,36447,-3257,-1383,205,2031,-746,798,231,497,-111,1,0,25,19,960,0,53298,1
1,31761,30665,32388,37963,0,-5695,-11,-957,-2498,148,-669,236,496,-110,1,0,25,20,0,0,53298,1
2,31778,30630,32422,37964,35637,-5708,-448,53,-1424,659,-512,237,497,-125,1,0,25,20,40,0,53298,1
2,31750,30607,32372,37965,35652,-4078,-577,380,2244,-342,562,228,494,-118,1,0,25,20,80,0,53298,1
2,31729,30608,32330,37966,35667,-3192,-1282,363,1733,-811,794,223,497,-111,1,0,25,20,120,0,53298,1
2,31749,30781,32347,37967,35681,-3873,-1153,-545,-1032,-152,55,237,493,-121,1,0,25,20,160,0,53298,1
2,31716,30343,32377,37968,35696,-6469,-377,-898,-4115,1417,-1542,231,499,-115,1,0,25,20,200,0,53298,1
2,31781,30824,32411,37969,35711,-5419,-236,253,1674,710,-129,223,497,-117,1,0,25,20,240,0,53298,1
2,31745,30775,32369,37970,35726,-3629,-678,592,3953,-767,1152,232,496,-124,1,0,25,20,280,0,53298,1
2,31772,30780,32364,37971,35741,-2899,-1481,285,610,-926,866,226,490,-116,1,0,25,20,320,0,53298,1
2,31835,30807,32463,37972,35756,-5238,-153,-1169,-3552,239,-753,232,494,-120,1,0,25,20,360,0,53298,1
2,31713,30466,32338,37973,35771,-6380,-701,-297,-3254,1293,-1141,233,499,-111,1,0,25,20,400,0,53298,1
2,31707,30664,32334,37974,35786,-4501,-380,347,3185,-169,497,236,500,-116,1,0,25,20,440,0,53298,1
2,31692,30734,32301,37975,35800,-3417,-898,489,3395,-1076,1041,230,498,-120,1,0,25,20,480,0,53298,1
2,31718,30695,32317,37976,35816,-3425,-1419,-199,-447,-605,414,221,493,-107,1,0,25,20,520,0,53298,1
2,31707,30465,32353,37977,35832,-6102,-105,-899,-4174,902,-1200,228,494,-124,1,0,25,20,560,0,53298,1
2,31699,30574,32342,37978,35847,-5774,-382,78,-505,727,-459,235,491,-129,1,0,25,20,600,0,53298,1
2,31685,30699,32298,37979,35862,-3978,-650,344,2996,-530,791,233,489,-127,1,0,25,20,640,0,53298,1
2,31673,30693,32263,37980,35877,-3305,-1195,230,1513,-783,727,224,488,-116,1,0,25,20,680,0,53298,1
2,31690,30607,32300,37981,35891,-4530,-691,-783,-1619,75,-294,228,492,-122,1,0,25,20,720,0,53298,1
2,31545,32272,32177,37982,35906,-5953,-604,-315,-3025,1147,-1053,233,501,-115,1,0,25,20,760,0,53298,1
2,31541,31712,32188,37983,35922,-4825,-373,234,1609,30,211,233,503,-125,1,0,25,20,800,0,53298,1
2,31581,30729,32193,37984,35938,-3691,-844,337,2432,-852,893,232,496,-120,1,0,25,20,840,0,53298,1
2,31613,30326,32206,37985,35953,-3321,-1425,-145,-31,-563,483,221,483,-117,1,0,25,20,880,0,53298,1
2,31705,30632,32318,37986,35967,-5653,-129,-789,-2636,607,-803,217,497,-115,1,0,25,20,920,0,53298,1
2,31662,30381,32299,37987,35983,-5919,-448,33,-1080,855,-638,228,506,-114,1,0,25,20,960,0,53298,1
1,31633,30345,32248,37988,0,-4271,-564,274,2432,-387,553,235,493,-129,1,0,25,21,0,0,53298,1
2,31579,30410,32173,37989,35166,-3586,-1009,250,1628,-799,720,231,491,-121,1,0,25,21,40,0,53298,1
2,31608,30626,32188,37990,35181,-4220,-964,-517,-1332,-121,-24,224,496,-126,1,0,25,21,80,0,53298,1
2,31639,30403,32268,37991,35195,-5711,-539,-440,-2676,843,-845,235,501,-119,1,0,25,21,120,0,53298,1
2,31663,30488,32285,37992,35210,-4998,-436,140,930,201,40,227,499,-129,1,0,25,21,160,0,53298,1
2,31662,30627,32270,37993,35224,-3886,-791,266,2068,-557,631,223,495,-119,1,0,25,21,200,0,53298,1
2,31667,30708,32273,37994,35238,-3828,-1146,-191,100,-375,297,227,503,-123,1,0,25,21,240,0,53298,1
2,31688,30680,32308,37995,35252,-5487,-385,-507,-2078,482,-630,226,494,-124,1,0,25,21,280,0,53298,1
2,31678,30663,32297,37996,35266,-5220,-455,33,25,329,-173,234,498,-126,1,0,25,21,320,0,53298,1
2,31654,30610,32261,37997,35280,-4076,-747,205,1464,-373,433,227,497,-115,1,0,25,21,360,0,53298,1
2,31653,30553,32248,37998,35295,-3537,-1100,99,570,-454,449,228,498,-118,1,0,25,21,400,0,53298,1
2,31570,31857,32175,37999,35310,-4453,-806,-655,-1062,152,-185,223,497,-115,1,0,25,21,440,0,53298,1
2,31660,30430,32287,38000,35325,-5846,-536,-379,-1716,873,-780,225,497,-113,1,0,25,21,480,0,53298,1
2,31526,32753,32159,38001,35339,-5010,-332,178,1477,10,141,227,507,-131,1,0,25,21,520,0,53298,1
2,31506,34143,32093,38002,35354,-4001,-745,281,1851,-711,649,224,492,-122,1,0,25,21,560,0,53298,1
2,31532,34025,32102,38003,35368,-3880,-961,-70,-572,-430,255,223,497,-123,1,0,25,21,600,0,53298,1
2,31617,33357,32116,38004,35382,-3975,-1090,-185,-905,81,4,233,505,-113,1,0,25,21,640,0,53298,1
2,31499,30318,32207,38005,35396,-4580,-671,-453,212,587,-38,228,506,-110,1,0,25,21,680,0,53298,1
2,31545,30635,32157,38006,35411,-6496,-219,-520,-724,923,-749,233,499,-113,1,0,25,21,720,0,53298,1
2,31567,30857,32178,38007,35426,-5276,-255,260,1574,-81,68,236,498,-120,1,0,25,21,760,0,53298,1
2,31566,30359,32176,38008,35440,-3870,-620,400,2148,-985,838,227,493,-121,1,0,25,21,800,0,53298,1
2,31571,30364,32151,38009,35455,-3554,-1084,80,-383,-758,534,228,506,-116,1,0,25,21,840,0,53298,1
2,31584,30474,32183,38010,35469,-4708,-644,-683,-2243,121,-234,225,497,-121,1,0,25,21,880,0,53298,1
2,31561,30685,32173,38011,35483,-5794,-715,-352,-2099,882,-788,237,491,-121,1,0,25,21,920,0,53298,1
2,31543,30420,32168,38012,35497,-4604,-489,194,2071,10,212,235,501,-117,1,0,25,21,960,0,53298,1
1,31540,30328,32134,38013,0,-3705,-799,333,2274,-520,690,227,499,-105,1,0,25,22,0,1,53298,1
2,31551,30284,32128,38014,34697,-3463,-1175,11,-250,-214,289,226,496,-124,1,0,25,22,40,1,53298,1
2,31575,30293,32200,38015,34712,-5735,-164,-793,-2854,660,-846,219,497,-109,1,0,25,22,80,1,53298,1
2,31572,30301,32199,38016,34726,-5775,-528,-41,-1149,742,-573,234,496,-120,1,0,25,22,120,1,53298,1
2,31578,30284,32168,38017,34740,-4147,-608,241,2452,-487,602,220,500,-120,1,0,25,22,160,1,53298,1
2,31581,30300,32166,38018,34753,-3449,-1028,230,1516,-803,773,215,489,-109,1,0,25,22,200,1,53298,1
2,31583,30290,32173,38019,34768,-3653,-1199,-194,-836,-251,270,232,496,-118,1,0,25,22,240,1,53298,1
2,31620,30309,32232,38020,34782,-6251,-134,-836,-3161,892,-1082,232,494,-120,1,0,25,22,280,1,53298,1
2,31602,30308,32223,38021,34796,-5695,-316,115,416,496,-229,228,498,-114,1,0,25,22,320,1,53298,1
2,31585,30312,32184,38022,34811,-3942,-612,352,3065,-703,823,224,500,-118,1,0,25,22,360,1,53298,1
2,31580,30323,32165,38023,34825,-3344,-1098,229,1021,-720,599,217,493,-109,1,0,25,22,400,1,53298,1
2,31600,30333,32183,38024,34839,-3990,-942,-395,-1462,8,-88,230,504,-124,1,0,25,22,440,1,53298,1
2,31512,34211,32090,38025,34853,-5573,-607,-636,-2612,957,-853,227,499,-125,1,0,25,22,480,1,53298,1
2,31480,33488,32071,38026,34868,-5368,-442,-6,940,459,-115,229,497,-123,1,0,25,22,520,1,53298,1
2,31469,33407,32049,38027,34883,-4291,-672,152,2550,-484,500,232,500,-106,1,0,25,22,560,1,53298,1
2,31472,34010,32048,38028,34899,-3920,-798,52,1119,-547,459,218,494,-110,1,0,25,22,600,1,53298,1
2,31708,30696,32306,38029,34915,-3957,-1155,10,-747,-102,1363,227,495,-123,1,0,25,22,640,1,53298,1
2,31720,30395,32317,38030,34933,-4653,-654,-364,-379,234,674,213,499,-111,1,0,25,22,680,1,53298,1
2,31730,30743,32325,38031,34951,-6090,-235,-465,0,382,315,219,497,-105,1,0,25,22,720,1,53298,1
2,31645,30301,32245,38032,34968,-5424,-70,7,748,-265,-306,226,510,-102,1,0,25,22,760,1,53298,1
2,31695,30327,32279,38033,34985,-4894,-671,-35,-806,-298,-856,218,500,-112,1,0,25,22,800,1,53298,1
2,31730,30417,32325,38034,35001,-4097,-724,193,-145,-726,-251,231,505,-117,1,0,25,22,840,1,53298,1
2,31734,30438,32324,38035,35017,-3639,-930,82,147,-503,307,221,491,-119,1,0,25,22,880,1,53298,1
2,31807,30797,32404,38036,35032,-4403,-821,-439,-1110,387,-186,223,499,-115,1,0,25,22,920,1,53298,1
2,31762,30804,32367,38037,35048,-5701,-514,-418,-1968,1062,-898,223,503,-109,1,0,25,22,960,1,53298,1
1,31719,30772,32334,38038,0,-4713,-465,184,1146,276,-153,232,506,-116,1,0,25,23,0,1,53298,1
2,31656,30497,32272,38039,34230,-3603,-855,344,1442,-288,772,229,491,-121,1,0,25,23,40,1,53298,1
2,31694,30442,32270,38040,34247,-3343,-1389,-57,-14,-265,424,224,500,-110,1,0,25,23,80,1,53298,1
2,31728,30446,32345,38041,34263,-6023,31,-998,-3256,761,-1027,227,495,-123,1,0,25,23,120,1,53298,1
2,31710,30436,32317,38042,34279,-5828,-528,28,-599,593,-657,227,495,-121,1,0,25,23,160,1,53298,1
2,31696,30390,32272,38043,34295,-3972,-628,406,3097,-798,821,229,495,-113,1,0,25,23,200,1,53298,1
2,31672,30349,32231,38044,34311,-3150,-1178,345,1601,-1103,1025,225,499,-127,1,0,25,23,240,1,53298,1
2,31725,30628,32326,38045,34326,-3777,-1027,-367,-1204,-422,259,223,501,-105,1,0,25,23,280,1,53298,1
2,31744,30638,32375,38046,34342,-6463,-304,-988,-4459,1255,-1413,228,496,-118,1,0,25,23,320,1,53298,1
2,31716,30511,32333,38047,34357,-5611,-251,176,1315,558,-347,239,491,-115,1,0,25,23,360,1,53298,1
2,31675,30469,32280,38048,34372,-3770,-633,492,4014,-743,900,232,496,-118,1,0,25,23,400,1,53298,1
2,31702,30366,32274,38049,34386,-3053,-1243,314,1369,-800,739,225,501,-119,1,0,25,23,440,1,53298,1
2,31721,30563,32350,38050,34402,-5233,-114,-894,-2664,355,-672,224,494,-112,1,0,25,23,480,1,53298,1
2,31763,30524,32391,38051,34418,-6216,-737,-211,-3586,1217,-1139,229,499,-119,1,0,25,23,520,1,53298,1
2,31713,30511,32335,38052,34433,-4437,-454,230,2418,-272,418,227,499,-117,1,0,25,23,560,1,53298,1
2,31697,30475,32265,38053,34448,-3286,-947,400,3041,-968,1175,225,495,-119,1,0,25,23,600,1,53298,1
2,31730,30451,32278,38054,34463,-2873,-1456,76,827,-649,647,233,481,-123,1,0,25,23,640,1,53298,1
2,31821,30831,32428,38055,34478,-4843,-339,-946,-2756,972,-732,225,495,-115,1,0,25,23,680,1,53298,1
2,31835,30840,32458,38056,34493,-6185,-810,-302,-2696,1497,-413,226,494,-122,1,0,25,23,720,1,53298,1
2,31568,30620,32104,38057,34509,-5204,-216,224,2552,-181,582,225,509,-119,1,0,25,23,760,1,53298,1
2,31539,30366,32106,38058,34525,-4550,-521,111,2441,-1052,585,218,502,-112,1,0,25,23,800,1,53298,1
2,31490,30240,32081,38059,34540,-4230,-684,-1,-81,-708,321,217,501,-117,1,0,25,23,840,1,53298,1
2,31495,30490,32107,38060,34557,-4343,-779,-64,-1319,-61,154,230,502,-112,1,0,25,23,880,1,53298,1
2,31499,30498,32113,38061,34573,-5307,-373,-386,-861,375,-202,209,497,-105,1,0,25,23,920,1,53298,1
2,31686,30544,32232,38062,34589,-5125,-553,-45,-148,356,-354,226,504,-114,1,0,25,23,960,1,53298,1
1,31807,30815,32379,38063,0,-4100,-697,203,946,-252,300,226,506,-114,1,0,25,24,0,0,53298,1
2,31808,30421,32356,38064,33763,-3750,-898,113,206,-259,368,226,488,-116,1,0,25,24,40,0,53298,1
2,31815,30701,32384,38065,33779,-4617,-645,-570,-1257,252,-133,223,503,-109,1,0,25,24,80,0,53298,1
2,31843,30515,32406,38066,33794,-6010,-637,-467,-2527,930,-1061,225,499,-117,1,0,25,24,120,0,53298,1
2,31743,30375,32349,38067,33810,-4701,-407,189,1692,-199,-169,230,490,-124,1,0,25,24,160,0,53298,1
2,31717,30355,32315,38068,33825,-3495,-880,387,2258,-865,706,225,497,-119,1,0,25,24,200,0,53298,1
2,31701,30368,32303,38069,33839,-3116,-1287,105,-60,-526,440,224,484,-120,1,0,25,24,240,0,53298,1
2,31770,30713,32366,38070,33854,-5285,-203,-1037,-2097,585,-705,216,498,-112,1,0,25,24,280,0,53298,1
2,31796,30710,32428,38071,33868,-6391,-713,-194,-2408,1347,-1186,227,501,-109,1,0,25,24,320,0,53298,1
2,31767,30697,32358,38072,33883,-4482,-315,328,3362,-332,371,227,503,-115,1,0,25,24,360,0,53298,1
2,31717,30700,32296,38073,33897,-3312,-872,519,3009,-1090,1020,227,495,-111,1,0,25,24,400,0,53298,1
2,31741,30773,32333,38074,33912,-3093,-1583,-104,-206,-676,495,231,497,-111,1,0,25,24,440,0,53298,1
2,31775,30608,32379,38075,33927,-6371,168,-1141,-4875,1136,-1406,221,499,-123,1,0,25,24,480,0,53298,1
2,31777,30829,32416,38076,33943,-6148,-478,74,-925,947,-612,235,499,-121,1,0,25,24,520,0,53298,1
2,31749,30795,32325,38077,33957,-3910,-587,370,3867,-623,992,232,504,-118,1,0,25,24,560,0,53298,1
2,31720,30793,32286,38078,33972,-3023,-1213,321,2540,-911,1106,224,500,-116,1,0,25,24,600,0,53298,1
2,31757,30590,32345,38079,33988,-4114,-685,-667,-1009,88,-32,224,488,-116,1,0,25,24,640,0,53298,1
2,31768,30548,32385,38080,34003,-6570,-590,-634,-5095,1554,-1555,236,500,-122,1,0,25,24,680,0,53298,1
2,31735,30552,32351,38081,34018,-5223,-221,250,1392,152,-52,231,503,-123,1,0,25,24,720,0,53298,1
2,31698,30607,32281,38082,34033,-3553,-783,412,3655,-1151,1077,231,491,-109,1,0,25,24,760,0,53298,1
2,31712,30594,32275,38083,34048,-2931,-1396,100,1030,-891,626,222,494,-112,1,0,25,24,800,0,53298,1
2,31754,30750,32358,38084,34063,-4992,-375,-866,-2805,621,-766,220,504,-120,1,0,25,24,840,0,53298,1
2,31792,30792,32410,38085,34078,-6211,-651,-196,-2893,1330,-1074,223,497,-121,1,0,25,24,880,0,53298,1
2,31482,30704,32206,38086,34093,-4803,-357,244,1968,-121,508,221,499,-119,1,0,25,24,920,0,53298,1
2,31719,30620,32285,38087,34109,-3668,-831,271,2635,-1049,1174,226,500,-118,1,0,25,24,960,0,53298,1
1,31720,30503,32296,38088,0,-3520,-1180,-165,-300,-514,378,222,488,-118,1,0,25,25,0,1,53298,1
2,31735,30470,32343,38089,33293,-5671,-171,-613,-2635,686,-810,233,503,-119,1,0,25,25,40,1,53298,1
2,31699,30471,32314,38090,33309,-5775,-474,66,-1009,724,-682,230,504,-112,1,0,25,25,80,1,53298,1
2,31683,30439,32291,38091,33324,-4186,-631,185,2253,-515,377,228,508,-118,1,0,25,25,120,1,53298,1
2,31679,30512,32268,38092,33339,-3905,-882,-9,1305,-616,406,230,494,-118,1,0,25,25,160,1,53298,1
2,31719,30654,32322,38093,33353,-4731,-688,-274,-1813,220,-323,227,487,-121,1,0,25,25,200,1,53298,1
2,31714,30619,32307,38094,33368,-4838,-640,-112,-877,326,-165,225,493,-117,1,0,25,25,240,1,53298,1
2,31706,30622,32299,38095,33383,-4243,-788,-9,579,25,230,226,502,-112,1,0,25,25,280,1,53298,1
2,31702,30600,32293,38096,33399,-4230,-891,-195,600,-57,190,225,499,-119,1,0,25,25,320,1,53298,1
2,31714,30563,32316,38097,33413,-5345,-407,-313,-918,358,-430,234,502,-122,1,0,25,25,360,1,53298,1
2,31703,30514,32296,38098,33429,-4932,-456,112,193,50,-51,234,494,-124,1,0,25,25,400,1,53298,1
2,31701,30501,32286,38099,33443,-4015,-814,141,699,-525,388,228,498,-116,1,0,25,25,440,1,53298,1
2,31692,30500,32271,38100,33458,-3521,-1207,-52,278,-483,405,227,497,-123,1,0,25,25,480,1,53298,1
2,31726,30549,32332,38101,33473,-5548,-213,-769,-1598,412,-630,231,491,-111,1,0,25,25,520,1,53298,1
2,31720,30611,32331,38102,33488,-5744,-427,55,-578,731,-568,224,502,-128,1,0,25,25,560,1,53298,1
2,31703,30554,32305,38103,33503,-4194,-562,292,2190,-410,498,231,493,-119,1,0,25,25,600,1,53298,1
2,31672,30540,32247,38104,33518,-3415,-1098,258,1082,-810,660,225,491,-101,1,0,25,25,640,1,53298,1
2,31699,30579,32289,38105,33533,-3918,-996,-372,-1184,-258,110,232,496,-116,1,0,25,25,680,1,53298,1
2,31699,30383,32306,38106,33548,-6413,-359,-877,-3386,947,-1268,234,496,-122,1,0,25,25,720,1,53298,1
2,31676,30364,32292,38107,33562,-5416,-272,211,1408,332,-142,239,499,-115,1,0,25,25,760,1,53298,1
2,31640,30386,32224,38108,33577,-3693,-667,477,3493,-912,931,235,491,-119,1,0,25,25,800,1,53298,1
2,31640,30377,32235,38109,33592,-3087,-1254,284,537,-815,670,225,493,-105,1,0,25,25,840,1,53298,1
2,31730,30353,32318,38110,33607,-4128,-846,-746,-2028,145,-164,226,490,-114,1,0,25,25,880,1,53298,1
2,31778,30653,32398,38111,33622,-6477,-587,-685,-3710,1528,-1253,232,494,-116,1,0,25,25,920,1,53298,1
2,31739,30630,32356,38112,33638,-5303,-219,245,2120,471,178,221,505,-115,1,0,25,25,960,1,53298,1
1,31487,30565,32084,38113,0,-3749,-657,451,3697,-770,1098,229,505,-119,1,0,25,26,0,0,53298,1
2,31460,30592,32043,38114,32825,-3310,-1114,152,254,-589,539,233,501,-115,1,0,25,26,40,0,53298,1
2,31499,30690,32078,38115,32839,-4150,-853,-556,-2033,255,-179,216,500,-110,1,0,25,26,80,0,53298,1
2,31397,32508,32060,38116,32854,-5402,-697,-554,-2195,1031,-634,226,492,-122,1,0,25,26,120,0,53298,1
2,31411,32299,31966,38117,32868,-5287,-446,-50,1538,333,12,222,506,-122,1,0,25,26,160,0,53298,1
2,31393,31845,31961,38118,32883,-5091,-324,-32,2272,-423,244,219,501,-119,1,0,25,26,200,0,53298,1
2,31417,30225,32030,38119,32898,-4751,-570,69,183,-493,120,213,495,-107,1,0,25,26,240,0,53298,1
2,31390,30281,31980,38120,32914,-4244,-719,68,-621,-603,203,228,500,-104,1,0,25,26,280,0,53298,1
2,31355,30725,31946,38121,32929,-4644,-634,-244,-1019,-221,8,222,498,-122,1,0,25,26,320,0,53298,1
2,31381,30358,31977,38122,32944,-5108,-687,-246,-1190,219,-318,222,498,-114,1,0,25,26,360,0,53298,1
2,31341,30486,31929,38123,32958,-4358,-661,58,775,2,128,224,506,-108,1,0,25,26,400,0,53298,1
2,31325,30860,31907,38124,32972,-3867,-834,161,826,-8,262,225,493,-115,1,0,25,26,440,0,53298,1
2,31322,31160,31909,38125,32986,-4143,-1049,-287,-261,205,29,222,500,-114,1,0,25,26,480,0,53298,1
2,31359,31253,31936,38126,33001,-6256,-224,-621,-2745,832,-1096,235,493,-121,1,0,25,26,520,0,53298,1
2,31337,30965,31955,38127,33017,-5058,-388,207,712,29,-121,229,497,-115,1,0,25,26,560,0,53298,1
2,31327,30952,31887,38128,33032,-3553,-840,383,2474,-935,852,227,497,-125,1,0,25,26,600,0,53298,1
2,31325,30988,31877,38129,33047,-3177,-1307,115,-94,-698,494,240,500,-122,1,0,25,26,640,0,53298,1
2,31338,30894,31896,38130,33061,-4003,-981,-639,-1355,56,-45,227,493,-113,1,0,25,26,680,0,53298,1
2,31365,30896,31985,38131,33076,-6736,-441,-892,-3649,1531,-1474,228,492,-122,1,0,25,26,720,0,53298,1
2,31638,30865,32115,38132,33091,-5446,-122,302,2433,418,193,235,501,-117,1,0,25,26,760,0,53298,1
2,31756,30388,32348,38133,33106,-3596,-629,651,4034,-1056,1486,228,500,-122,1,0,25,26,800,0,53298,1
2,31712,30405,32265,38134,33121,-2859,-1432,318,245,-1065,926,219,493,-121,1,0,25,26,840,0,53298,1
2,31725,30396,32297,38135,33137,-5521,1,-1092,-4028,256,-834,234,496,-120,1,0,25,26,880,0,53298,1
2,31712,30495,32316,38136,33152,-6266,-705,-232,-2902,1193,-978,223,505,-113,1,0,25,26,920,0,53298,1
2,31690,30399,32284,38137,33167,-4375,-453,306,2857,-135,486,233,505,-117,1,0,25,26,960,0,53298,1
1,31679,30437,32249,38138,0,-3883,-802,197,2724,-799,733,224,488,-106,1,0,25,27,0,0,53298,1
2,31680,30414,32261,38139,32357,-4241,-761,-206,-1379,-86,-110,226,494,-122,1,0,25,27,40,0,53298,1
2,31742,30710,32319,38140,32372,-4546,-820,-93,-1834,300,80,239,501,-117,1,0,25,27,80,0,53298,1
2,31685,30770,32346,38141,32388,-4988,-545,-259,-571,229,-5,225,507,-125,1,0,25,27,120,0,53298,1
2,31771,30851,32379,38142,32403,-5139,-526,-203,-29,23,-127,226,506,-104,1,0,25,27,160,0,53298,1
2,31619,30510,32330,38143,32419,-4275,-746,227,868,-328,401,232,490,-130,1,0,25,27,200,0,53298,1
2,31455,30418,32045,38144,32435,-3483,-951,337,658,-377,627,219,491,-127,1,0,25,27,240,0,53298,1
2,31721,30408,32274,38145,32451,-4289,-755,-723,-944,-87,148,222,494,-118,1,0,25,27,280,0,53298,1
2,31778,30473,32352,38146,32466,-6743,-527,-881,-3418,1211,-1388,220,494,-126,1,0,25,27,320,0,53298,1
2,31783,30404,32392,38147,32482,-4986,-161,382,2768,171,-88,227,497,-115,1,0,25,27,360,0,53298,1
2,31748,30408,32329,38148,32498,-3278,-782,696,3978,-1047,1123,230,492,-122,1,0,25,27,400,0,53298,1
2,31670,31119,32245,38149,32513,-2759,-1447,292,-44,-865,732,217,497,-125,1,0,25,27,440,0,53298,1
2,31680,31187,32295,38150,32528,-5439,-70,-1346,-3960,439,-783,227,497,-115,1,0,25,27,480,0,53298,1
2,31806,30501,32417,38151,32544,-6682,-867,-300,-3356,1683,-1434,227,497,-127,1,0,25,27,520,0,53298,1
2,31800,30432,32395,38152,32559,-4329,-279,474,4765,-194,575,227,493,-125,1,0,25,27,560,0,53298,1
2,31785,30426,32345,38153,32575,-2994,-951,688,4267,-1210,1320,222,494,-116,1,0,25,27,600,0,53298,1
2,31741,30449,32301,38154,32591,-3206,-1380,-132,-339,-774,582,225,489,-115,1,0,25,27,640,0,53298,1
2,31780,30422,32420,38155,32607,-6870,60,-1342,-6814,1266,-1847,231,489,-119,1,0,25,27,680,0,53298,1
2,31747,30461,32340,38156,32623,-6074,-280,125,-214,741,-591,231,495,-121,1,0,25,27,720,0,53298,1
2,31816,30651,32399,38157,32638,-3653,-633,479,4849,-959,1032,226,494,-114,1,0,25,27,760,0,53298,1
2,31989,30695,32592,38158,32654,-2702,-1508,403,2735,-1103,962,228,486,-124,1,0,25,27,800,0,53298,1
2,32041,30919,32602,38159,32669,-4940,-164,-1066,-2409,408,-729,226,492,-120,1,0,25,27,840,0,53298,1
2,31979,30832,32596,38160,32684,-6377,-770,-188,-4593,1613,-1472,230,506,-122,1,0,25,27,880,0,53298,1
2,31795,30525,32408,38161,32699,-4545,-348,339,2276,-19,379,235,497,-111,1,0,25,27,920,0,53298,1
2,31580,30712,32382,38162,32714,-3181,-1053,449,3395,-1123,1215,226,496,-122,1,0,25,27,960,0,53298,1
1,31997,30574,32558,38163,0,-3263,-1663,-308,437,-660,547,231,501,-127,1,0,25,28,0,1,53298,1
2,31979,30485,32575,38164,31890,-6456,61,-1117,-5023,1374,-1581,222,490,-114,1,0,25,28,40,1,53298,1
2,31913,30445,32535,38165,31905,-5912,-256,208,-77,864,-565,236,496,-130,1,0,25,28,80,1,53298,1
2,31826,30663,32414,38166,31921,-3762,-583,524,3798,-809,1090,234,502,-124,1,0,25,28,120,1,53298,1
2,31938,30730,32531,38167,31936,-2752,-1471,382,1975,-1236,1147,224,490,-118,1,0,25,28,160,1,53298,1
2,32026,30608,32638,38168,31952,-4909,-177,-1165,-2356,152,-515,227,497,-117,1,0,25,28,200,1,53298,1
2,31915,30472,32555,38169,31967,-6508,-819,-279,-4563,1561,-1445,234,494,-120,1,0,25,28,240,1,53298,1
2,31846,30427,32464,38170,31983,-4644,-275,369,2569,-86,390,227,489,-127,1,0,25,28,280,1,53298,1
2,31824,30468,32383,38171,31998,-3243,-923,553,3573,-1207,1286,222,494,-118,1,0,25,28,320,1,53298,1
2,32069,30898,32626,38172,32014,-2833,-1844,-124,704,-939,767,221,489,-127,1,0,25,28,360,1,53298,1
2,32112,30840,32709,38173,32029,-6252,440,-1311,-4544,1267,-1415,240,504,-118,1,0,25,28,400,1,53298,1
2,32036,30628,32669,38174,32045,-6512,-453,167,-2006,1392,-1050,235,507,-113,1,0,25,28,440,1,53298,1
2,31976,30594,32573,38175,32061,-4093,-453,481,3585,-560,1065,223,491,-113,1,0,25,28,480,1,53298,1
2,31946,30671,32525,38176,32077,-3120,-1144,421,2592,-1317,1313,224,498,-120,1,0,25,28,520,1,53298,1
2,31888,30600,32467,38177,32093,-3778,-1055,-619,-1047,-483,222,227,489,-113,1,0,25,28,560,1,53298,1
2,31914,30610,32531,38178,32109,-6376,-455,-782,-5038,1497,-1445,225,499,-117,1,0,25,28,600,1,53298,1
2,31865,30578,32471,38179,32125,-5515,-275,216,914,432,-253,228,490,-112,1,0,25,28,640,1,53298,1
2,31842,30556,32423,38180,32141,-3764,-727,383,3602,-942,861,225,499,-117,1,0,25,28,680,1,53298,1
2,31827,30446,32415,38181,32158,-4252,-718,-280,201,-667,125,223,499,-123,1,0,25,28,720,1,53298,1
2,31855,30423,32418,38182,32173,-4702,-742,-149,-1814,240,-269,231,495,-121,1,0,25,28,760,1,53298,1
2,31870,30437,32457,38183,32189,-4434,-741,59,-295,201,-120,236,496,-126,1,0,25,28,800,1,53298,1
2,31932,30692,32519,38184,32204,-4709,-697,-327,166,25,-47,224,488,-116,1,0,25,28,840,1,53298,1
2,31934,30627,32513,38185,32221,-5390,-441,-223,-611,215,-317,227,497,-121,1,0,25,28,880,1,53298,1
2,31872,30435,32458,38186,32235,-4372,-567,232,936,-198,255,231,491,-121,1,0,25,28,920,1,53298,1
2,31859,30423,32419,38187,32251,-3609,-953,287,458,-511,490,236,492,-116,1,0,25,28,960,1,53298,1
1,31942,30472,32501,38188,0,-2957,-1673,119,230,-527,573,225,497,-113,1,0,25,29,0,0,53298,1
2,31899,30549,32497,38189,31422,-6439,441,-1465,-3194,860,-1276,222,492,-118,1,0,25,29,40,0,53298,1
2,31930,30545,32549,38190,31437,-6416,-477,153,-552,1278,-887,231,493,-131,1,0,25,29,80,0,53298,1
2,31910,30451,32513,38191,31452,-3856,-355,624,4911,-551,1030,233,501,-127,1,0,25,29,120,0,53298,1
2,31836,30409,32399,38192,31466,-2927,-1257,603,2258,-1252,1120,222,492,-120,1,0,25,29,160,0,53298,1
2,31954,30521,32598,38193,31481,-3303,-1585,-274,-1766,-735,501,216,494,-120,1,0,25,29,200,0,53298,1
2,31959,30691,32571,38194,31496,-7135,129,-1602,-6561,1414,-1851,233,503,-123,1,0,25,29,240,0,53298,1
2,31926,30722,32542,38195,31512,-6184,-216,165,786,954,-491,224,500,-108,1,0,25,29,280,0,53298,1
2,31912,30566,32508,38196,31527,-3546,-503,681,5814,-847,1470,223,493,-119,1,0,25,29,320,0,53298,1
2,31888,30456,32435,38197,31544,-2722,-1370,590,2254,-1147,1125,215,497,-119,1,0,25,29,360,0,53298,1
2,32013,30500,32605,38198,31559,-4321,-516,-937,-2607,-51,-417,226,492,-120,1,0,25,29,400,0,53298,1
2,31882,30439,32519,38199,31575,-6767,-853,-706,-6439,1684,-1756,233,495,-121,1,0,25,29,440,0,53298,1
2,31847,30406,32475,38200,31590,-5016,-253,287,2277,118,182,229,499,-105,1,0,25,29,480,0,53298,1
2,31813,30390,32397,38201,31605,-3344,-828,569,4692,-1220,1247,218,494,-126,1,0,25,29,520,0,53298,1
2,31818,30385,32400,38202,31620,-3739,-1057,-232,42,-646,276,234,498,-122,1,0,25,29,560,0,53298,1
2,31883,30580,32480,38203,31634,-5328,-489,-515,-3630,775,-831,230,498,-118,1,0,25,29,600,0,53298,1
2,31849,30478,32455,38204,31649,-5200,-488,61,-584,577,-352,232,490,-114,1,0,25,29,640,0,53298,1
2,31850,30519,32436,38205,31664,-3950,-856,224,1688,-311,481,228,500,-108,1,0,25,29,680,0,53298,1
2,31870,30707,32472,38206,31679,-4609,-624,-510,214,-342,130,221,493,-117,1,0,25,29,720,0,53298,1
2,31905,30815,32506,38207,31694,-5346,-498,-197,-1681,496,-458,215,493,-115,1,0,25,29,760,0,53298,1
2,31864,30629,32460,38208,31708,-4474,-538,272,762,-85,184,226,482,-110,1,0,25,29,800,0,53298,1
2,31849,30575,32412,38209,31723,-3509,-1048,317,1145,-647,642,239,499,-125,1,0,25,29,840,0,53298,1
2,31840,30478,32423,38210,31737,-3217,-1788,-210,-79,-472,572,237,489,-127,1,0,25,29,880,0,53298,1
2,31872,30591,32463,38211,31752,-6487,233,-1305,-3361,975,-1297,230,500,-118,1,0,25,29,920,0,53298,1
2,31832,30405,32443,38212,31767,-6093,-280,227,323,989,-609,234,498,-116,1,0,25,29,960,0,53298,1
1,31821,30420,32405,38213,0,-3840,-445,610,4361,-638,992,230,490,-116,1,0,25,30,0,0,53298,1
2,31795,30435,32396,38214,30954,-2896,-1302,539,1616,-1171,993,229,491,-121,1,0,25,30,40,0,53298,1
2,31877,30703,32435,38215,30969,-4190,-746,-822,-2370,-318,-148,230,490,-116,1,0,25,30,80,0,53298,1
2,31840,30391,32462,38216,30984,-6664,-738,-805,-5457,1490,-1575,231,497,-127,1,0,25,30,120,0,53298,1
2,31830,30477,32441,38217,30998,-5101,-229,304,2436,301,169,232,498,-120,1,0,25,30,160,0,53298,1
2,31833,30477,32407,38218,31013,-3426,-754,638,4539,-985,1278,229,497,-121,1,0,25,30,200,0,53298,1
2,31875,30514,32423,38219,31028,-2808,-1575,240,989,-903,830,226,502,-108,1,0,25,30,240,0,53298,1
2,31800,30736,32362,38220,31043,-5892,282,-1281,-4238,772,-1174,231,499,-115,1,0,25,30,280,0,53298,1
2,31820,30423,32442,38221,31059,-6494,-595,-6,-3047,1358,-1164,226,490,-126,1,0,25,30,320,0,53298,1
2,31864,30451,32446,38222,31074,-4105,-423,434,3588,-432,855,231,497,-127,1,0,25,30,360,0,53298,1
2,31810,30380,32357,38223,31088,-3000,-1229,512,2940,-1219,1349,221,491,-125,1,0,25,30,400,0,53298,1
2,31924,30439,32467,38224,31103,-3029,-1775,-280,-201,-728,547,224,492,-122,1,0,25,30,440,0,53298,1
2,31940,30451,32549,38225,31117,-6554,291,-1300,-5062,1520,-1620,225,495,-115,1,0,25,30,480,0,53298,1
2,31846,30464,32491,38226,31133,-6497,-306,194,-721,1214,-811,228,498,-118,1,0,25,30,520,0,53298,1
2,31825,30463,32424,38227,31148,-3991,-478,492,4221,-780,1133,223,495,-115,1,0,25,30,560,0,53298,1
2,31784,30514,32314,38228,31163,-3245,-1111,340,2336,-1295,1091,217,493,-119,1,0,25,30,600,0,53298,1
2,31739,30740,32314,38229,31179,-4174,-811,-648,-1830,-276,-148,222,492,-114,1,0,25,30,640,0,53298,1
2,31743,31019,32357,38230,31194,-6091,-624,-490,-4459,1241,-1268,231,495,-117,1,0,25,30,680,0,53298,1
2,31758,30490,32370,38231,31209,-5056,-373,216,1207,208,-12,228,492,-120,1,0,25,30,720,0,53298,1
2,31740,30666,32328,38232,31224,-3677,-831,331,3089,-787,817,221,499,-111,1,0,25,30,760,0,53298,1
2,31780,30513,32381,38233,31239,-4090,-846,-363,-28,-392,89,227,495,-117,1,0,25,30,800,0,53298,1
2,31789,30519,32370,38234,31254,-5191,-571,-304,-2166,649,-656,229,495,-115,1,0,25,30,840,0,53298,1
2,31798,30541,32401,38235,31269,-4865,-512,136,278,295,-141,229,489,-123,1,0,25,30,880,0,53298,1
2,31785,30540,32368,38236,31283,-3841,-941,192,1253,-350,417,225,499,-119,1,0,25,30,920,0,53298,1
2,31805,30549,32394,38237,31299,-4741,-611,-627,-291,-211,-70,226,496,-114,1,0,25,30,960,0,53298,1
1,31829,30561,32421,38238,0,-5638,-469,-189,-1743,570,-597,234,496,-118,1,0,25,31,0,1,53298,1
2,31782,30457,32382,38239,30488,-4447,-513,315,1340,-195,305,230,496,-120,1,0,25,31,40,1,53298,1
2,31757,30394,32325,38240,30502,-3538,-978,336,1431,-786,723,227,489,-121,1,0,25,31,80,1,53298,1
2,31785,30438,32355,38241,30518,-3002,-1707,-1,279,-588,607,228,488,-120,1,0,25,31,120,1,53298,1
2,31853,30583,32397,38242,30534,-6269,228,-1230,-3480,1009,-1366,230,484,-110,1,0,25,31,160,1,53298,1
2,31933,30459,32544,38243,30549,-6357,-257,188,-120,1256,-693,231,491,-123,1,0,25,31,200,1,53298,1
2,31943,30496,32521,38244,30564,-3908,-417,564,4082,-509,996,229,497,-121,1,0,25,31,240,1,53298,1
2,31880,30473,32419,38245,30579,-2932,-1302,502,1586,-1148,981,218,498,-116,1,0,25,31,280,1,53298,1
2,32022,30489,32574,38246,30595,-3733,-1200,-546,-1984,-559,120,228,496,-118,1,0,25,31,320,1,53298,1
2,31918,30508,32523,38247,30610,-6819,-379,-1161,-5845,1549,-1800,230,498,-122,1,0,25,31,360,1,53298,1
2,31944,30467,32547,38248,30625,-5632,-134,268,1925,660,-49,234,498,-118,1,0,25,31,400,1,53298,1
2,31955,30450,32490,38249,30640,-3519,-631,671,5007,-985,1445,236,494,-124,1,0,25,31,440,1,53298,1
2,31981,30440,32499,38250,30655,-2722,-1487,425,1275,-1127,1031,230,492,-108,1,0,25,31,480,1,53298,1
2,32018,30479,32601,38251,30669,-4369,-572,-1056,-2790,140,-602,223,495,-121,1,0,25,31,520,1,53298,1
2,31973,30474,32587,38252,30684,-6782,-700,-599,-5088,1845,-1637,237,495,-113,1,0,25,31,560,1,53298,1
2,31888,30447,32495,38253,30699,-5218,-142,319,2435,270,260,231,495,-119,1,0,25,31,600,1,53298,1
2,31857,30420,32440,38254,30714,-3609,-744,482,4364,-1212,1286,224,496,-102,1,0,25,31,640,1,53298,1
2,31858,30425,32451,38255,30729,-3964,-933,-309,-578,-758,104,224,494,-112,1,0,25,31,680,1,53298,1
2,31874,30424,32460,38256,30744,-4710,-793,-281,-2591,382,-506,224,490,-112,1,0,25,31,720,1,53298,1
2,31863,30426,32455,38257,30759,-4973,-582,-31,-586,491,-304,225,495,-119,1,0,25,31,760,1,53298,1
2,31904,30445,32489,38258,30773,-5521,-217,-271,331,114,-121,234,500,-124,1,0,25,31,800,1,53298,1
2,31901,30425,32495,38259,30788,-4677,-592,25,403,-203,147,234,488,-122,1,0,25,31,840,1,53298,1
2,31794,30951,32282,38260,30803,-3776,-841,299,993,-388,601,226,494,-122,1,0,25,31,880,1,53298,1
2,31842,30495,32420,38261,30818,-3236,-1278,257,-45,-257,526,229,495,-109,1,0,25,31,920,1,53298,1
2,31879,30560,32455,38262,30832,-4323,-765,-690,-745,42,-221,227,499,-119,1,0,25,31,960,1,53298,1
1,31939,30551,32550,38263,0,-6893,-292,-728,-3533,1515,-1543,227,489,-125,1,0,25,32,0,0,53298,1
2,31916,30579,32514,38264,30020,-5037,-145,407,2591,268,335,234,500,-120,1,0,25,32,40,0,53298,1
2,31874,30621,32435,38265,30035,-3389,-822,636,3751,-1202,1422,222,492,-124,1,0,25,32,80,0,53298,1
2,31946,30524,32489,38266,30052,-2666,-1592,355,139,-1136,904,226,490,-120,1,0,25,32,120,0,53298,1
2,31905,30482,32533,38267,30067,-5541,57,-1548,-4505,340,-1246,230,492,-122,1,0,25,32,160,0,53298,1
2,31857,30502,32458,38268,30083,-6791,-688,-176,-3120,1667,-1414,230,494,-118,1,0,25,32,200,0,53298,1
2,31797,30512,32393,38269,30099,-4230,-267,533,4996,-169,804,226,492,-116,1,0,25,32,240,0,53298,1
2,31745,30512,32311,38270,30114,-3030,-1004,680,3965,-1225,1260,222,496,-126,1,0,25,32,280,0,53298,1
2,32158,30560,32700,38271,30129,-2948,-1882,-71,-534,-871,559,226,496,-108,1,0,25,32,320,0,53298,1
2,31970,31380,32540,38272,30145,-6743,326,-1472,-6415,1221,-1858,238,498,-128,1,0,25,32,360,0,53298,1
2,31980,30527,32579,38273,30160,-6504,-309,130,-1190,1354,-798,235,493,-125,1,0,25,32,400,0,53298,1
2,31907,30592,32473,38274,30176,-3780,-493,547,5212,-682,1298,231,501,-125,1,0,25,32,440,0,53298,1
2,31979,30682,32478,38275,30192,-2787,-1397,502,2920,-1172,1197,221,495,-125,1,0,25,32,480,0,53298,1
2,31949,33807,32466,38276,30207,-3517,-1212,-495,-1026,-404,189,232,486,-114,1,0,25,32,520,0,53298,1
2,31990,30560,32604,38277,30223,-7023,-223,-1094,-6466,1899,-1913,231,501,-119,1,0,25,32,560,0,53298,1
2,31916,31310,32544,38278,30239,-5960,-77,223,815,659,-251,231,503,-113,1,0,25,32,600,0,53298,1
2,31873,31066,32430,38279,30254,-3650,-632,509,4647,-1223,1346,228,502,-122,1,0,25,32,640,0,53298,1
2,31854,31403,32388,38280,30269,-2900,-1388,282,1593,-1248,906,232,492,-126,1,0,25,32,680,0,53298,1
2,31922,30436,32454,38281,30284,-4682,-426,-930,-2415,145,-521,231,495,-119,1,0,25,32,720,0,53298,1
2,31908,30425,32519,38282,30299,-6284,-696,-265,-4266,1444,-1338,223,493,-117,1,0,25,32,760,0,53298,1
2,31895,30478,32498,38283,30314,-4797,-322,315,1861,24,259,227,493,-127,1,0,25,32,800,0,53298,1
2,31866,30459,32421,38284,30329,-3519,-881,420,3147,-929,1081,229,493,-121,1,0,25,32,840,0,53298,1
2,31902,30457,32448,38285,30344,-3031,-1509,-33,691,-583,653,230,492,-120,1,0,25,32,880,0,53298,1
2,31952,30652,32542,38286,30359,-5117,-286,-849,-2762,948,-761,238,494,-114,1,0,25,32,920,0,53298,1
2,31956,30506,32534,38287,30373,-6149,-621,-219,-2281,1259,-932,232,498,-118,1,0,25,32,960,0,53298,1
1,31865,30416,32467,38288,0,-4803,-397,215,2088,-264,347,228,500,-112,1,0,25,33,0,1,53298,1
2,31871,30400,32461,38289,29553,-4255,-640,43,2175,-1015,660,219,505,-111,1,0,25,33,40,1,53298,1
2,31867,30404,32458,38290,29567,-4314,-791,-75,-1027,-395,33,231,495,-113,1,0,25,33,80,1,53298,1
2,31868,30424,32456,38291,29582,-4464,-789,-53,-1109,-27,-25,223,499,-103,1,0,25,33,120,1,53298,1
2,31873,30423,32465,38292,29597,-4998,-503,-296,-360,165,-63,233,501,-129,1,0,25,33,160,1,53298,1
2,31885,30419,32477,38293,29612,-5391,-505,-169,-674,307,-239,229,499,-123,1,0,25,33,200,1,53298,1
2,31725,32588,32335,38294,29628,-4178,-667,259,1115,-263,455,230,488,-126,1,0,25,33,240,1,53298,1
2,31855,30598,32432,38295,29644,-3484,-984,300,281,-417,748,229,483,-119,1,0,25,33,280,1,53298,1
2,31890,30532,32459,38296,29660,-3311,-1765,-194,-373,-305,479,216,502,-110,1,0,25,33,320,1,53298,1
2,32016,30502,32614,38297,29675,-7241,532,-1551,-4284,1111,-1712,223,503,-113,1,0,25,33,360,1,53298,1
2,31896,32710,32515,38298,29690,-5927,-206,362,1084,810,-522,232,488,-122,1,0,25,33,400,1,53298,1
2,32011,30503,32604,38299,29705,-3305,-555,798,5790,-1100,1361,232,494,-124,1,0,25,33,440,1,53298,1
2,31942,30469,32522,38300,29719,-2841,-1349,510,806,-1158,883,219,495,-125,1,0,25,33,480,1,53298,1
2,32281,30920,32654,38301,29733,-2921,-2074,-277,-2149,-666,318,228,496,-120,1,0,25,33,520,1,53298,1
2,32200,30620,32792,38302,29747,-7337,480,-1960,-6257,1684,-2105,237,505,-115,1,0,25,33,560,1,53298,1
2,32245,30879,32848,38303,29762,-6590,-255,239,1088,1538,-730,223,497,-115,1,0,25,33,600,1,53298,1
2,32112,30836,32701,38304,29778,-3651,-297,767,6890,-707,1477,228,494,-126,1,0,25,33,640,1,53298,1
2,32200,30878,32701,38305,29792,-2938,-1200,685,2496,-1277,1097,225,495,-117,1,0,25,33,680,1,53298,1
2,32313,30940,32860,38306,29806,-4164,-702,-610,-2906,-469,-209,230,488,-114,1,0,25,33,720,1,53298,1
2,32153,30912,32767,38307,29821,-6509,-713,-860,-6636,1260,-1574,240,494,-126,1,0,25,33,760,1,53298,1
2,32101,30861,32674,38308,29836,-5151,-334,178,1478,190,108,223,505,-113,1,0,25,33,800,1,53298,1
2,32052,30851,32622,38309,29852,-3484,-817,491,4373,-911,1142,234,492,-122,1,0,25,33,840,1,53298,1
2,32056,30857,32621,38310,29868,-3835,-946,-141,546,-490,295,233,493,-119,1,0,25,33,880,1,53298,1
2,32038,30870,32623,38311,29883,-5309,-424,-444,-3120,744,-764,235,497,-125,1,0,25,33,920,1,53298,1
2,32015,30883,32610,38312,29898,-5127,-468,75,-519,476,-298,223,493,-121,1,0,25,33,960,1,53298,1
1,32008,30888,32578,38313,0,-3905,-886,213,1395,-364,491,222,494,-110,1,0,25,34,0,0,53298,1
2,32016,30893,32598,38314,29086,-4060,-1046,-337,574,-433,342,239,493,-121,1,0,25,34,40,0,53298,1
2,32010,30770,32606,38315,29102,-5699,-344,-506,-2011,622,-698,234,496,-112,1,0,25,34,80,0,53298,1
2,31988,30703,32577,38316,29117,-5058,-327,270,668,219,-45,227,493,-123,1,0,25,34,120,0,53298,1
2,31956,30662,32528,38317,29132,-3758,-807,400,1622,-671,661,223,493,-117,1,0,25,34,160,0,53298,1
2,32053,30713,32605,38318,29147,-2931,-1611,181,786,-822,791,221,485,-115,1,0,25,34,200,0,53298,1
2,31960,30547,32551,38319,29163,-5697,79,-1284,-3166,617,-941,223,499,-121,1,0,25,34,240,0,53298,1
2,31842,32118,32447,38320,29179,-6172,-549,1,-1335,1295,-905,229,499,-125,1,0,25,34,280,0,53298,1
2,31885,30496,32475,38321,29195,-4199,-413,437,3659,78,347,230,496,-124,1,0,25,34,320,0,53298,1
2,31870,30443,32468,38322,29211,-3759,-863,312,2838,-169,89,221,503,-113,1,0,25,34,360,0,53298,1
2,31870,30423,32459,38323,29227,-4384,-823,-246,-1500,886,-855,227,497,-111,1,0,25,34,400,0,53298,1
2,31868,30428,32461,38324,29242,-4850,-769,-324,-1722,1429,-941,237,501,-113,1,0,25,34,440,0,53298,1
2,31838,30418,32448,38325,29258,-5622,-338,-564,-572,1393,-725,232,502,-126,1,0,25,34,480,0,53298,1
2,31848,30430,32443,38326,29274,-5052,-580,-60,589,657,3,240,496,-134,1,0,25,34,520,0,53298,1
2,31835,30520,32412,38327,29290,-3728,-871,243,2134,-467,1154,226,488,-126,1,0,25,34,560,0,53298,1
2,31859,30562,32416,38328,29305,-3346,-1274,15,-247,-698,979,220,496,-120,1,0,25,34,600,0,53298,1
2,31880,30574,32469,38329,29321,-4767,-697,-1099,-2505,-352,34,234,492,-126,1,0,25,34,640,0,53298,1
2,31928,30579,32527,38330,29337,-6062,-653,-525,-2539,215,-620,231,499,-125,1,0,25,34,680,0,53298,1
2,31934,30616,32527,38331,29353,-4476,-355,348,2960,-1014,818,226,488,-130,1,0,25,34,720,0,53298,1
2,31920,30622,32489,38332,29370,-3254,-1064,562,2579,-1969,1328,230,502,-124,1,0,25,34,760,0,53298,1
2,32061,30640,32628,38333,29386,-3212,-1820,-69,-647,-1558,719,225,499,-113,1,0,25,34,800,0,53298,1
2,31947,30575,32543,38334,29403,-7081,349,-1417,-5484,806,-1817,232,500,-120,1,0,25,34,840,0,53298,1
2,31911,30564,32496,38335,29420,-6005,-187,343,1016,1093,-609,235,503,-127,1,0,25,34,880,0,53298,1
2,31212,30330,31781,38336,29436,-3506,-603,782,5502,-197,1094,229,495,-121,1,0,25,34,920,0,53298,1
2,31327,30374,31845,38337,29453,-2781,-1483,553,1547,-200,675,232,498,-118,1,0,25,34,960,0,53298,1
1,31459,30391,31976,38338,0,-4052,-841,-1000,-3106,573,-583,232,486,-130,1,0,25,35,0,1,53298,1
2,31231,30322,31836,38339,28620,-6925,-803,-1212,-6282,2334,-2044,230,504,-124,1,0,25,35,40,1,53298,1
2,31187,30292,31784,38340,28635,-5267,-144,288,3169,830,190,239,491,-119,1,0,25,35,80,1,53298,1
2,31167,30284,31721,38341,28651,-3396,-728,667,5332,-1410,1744,233,497,-117,1,0,25,35,120,1,53298,1
2,31554,30425,32098,38342,28666,-2630,-1827,201,888,-1894,1306,230,494,-124,1,0,25,35,160,1,53298,1
2,31244,30194,31817,38343,28680,-5912,407,-1615,-5320,-144,-1094,235,495,-123,1,0,25,35,200,1,53298,1
2,31178,30137,31769,38344,28695,-6625,-632,65,-3306,617,-990,232,498,-126,1,0,25,35,240,1,53298,1
2,31145,30116,31704,38345,28711,-4108,-291,528,4046,-1202,1114,228,502,-112,1,0,25,35,280,1,53298,1
2,31142,30116,31685,38346,28726,-3330,-1172,495,3535,-1861,1409,226,492,-122,1,0,25,35,320,1,53298,1
2,31167,30140,31720,38347,28741,-4733,-516,-458,-1431,-652,59,223,503,-115,1,0,25,35,360,1,53298,1
2,31161,30120,31718,38348,28757,-5209,-538,-75,-1339,479,-224,228,494,-118,1,0,25,35,400,1,53298,1
2,31145,30103,31690,38349,28773,-4249,-650,257,741,582,24,235,493,-121,1,0,25,35,440,1,53298,1
2,31142,30101,31693,38350,28788,-3786,-1402,-42,816,442,114,233,485,-125,1,0,25,35,480,1,53298,1
2,31171,30113,31723,38351,28803,-5940,-64,-806,-1841,942,-979,228,486,-122,1,0,25,35,520,1,53298,1
2,31145,30101,31702,38352,28817,-5240,-364,161,3,808,-341,232,490,-126,1,0,25,35,560,1,53298,1
2,31138,30100,31675,38353,28832,-3746,-808,381,1438,-282,567,232,486,-126,1,0,25,35,600,1,53298,1
2,31140,30105,31670,38354,28847,-3027,-1484,262,8,-719,635,227,483,-123,1,0,25,35,640,1,53298,1
2,31167,30152,31724,38355,28862,-4619,-829,-1285,-2317,-213,-513,237,499,-129,1,0,25,35,680,1,53298,1
2,31172,30139,31748,38356,28876,-6558,-611,-539,-3241,1276,-1323,248,482,-126,1,0,25,35,720,1,53298,1
2,31135,30116,31699,38357,28892,-4716,-153,489,3520,-22,592,229,495,-117,1,0,25,35,760,1,53298,1
2,31149,30167,31676,38358,28907,-3180,-890,797,3656,-1317,1542,219,497,-111,1,0,25,35,800,1,53298,1
2,32088,30531,32645,38359,28921,-3089,-1802,42,-647,-1258,862,230,486,-126,1,0,25,35,840,1,53298,1
2,31252,30190,31806,38360,28936,-6885,383,-1575,-6813,899,-1780,227,493,-115,1,0,25,35,880,1,53298,1
2,31180,30166,31774,38361,28951,-6202,-256,147,-176,923,-552,232,500,-126,1,0,25,35,920,1,53298,1
2,31152,30160,31707,38362,28965,-3622,-576,619,5141,-634,1118,228,496,-116,1,0,25,35,960,1,53298,1
1,31177,30145,31700,38363,0,-2699,-1545,505,2300,-967,919,224,504,-120,1,0,25,36,0,1,53298,1
2,31181,30151,31742,38364,28153,-4980,-359,-1270,-2746,120,-795,236,498,-118,1,0,25,36,40,1,53298,1
2,31171,30162,31750,38365,28168,-6447,-576,-227,-3256,1577,-1248,238,492,-124,1,0,25,36,80,1,53298,1
2,31129,30156,31696,38366,28182,-4424,-282,411,2860,193,435,225,489,-119,1,0,25,36,120,1,53298,1
2,31129,30156,31660,38367,28197,-3115,-1168,510,2726,-940,1042,231,499,-123,1,0,25,36,160,1,53298,1
2,31171,30184,31705,38368,28211,-3503,-1549,-305,-626,-707,313,227,489,-111,1,0,25,36,200,1,53298,1
2,31173,30271,31741,38369,28226,-6560,-64,-1179,-5169,1244,-1717,230,498,-114,1,0,25,36,240,1,53298,1
2,31143,30300,31715,38370,28240,-5813,-119,311,977,755,-281,234,492,-126,1,0,25,36,280,1,53298,1
2,31114,30238,31660,38371,28254,-3632,-624,619,4147,-954,1218,231,497,-119,1,0,25,36,320,1,53298,1
2,31124,30242,31658,38372,28268,-2770,-1629,388,1359,-1261,1093,223,491,-119,1,0,25,36,360,1,53298,1
2,31146,30209,31697,38373,28283,-5717,83,-1353,-3963,181,-933,230,486,-118,1,0,25,36,400,1,53298,1
2,31122,34209,31688,38374,28297,-6367,-397,36,-1862,1216,-824,237,495,-113,1,0,25,36,440,1,53298,1
2,31065,32655,31605,38375,28312,-4012,-408,517,3194,-113,753,228,484,-126,1,0,25,36,480,1,53298,1
2,31072,31100,31585,38376,28327,-3074,-1325,412,1950,-870,925,228,498,-122,1,0,25,36,520,1,53298,1
2,31119,30181,31640,38377,28341,-3788,-1191,-393,-1487,-315,13,238,488,-124,1,0,25,36,560,1,53298,1
2,31110,31828,31668,38378,28356,-6487,-238,-1033,-4455,1335,-1612,237,485,-127,1,0,25,36,600,1,53298,1
2,31077,31891,31644,38379,28371,-5504,-105,305,1702,804,-170,244,492,-120,1,0,25,36,640,1,53298,1
2,31069,31171,31600,38380,28385,-3589,-730,616,3710,-796,1210,227,489,-119,1,0,25,36,680,1,53298,1
2,31108,30293,31644,38381,28400,-2709,-1643,361,785,-1138,1020,226,496,-108,1,0,25,36,720,1,53298,1
2,31138,30271,31703,38382,28414,-5396,-25,-1521,-4128,216,-1097,230,500,-128,1,0,25,36,760,1,53298,1
2,31108,30612,31703,38383,28428,-6607,-599,-40,-2790,1471,-1169,225,495,-119,1,0,25,36,800,1,53298,1
2,31093,30210,31644,38384,28443,-4304,-278,495,3850,-222,752,232,500,-118,1,0,25,36,840,1,53298,1
2,31095,30129,31629,38385,28458,-3410,-1192,434,2973,-1176,1116,232,494,-126,1,0,25,36,880,1,53298,1
2,31119,30115,31661,38386,28472,-4768,-572,-509,-2695,-261,-239,232,496,-122,1,0,25,36,920,1,53298,1
2,31112,30101,31656,38387,28488,-5004,-662,-145,-1833,397,-321,227,489,-113,1,0,25,36,960,1,53298,1
1,31110,30088,31633,38388,0,-4088,-830,192,609,280,104,235,489,-123,1,0,25,37,0,1,53298,1
2,31111,30097,31648,38389,27687,-4024,-1181,-166,1075,-9,194,236,494,-120,1,0,25,37,40,1,53298,1
2,31129,30107,31689,38390,27702,-6328,-145,-783,-2243,872,-1030,231,491,-123,1,0,25,37,80,1,53298,1
2,31110,30095,31670,38391,27717,-5066,-259,367,1499,352,106,229,489,-115,1,0,25,37,120,1,53298,1
2,31109,30095,31631,38392,27731,-3606,-826,512,2487,-814,958,231,495,-129,1,0,25,37,160,1,53298,1
2,31096,30085,31615,38393,27745,-2891,-1571,256,-202,-954,707,226,484,-126,1,0,25,37,200,1,53298,1
2,31118,30103,31680,38394,27760,-4569,-776,-1416,-2724,-52,-630,236,496,-118,1,0,25,37,240,1,53298,1
2,31125,30141,31700,38395,27774,-6932,-643,-609,-3485,1755,-1657,229,489,-123,1,0,25,37,280,1,53298,1
2,31098,30104,31654,38396,27788,-4753,-97,547,4541,352,522,229,495,-129,1,0,25,37,320,1,53298,1
2,31080,30071,31608,38397,27801,-3248,-762,830,4529,-1146,1388,229,495,-119,1,0,25,37,360,1,53298,1
2,31102,30073,31631,38398,27815,-2954,-2009,85,-573,-1072,778,222,486,-120,1,0,25,37,400,1,53298,1
2,31127,30095,31687,38399,27830,-6802,448,-1656,-7050,862,-1738,228,486,-118,1,0,25,37,440,1,53298,1
2,31110,30122,31677,38400,27844,-6315,-281,46,-940,1045,-680,224,500,-114,1,0,25,37,480,1,53298,1
2,31067,30270,31605,38401,27860,-3618,-557,617,5252,-661,1339,218,498,-118,1,0,25,37,520,1,53298,1
2,31061,30371,31585,38402,27874,-2735,-1528,488,2388,-1086,1113,227,487,-117,1,0,25,37,560,1,53298,1
2,31096,30322,31644,38403,27888,-3919,-919,-744,-2044,-318,-216,235,497,-129,1,0,25,37,600,1,53298,1
2,31095,31040,31678,38404,27902,-7069,-483,-907,-6021,1755,-1944,229,493,-121,1,0,25,37,640,1,53298,1
2,31082,30354,31635,38405,27917,-5326,-31,415,2436,485,150,233,497,-123,1,0,25,37,680,1,53298,1
2,31063,30340,31589,38406,27931,-3300,-771,722,4793,-1294,1597,226,494,-120,1,0,25,37,720,1,53298,1
2,31096,30195,31607,38407,27946,-2723,-2024,159,708,-1248,974,228,490,-120,1,0,25,37,760,1,53298,1
2,31120,30179,31680,38408,27960,-6345,518,-1581,-5542,750,-1540,233,497,-123,1,0,25,37,800,1,53298,1
2,31105,30172,31684,38409,27974,-6466,-354,181,-1845,1383,-991,227,499,-121,1,0,25,37,840,1,53298,1
2,31074,30061,31629,38410,27989,-3836,-442,598,4454,-439,1051,225,493,-111,1,0,25,37,880,1,53298,1
2,31074,30056,31597,38411,28004,-2940,-1393,453,2558,-1175,1095,222,492,-114,1,0,25,37,920,1,53298,1
2,31119,30251,31640,38412,28018,-3844,-1140,-659,-1877,-421,-33,229,493,-125,1,0,25,37,960,1,53298,1
1,31128,30156,31684,38413,0,-6605,-387,-901,-5128,1524,-1699,234,494,-118,1,0,25,38,0,0,53298,1
2,31097,30123,31662,38414,27221,-5390,-120,357,1825,740,-102,232,488,-120,1,0,25,38,40,0,53298,1
2,31081,30112,31615,38415,27235,-3528,-730,636,4157,-925,1254,233,491,-127,1,0,25,38,80,0,53298,1
2,31083,30123,31608,38416,27249,-2731,-1663,285,861,-1085,935,231,493,-125,1,0,25,38,120,0,53298,1
2,31111,30088,31664,38417,27264,-5188,-127,-1410,-3797,403,-1002,235,489,-117,1,0,25,38,160,0,53298,1
2,31104,30141,31695,38418,27279,-6536,-604,-153,-3099,1604,-1266,230,498,-122,1,0,25,38,200,0,53298,1
2,31075,30206,31635,38419,27294,-4577,-249,465,3354,-152,625,229,491,-123,1,0,25,38,240,0,53298,1
2,31075,30147,31599,38420,27308,-3444,-918,515,3105,-1260,1232,232,498,-116,1,0,25,38,280,0,53298,1
2,31092,30137,31617,38421,27323,-3198,-1570,-176,-670,-806,505,233,491,-123,1,0,25,38,320,0,53298,1
2,31107,32225,31621,38422,27338,-4753,-593,-714,-2851,684,-684,230,486,-120,1,0,25,38,360,0,53298,1
2,31081,34112,31652,38423,27353,-5230,-660,-129,-804,1107,-564,229,487,-113,1,0,25,38,400,0,53298,1
2,31085,31462,31650,38424,27367,-5372,-300,-250,1869,337,-1,228,506,-116,1,0,25,38,440,0,53298,1
2,31120,30082,31695,38425,27383,-5994,-303,-79,624,29,-210,227,495,-119,1,0,25,38,480,0,53298,1
2,31103,30141,31658,38426,27398,-4351,-486,326,1150,-820,624,220,506,-110,1,0,25,38,520,0,53298,1
2,31146,30289,31707,38427,27412,-3487,-944,293,154,-997,829,216,502,-104,1,0,25,38,560,0,53298,1
2,31272,30339,31838,38428,27427,-3411,-1460,-186,-1227,-399,376,228,490,-116,1,0,25,38,600,0,53298,1
2,31226,30295,31798,38429,27442,-6357,61,-1068,-3043,894,-1071,229,501,-109,1,0,25,38,640,0,53298,1
2,31184,30271,31761,38430,27457,-5692,-377,183,713,890,-393,221,495,-119,1,0,25,38,680,0,53298,1
2,31193,30300,31756,38431,27472,-3804,-545,495,3595,-379,771,228,496,-118,1,0,25,38,720,0,53298,1
2,31458,30300,32135,38432,27486,-3116,-1231,396,1347,-712,702,221,491,-111,1,0,25,38,760,0,53298,1
2,31396,30293,32024,38433,27501,-4615,-500,-908,-2327,93,-460,227,479,-123,1,0,25,38,800,0,53298,1
2,31187,30159,31769,38434,27515,-6450,-783,-540,-4756,1273,-1425,237,505,-127,1,0,25,38,840,0,53298,1
2,31147,30151,31714,38435,27530,-4588,-343,296,2577,-134,427,229,505,-125,1,0,25,38,880,0,53298,1
2,31229,30164,31764,38436,27545,-3330,-932,528,3611,-1132,1246,229,491,-119,1,0,25,38,920,0,53298,1
2,31702,30346,32241,38437,27559,-2843,-1608,160,366,-798,680,224,488,-116,1,0,25,38,960,0,53298,1
1,31180,30130,31769,38438,0,-6205,323,-1329,-4357,825,-1373,234,494,-110,1,0,25,39,0,1,53298,1
2,31128,30104,31711,38439,26754,-6438,-420,146,-1752,1312,-962,226,488,-126,1,0,25,39,40,1,53298,1
2,31106,30107,31656,38440,26768,-3967,-457,521,4131,-531,986,227,491,-119,1,0,25,39,80,1,53298,1
2,31259,30139,31769,38441,26781,-2912,-1268,508,2597,-1187,1166,226,496,-106,1,0,25,39,120,1,53298,1
2,31473,30245,32048,38442,26794,-3408,-1543,-410,-865,-582,269,230,496,-124,1,0,25,39,160,1,53298,1
2,31172,30118,31750,38443,26808,-6785,-51,-1229,-5926,1754,-1887,235,495,-129,1,0,25,39,200,1,53298,1
2,31130,30105,31713,38444,26822,-6076,-99,210,698,942,-391,222,498,-118,1,0,25,39,240,1,53298,1
2,31189,30144,31776,38445,26835,-3762,-573,562,4467,-917,1326,236,504,-120,1,0,25,39,280,1,53298,1
2,31663,30328,32209,38446,26849,-3005,-1333,320,1569,-1185,982,219,493,-121,1,0,25,39,320,1,53298,1
2,31462,30242,32110,38447,26863,-4777,-395,-986,-2575,21,-515,236,490,-110,1,0,25,39,360,1,53298,1
2,31215,30143,31793,38448,26876,-6075,-705,-224,-3779,1294,-1164,235,495,-119,1,0,25,39,400,1,53298,1
2,31188,30142,31766,38449,26890,-4725,-357,288,1908,19,240,233,491,-119,1,0,25,39,440,1,53298,1
2,31194,30140,31744,38450,26905,-3645,-937,307,2888,-888,892,226,496,-122,1,0,25,39,480,1,53298,1
2,31210,30149,31761,38451,26920,-4426,-751,-474,-888,-242,-57,233,497,-125,1,0,25,39,520,1,53298,1
2,31180,30136,31752,38452,26934,-5043,-636,-119,-1646,549,-383,235,493,-115,1,0,25,39,560,1,53298,1
2,31178,30134,31736,38453,26948,-4598,-608,137,264,191,-10,234,498,-124,1,0,25,39,600,1,53298,1
2,31176,30128,31724,38454,26962,-3935,-1026,5,854,-271,331,239,497,-115,1,0,25,39,640,1,53298,1
2,31182,30134,31748,38455,26976,-5065,-493,-583,-591,89,-228,217,491,-109,1,0,25,39,680,1,53298,1
2,31177,30378,31815,38456,26991,-5314,-263,17,-613,413,-100,228,502,-120,1,0,25,39,720,1,53298,1
2,31980,30676,32599,38457,27007,-3966,-725,421,82,-369,1036,226,492,-124,1,0,25,39,760,1,53298,1
2,31972,30610,32533,38458,27022,-3583,-1148,107,-16,-807,747,223,499,-123,1,0,25,39,800,1,53298,1
2,31859,30628,32480,38459,27038,-5523,-242,-994,-2281,66,-365,226,488,-126,1,0,25,39,840,1,53298,1
2,31906,30595,32478,38460,27054,-5578,-519,2,-344,698,-524,234,502,-124,1,0,25,39,880,1,53298,1
2,31892,30569,32451,38461,27069,-4170,-533,372,2601,-137,163,228,494,-102,1,0,25,39,920,1,53298,1
2,31919,30826,32533,38462,27084,-3665,-1143,124,1496,-628,226,220,490,-116,1,0,25,39,960,1,53298,1
1,31915,31785,32525,38463,0,-5168,-457,-637,-1979,158,-839,241,485,-123,1,0,25,40,0,0,53298,1
2,31954,30659,32553,38464,26289,-5231,-557,66,-43,610,-529,222,486,-126,1,0,25,40,40,0,53298,1
2,31874,30439,32476,38465,26303,-4009,-693,351,1806,3,408,229,489,-125,1,0,25,40,80,0,53298,1
2,31877,30436,32461,38466,26318,-3667,-1346,94,1082,-401,522,228,492,-132,1,0,25,40,120,0,53298,1
2,31297,33232,31800,38467,26332,-5968,7,-781,-3072,379,-878,231,503,-111,1,0,25,40,160,0,53298,1
2,31129,33650,31708,38468,26346,-5411,-341,113,-453,329,-156,230,490,-128,1,0,25,40,200,0,53298,1
2,31122,31659,31676,38469,26360,-3739,-799,384,2513,-663,918,221,493,-125,1,0,25,40,240,0,53298,1
2,31115,31418,31653,38470,26374,-3138,-1388,199,611,-723,671,228,490,-114,1,0,25,40,280,0,53298,1
2,31180,30191,31751,38471,26388,-4228,-1022,-882,-1600,-101,-337,233,493,-133,1,0,25,40,320,0,53298,1
2,31152,30191,31768,38472,26402,-6489,-360,-700,-3149,1535,-1565,230,490,-130,1,0,25,40,360,0,53298,1
2,31133,30168,31713,38473,26416,-5043,-101,420,3183,575,230,232,496,-128,1,0,25,40,400,0,53298,1
2,31127,30189,31688,38474,26430,-3494,-765,675,3747,-903,1219,223,489,-121,1,0,25,40,440,0,53298,1
2,31108,30110,31667,38475,26445,-2777,-1897,221,-17,-1054,822,234,484,-114,1,0,25,40,480,0,53298,1
2,31169,30486,31765,38476,26460,-6219,357,-1515,-5585,571,-1475,231,489,-113,1,0,25,40,520,0,53298,1
2,31150,30335,31745,38477,26475,-6561,-385,-16,-1463,1216,-871,237,495,-129,1,0,25,40,560,0,53298,1
2,31105,30148,31678,38478,26490,-3884,-470,544,4782,-455,1111,224,500,-124,1,0,25,40,600,0,53298,1
2,31115,30210,31659,38479,26504,-2866,-1348,552,2692,-1115,1105,232,492,-124,1,0,25,40,640,0,53298,1
2,31129,30186,31667,38480,26517,-3963,-1023,-634,-2082,-456,-63,233,493,-113,1,0,25,40,680,0,53298,1
2,31123,30174,31729,38481,26532,-6624,-453,-841,-5559,1478,-1660,238,492,-122,1,0,25,40,720,0,53298,1
2,31089,33423,31668,38482,26547,-5212,-152,318,2084,513,115,224,502,-116,1,0,25,40,760,0,53298,1
2,31061,32964,31601,38483,26562,-3410,-788,636,4330,-947,1289,230,494,-120,1,0,25,40,800,0,53298,1
2,31096,30077,31647,38484,26575,-2702,-1919,188,917,-1005,867,225,499,-121,1,0,25,40,840,0,53298,1
2,31142,30231,31708,38485,26588,-6199,510,-1477,-4868,768,-1485,236,488,-112,1,0,25,40,880,0,53298,1
2,31095,30895,31671,38486,26602,-6680,-313,136,-1989,1328,-1072,247,497,-125,1,0,25,40,920,0,53298,1
2,31071,30400,31632,38487,26616,-3868,-431,538,4352,-548,1101,234,496,-124,1,0,25,40,960,0,53298,1
1,31072,30387,31597,38488,0,-2986,-1332,439,2520,-1285,1123,225,487,-113,1,0,25,41,0,0,53298,1
2,31092,31462,31633,38489,25823,-3883,-1199,-596,-1839,-479,4,217,491,-115,1,0,25,41,40,0,53298,1
2,31124,30100,31712,38490,25836,-6726,-358,-823,-4790,1292,-1657,233,493,-123,1,0,25,41,80,0,53298,1
2,31095,30058,31670,38491,25850,-5276,-77,376,2054,576,125,230,494,-130,1,0,25,41,120,0,53298,1
2,31080,30046,31625,38492,25864,-3435,-875,536,3642,-830,1227,223,497,-123,1,0,25,41,160,0,53298,1
2,31083,30052,31614,38493,25878,-2743,-1606,279,632,-823,791,228,488,-118,1,0,25,41,200,0,53298,1
2,31130,30234,31712,38494,25892,-5052,-329,-1418,-3530,497,-1120,232,486,-116,1,0,25,41,240,0,53298,1
2,31123,30253,31717,38495,25907,-6856,-522,-205,-3199,1819,-1537,236,492,-124,1,0,25,41,280,0,53298,1
2,31097,30314,31674,38496,25921,-4558,-182,503,3913,-20,718,226,506,-120,1,0,25,41,320,0,53298,1
2,31086,30305,31636,38497,25934,-3258,-968,615,3385,-1364,1416,225,493,-115,1,0,25,41,360,0,53298,1
2,31107,30312,31653,38498,25949,-2998,-1963,-145,-712,-1074,697,228,490,-118,1,0,25,41,400,0,53298,1
2,31138,30229,31717,38499,25963,-6540,215,-1375,-5661,959,-1686,229,499,-121,1,0,25,41,440,0,53298,1
2,31102,30095,31693,38500,25977,-6320,-178,196,-287,1163,-630,228,502,-122,1,0,25,41,480,0,53298,1
2,31084,30067,31637,38501,25992,-3806,-514,561,4562,-631,1225,232,496,-124,1,0,25,41,520,0,53298,1
2,31077,30049,31617,38502,26006,-2851,-1414,460,2079,-1116,1088,220,494,-118,1,0,25,41,560,0,53298,1
2,31116,30082,31668,38503,26021,-3705,-1207,-582,-1423,-394,-48,234,498,-114,1,0,25,41,600,0,53298,1
2,31120,30113,31707,38504,26035,-6999,-211,-996,-5719,1891,-1970,232,486,-112,1,0,25,41,640,0,53298,1
2,31084,30083,31665,38505,26050,-5757,-15,310,1526,721,-111,235,495,-119,1,0,25,41,680,0,53298,1
2,31077,30113,31626,38506,26064,-3538,-671,589,4458,-1128,1514,226,494,-122,1,0,25,41,720,0,53298,1
2,31118,30080,31676,38507,26079,-2813,-1541,259,788,-1156,954,224,486,-118,1,0,25,41,760,0,53298,1
2,31138,30111,31709,38508,26094,-5083,-236,-1279,-3205,149,-880,235,493,-121,1,0,25,41,800,0,53298,1
2,31109,30115,31698,38509,26109,-6518,-565,-108,-3644,1577,-1318,232,496,-118,1,0,25,41,840,0,53298,1
2,31084,30127,31640,38510,26124,-4467,-299,421,3118,-121,594,229,491,-123,1,0,25,41,880,0,53298,1
2,31090,30138,31618,38511,26139,-3262,-987,518,3306,-1215,1237,225,487,-115,1,0,25,41,920,0,53298,1
2,31115,30153,31650,38512,26155,-3853,-1180,-507,-972,-576,160,223,499,-115,1,0,25,41,960,0,53298,1
1,31113,30233,31676,38513,0,-6007,-403,-656,-4426,1119,-1294,235,493,-119,1,0,25,42,0,0,53298,1
2,31095,30264,31657,38514,25357,-5232,-265,237,763,561,-111,235,489,-129,1,0,25,42,40,0,53298,1
2,31090,30297,31619,38515,25372,-3657,-786,462,2711,-625,967,232,494,-128,1,0,25,42,80,0,53298,1
2,31117,30292,31644,38516,25387,-3137,-1710,-29,852,-749,711,229,491,-119,1,0,25,42,120,0,53298,1
2,31123,30312,31689,38517,25402,-5952,50,-1136,-3538,718,-1187,226,504,-112,1,0,25,42,160,0,53298,1
2,31102,30306,31674,38518,25416,-5973,-279,193,-571,987,-640,229,501,-129,1,0,25,42,200,0,53298,1
2,31084,30279,31641,38519,25431,-3960,-541,515,3048,-509,850,222,498,-120,1,0,25,42,240,0,53298,1
2,31096,30318,31620,38520,25446,-2936,-1410,410,1524,-1115,1045,228,492,-130,1,0,25,42,280,0,53298,1
2,31129,30313,31684,38521,25461,-4325,-801,-1053,-1873,-334,-324,230,492,-124,1,0,25,42,320,0,53298,1
2,31122,30300,31705,38522,25475,-6697,-581,-556,-4310,1575,-1563,230,490,-126,1,0,25,42,360,0,53298,1
2,31097,30338,31660,38523,25489,-4969,-125,458,2874,286,305,226,500,-120,1,0,25,42,400,0,53298,1
2,31083,30346,31621,38524,25504,-3418,-830,651,3930,-1127,1311,235,491,-119,1,0,25,42,440,0,53298,1
2,31095,30331,31628,38525,25518,-2890,-1614,151,-37,-919,705,224,496,-116,1,0,25,42,480,0,53298,1
2,31128,30071,31687,38526,25532,-5695,18,-1309,-4310,669,-1245,228,490,-124,1,0,25,42,520,0,53298,1
2,31090,30067,31684,38527,25546,-6480,-415,23,-1994,1515,-1122,226,488,-128,1,0,25,42,560,0,53298,1
2,31066,30091,31622,38528,25561,-4147,-422,505,3941,-255,932,234,494,-124,1,0,25,42,600,0,53298,1
