sensorStatus,cap1,cap2,cap3,counter,microseconds_since_last_tick,accX,accY,accZ,gyroX,gyroY,gyroZ,magnetX,magnetY,magnetZ,day,hour,min,sec,msec,sync,battery_fuel,crc_good
1,31311,30699,32265,29539,10186,-4276,-1141,-1164,-34,-20,126,223,453,-227,1,0,19,43,40,0,53298,1
2,31305,30699,32267,29540,10177,-4265,-1129,-1163,5,-11,125,222,448,-228,1,0,19,43,80,0,53298,1
2,31308,30699,32263,29541,10168,-4272,-1132,-1164,-34,-9,122,220,448,-222,1,0,19,43,120,0,53298,1
2,31312,30700,32264,29542,10159,-4261,-1127,-1163,-40,-28,135,220,458,-232,1,0,19,43,160,0,53298,1
2,31310,30699,32265,29543,10149,-4279,-1126,-1171,-27,-57,125,222,448,-222,1,0,19,43,200,0,53298,1
2,31309,30698,32263,29544,10140,-4280,-1128,-1170,-43,-60,80,221,449,-227,1,0,19,43,240,0,53298,1
2,31305,30698,32259,29545,10132,-4266,-1122,-1161,-54,-66,43,220,450,-228,1,0,19,43,280,0,53298,1
2,31309,30698,32261,29546,10123,-4268,-1121,-1152,-17,-86,9,228,448,-224,1,0,19,43,320,0,53298,1
2,31309,30698,32261,29547,10116,-4269,-1122,-1186,5,-46,-43,217,449,-231,1,0,19,43,360,0,53298,1
2,31306,30698,32260,29548,10107,-4262,-1125,-1162,-9,-52,-72,226,450,-230,1,0,19,43,400,0,53298,1
2,31310,30699,32263,29549,10098,-4265,-1120,-1158,41,-4,-76,219,443,-233,1,0,19,43,440,0,53298,1
2,31304,30698,32264,29550,10089,-4266,-1130,-1158,-17,14,-23,228,444,-228,1,0,19,43,480,0,53298,1
2,31308,30699,32266,29551,10081,-4262,-1131,-1151,-10,-45,53,217,451,-221,1,0,19,43,520,0,53298,1
2,31308,30699,32265,29552,10072,-4287,-1138,-1154,6,-57,64,215,461,-223,1,0,19,43,560,0,53298,1
2,31306,30700,32264,29553,10063,-4267,-1124,-1139,-24,5,27,226,452,-220,1,0,19,43,600,0,53298,1
2,31311,30699,32261,29554,10054,-4263,-1119,-1167,12,13,5,218,450,-226,1,0,19,43,640,0,53298,1
2,31309,30699,32260,29555,10047,-4270,-1115,-1161,-7,19,-3,219,451,-233,1,0,19,43,680,0,53298,1
2,31308,30698,32262,29556,10039,-4271,-1125,-1169,-32,-34,2,222,456,-228,1,0,19,43,720,0,53298,1
2,31307,30698,32262,29557,10031,-4265,-1131,-1159,-18,-50,-10,226,458,-228,1,0,19,43,760,0,53298,1
2,31307,30698,32262,29558,10021,-4267,-1127,-1141,11,-41,-7,227,461,-235,1,0,19,43,800,0,53298,1
2,31305,30699,32260,29559,10011,-4283,-1139,-1165,7,21,-22,225,451,-229,1,0,19,43,840,0,53298,1
2,31308,30698,32261,29560,10002,-4278,-1133,-1169,-4,38,-14,222,450,-236,1,0,19,43,880,0,53298,1
2,31307,30698,32261,29561,9994,-4271,-1121,-1158,-6,-20,7,231,453,-225,1,0,19,43,920,0,53298,1
2,31308,30699,32264,29562,9985,-4281,-1132,-1162,21,-31,1,224,456,-218,1,0,19,43,960,0,53298,1
1,31310,30698,32263,29563,0,-4268,-1132,-1166,12,13,-23,225,451,-223,1,0,19,44,0,1,53298,1
2,31305,30698,32260,29564,9635,-4272,-1125,-1155,4,12,-7,230,452,-238,1,0,19,44,40,1,53298,1
2,31307,30697,32260,29565,9625,-4276,-1132,-1163,2,-23,20,221,455,-225,1,0,19,44,80,1,53298,1
2,31304,30698,32264,29566,9615,-4262,-1125,-1160,-17,-63,29,223,447,-221,1,0,19,44,120,1,53298,1
2,31310,30698,32264,29567,9606,-4270,-1118,-1156,-15,-50,-2,219,453,-221,1,0,19,44,160,1,53298,1
2,31311,30699,32262,29568,9596,-4285,-1146,-1174,-9,-14,-21,220,458,-234,1,0,19,44,200,1,53298,1
2,31311,30699,32262,29569,9586,-4263,-1129,-1157,-7,-9,0,220,458,-226,1,0,19,44,240,1,53298,1
2,31307,30698,32261,29570,9577,-4263,-1124,-1158,6,-19,28,225,445,-231,1,0,19,44,280,1,53298,1
2,31308,30699,32259,29571,9567,-4268,-1133,-1162,-15,-11,26,227,459,-229,1,0,19,44,320,1,53298,1
2,31307,30699,32262,29572,9558,-4267,-1115,-1163,-42,-41,31,224,450,-226,1,0,19,44,360,1,53298,1
2,31309,30699,32260,29573,9548,-4262,-1126,-1160,-56,-73,34,227,449,-227,1,0,19,44,400,1,53298,1
2,31304,30697,32261,29574,9539,-4271,-1127,-1149,-28,-80,30,225,451,-223,1,0,19,44,440,1,53298,1
2,31303,30697,32261,29575,9531,-4273,-1129,-1158,-18,-42,6,227,451,-225,1,0,19,44,480,1,53298,1
2,31305,30699,32262,29576,9522,-4279,-1145,-1158,-6,-19,9,231,449,-225,1,0,19,44,520,1,53298,1
2,31307,30697,32256,29577,9513,-4262,-1105,-1155,10,-16,30,219,447,-231,1,0,19,44,560,1,53298,1
2,31305,30697,32257,29578,9503,-4255,-1127,-1158,-22,-21,34,223,457,-229,1,0,19,44,600,1,53298,1
2,31306,30697,32255,29579,9494,-4261,-1120,-1168,-20,-27,47,227,453,-221,1,0,19,44,640,1,53298,1
2,31304,30697,32255,29580,9485,-4274,-1120,-1166,-38,-48,31,215,451,-229,1,0,19,44,680,1,53298,1
2,31304,30697,32257,29581,9476,-4267,-1123,-1143,-39,-46,30,224,454,-236,1,0,19,44,720,1,53298,1
2,31303,30697,32256,29582,9467,-4274,-1117,-1156,-16,-33,17,213,451,-213,1,0,19,44,760,1,53298,1
2,31304,30696,32255,29583,9458,-4272,-1138,-1158,15,-8,-19,230,462,-222,1,0,19,44,800,1,53298,1
2,31302,30696,32256,29584,9449,-4256,-1123,-1161,8,6,-34,224,458,-230,1,0,19,44,840,1,53298,1
2,31305,30696,32257,29585,9440,-4267,-1135,-1167,-9,-28,5,224,456,-228,1,0,19,44,880,1,53298,1
2,31305,30696,32256,29586,9431,-4270,-1131,-1154,-31,-55,60,232,458,-232,1,0,19,44,920,1,53298,1
2,31305,30696,32260,29587,9421,-4268,-1122,-1162,-41,-39,52,219,445,-225,1,0,19,44,960,1,53298,1
1,31300,30695,32256,29588,0,-4273,-1110,-1158,-28,-8,20,222,448,-226,1,0,19,45,0,0,53298,1
2,31304,30696,32255,29589,9083,-4263,-1130,-1169,-8,-3,4,229,457,-229,1,0,19,45,40,0,53298,1
2,31305,30696,32257,29590,9074,-4276,-1131,-1155,17,-7,0,223,449,-223,1,0,19,45,80,0,53298,1
2,31305,30697,32262,29591,9065,-4265,-1121,-1163,-12,-21,-6,227,457,-231,1,0,19,45,120,0,53298,1
2,31305,30697,32258,29592,9057,-4262,-1120,-1151,-21,-29,0,215,449,-217,1,0,19,45,160,0,53298,1
2,31305,30696,32262,29593,9048,-4280,-1140,-1164,7,-28,21,221,451,-221,1,0,19,45,200,0,53298,1
2,31305,30696,32257,29594,9039,-4281,-1134,-1163,2,-20,12,230,452,-230,1,0,19,45,240,0,53298,1
2,31305,30696,32258,29595,9030,-4276,-1130,-1162,3,21,-5,218,454,-226,1,0,19,45,280,0,53298,1
2,31306,30696,32261,29596,9022,-4268,-1124,-1161,5,1,-1,231,455,-225,1,0,19,45,320,0,53298,1
2,31303,30695,32259,29597,9013,-4280,-1141,-1156,-2,-13,9,222,454,-232,1,0,19,45,360,0,53298,1
2,31306,30696,32260,29598,9004,-4272,-1128,-1155,1,-18,19,223,457,-229,1,0,19,45,400,0,53298,1
2,31309,30695,32259,29599,8995,-4281,-1136,-1160,-21,-15,16,226,454,-230,1,0,19,45,440,0,53298,1
2,31306,30696,32261,29600,8986,-4267,-1121,-1157,-13,-7,4,214,444,-228,1,0,19,45,480,0,53298,1
2,31307,30696,32260,29601,8977,-4270,-1134,-1141,2,-12,-7,220,454,-208,1,0,19,45,520,0,53298,1
2,31305,30697,32260,29602,8968,-4265,-1134,-1166,-8,-13,-14,225,451,-221,1,0,19,45,560,0,53298,1
2,31306,30698,32262,29603,8960,-4267,-1136,-1151,-6,-14,-12,223,447,-231,1,0,19,45,600,0,53298,1
2,31307,30697,32262,29604,8951,-4261,-1126,-1158,14,8,-15,230,454,-226,1,0,19,45,640,0,53298,1
2,31307,30696,32260,29605,8943,-4278,-1113,-1162,-42,19,-52,223,453,-223,1,0,19,45,680,0,53298,1
2,31308,30697,32260,29606,8935,-4267,-1141,-1149,-239,60,-126,226,452,-228,1,0,19,45,720,0,53298,1
2,31308,30696,32261,29607,8927,-4269,-1129,-1155,-490,60,-131,223,451,-231,1,0,19,45,760,0,53298,1
2,31309,30698,32262,29608,8918,-4285,-1128,-1164,-690,123,-202,214,450,-230,1,0,19,45,800,0,53298,1
2,31313,30699,32257,29609,8909,-4269,-1162,-1217,-486,233,-219,223,455,-221,1,0,19,45,840,0,53298,1
2,31316,30696,32260,29610,8902,-4269,-1088,-1193,-517,143,-221,225,443,-219,1,0,19,45,880,0,53298,1
2,31321,30697,32256,29611,8893,-4287,-1175,-1197,-885,-17,-287,222,456,-226,1,0,19,45,920,0,53298,1
2,31325,30697,32257,29612,8884,-4236,-1135,-1202,-830,-145,-201,226,446,-226,1,0,19,45,960,0,53298,1
1,31331,30698,32260,29613,0,-4283,-1162,-1184,-836,-334,-67,234,448,-228,1,0,19,46,0,1,53298,1
2,31332,30697,32255,29614,8533,-4257,-1124,-1197,-769,-350,65,230,456,-224,1,0,19,46,40,1,53298,1
2,31335,30693,32252,29615,8526,-4267,-1107,-1114,-749,-285,95,220,454,-230,1,0,19,46,80,1,53298,1
2,31337,30690,32251,29616,8519,-4387,-1120,-1129,-780,-222,141,229,453,-217,1,0,19,46,120,1,53298,1
2,31338,30689,32242,29617,8512,-4394,-1134,-1166,-851,-180,221,229,451,-227,1,0,19,46,160,1,53298,1
2,31349,30649,32242,29618,8506,-4414,-1053,-1239,-802,-378,381,228,456,-226,1,0,19,46,200,1,53298,1
2,31356,30639,32235,29619,8500,-4722,-984,-1370,-1076,-938,510,228,448,-224,1,0,19,46,240,1,53298,1
2,31361,30617,32211,29620,8493,-5175,-787,-1641,-618,-1665,625,219,453,-221,1,0,19,46,280,1,53298,1
2,31340,30603,32190,29621,8486,-4977,-859,-1627,434,-2037,1105,222,456,-222,1,0,19,46,320,1,53298,1
2,31310,30621,32158,29622,8479,-4433,-1334,-1021,1194,-1545,1364,217,443,-213,1,0,19,46,360,1,53298,1
2,31298,30610,32144,29623,8473,-3474,-1329,-22,2657,-1004,1265,217,447,-215,1,0,19,46,400,1,53298,1
2,31278,30596,32141,29624,8467,-3072,-1217,-154,1846,-1329,1104,223,447,-205,1,0,19,46,440,1,53298,1
2,31255,30587,32139,29625,8460,-2440,-1113,165,1227,-1720,826,216,442,-206,1,0,19,46,480,1,53298,1
2,31266,30535,32142,29626,8451,-2207,-1056,632,553,-2497,1090,209,447,-201,1,0,19,46,520,1,53298,1
2,31350,30558,32238,29627,8444,-2591,-821,-1143,-2782,212,568,212,442,-216,1,0,19,46,560,1,53298,1
2,31288,30468,32325,29628,8436,-17291,-1123,-8889,-2981,4581,-1457,218,454,-214,1,0,19,46,600,1,53298,1
2,31281,30441,32196,29629,8429,-5144,-1512,546,2902,-2521,-797,220,450,-218,1,0,19,46,640,1,53298,1
2,31296,30535,32187,29630,8421,-3259,-1248,-1621,-787,3742,-2825,218,450,-222,1,0,19,46,680,1,53298,1
2,31308,30576,32275,29631,8413,-3700,-1444,-1473,1355,803,-732,220,460,-222,1,0,19,46,720,1,53298,1
2,31311,30632,32268,29632,8405,-5148,-865,-708,-421,-666,350,217,443,-217,1,0,19,46,760,1,53298,1
2,31316,30645,32231,29633,8396,-4324,-922,-922,1677,270,457,218,456,-210,1,0,19,46,800,1,53298,1
2,31310,30641,32247,29634,8388,-4037,-1193,-1259,211,240,283,231,451,-221,1,0,19,46,840,1,53298,1
2,31314,30640,32258,29635,8379,-4358,-998,-930,-1280,-697,685,221,451,-215,1,0,19,46,880,1,53298,1
2,31319,30637,32254,29636,8370,-4447,-1024,-999,-340,-387,432,221,453,-213,1,0,19,46,920,1,53298,1
2,31326,30618,32259,29637,8361,-4366,-862,-962,411,-331,124,219,449,-211,1,0,19,46,960,1,53298,1
1,31330,30554,32266,29638,0,-4245,-1042,-986,-1344,-375,-354,223,449,-217,1,0,19,47,0,1,53298,1
2,31339,30590,32268,29639,7983,-4310,-1068,-988,-800,-11,-346,226,456,-214,1,0,19,47,40,1,53298,1
2,31336,30582,32272,29640,7975,-4371,-1049,-984,-49,96,-129,228,454,-226,1,0,19,47,80,1,53298,1
2,31338,30546,32265,29641,7967,-4311,-1003,-996,-286,-46,63,216,450,-210,1,0,19,47,120,1,53298,1
2,31337,30586,32264,29642,7959,-4291,-1045,-1006,-265,-50,150,220,448,-222,1,0,19,47,160,1,53298,1
2,31334,30607,32266,29643,7952,-4339,-999,-993,81,-103,184,223,449,-207,1,0,19,47,200,1,53298,1
2,31334,30624,32263,29644,7944,-4322,-1010,-998,369,-38,77,216,446,-210,1,0,19,47,240,1,53298,1
2,31330,30632,32261,29645,7936,-4319,-1030,-1007,492,77,-53,219,451,-217,1,0,19,47,280,1,53298,1
2,31327,30653,32262,29646,7928,-4349,-1026,-1009,482,128,-61,223,445,-209,1,0,19,47,320,1,53298,1
2,31327,30668,32261,29647,7919,-4354,-1031,-1000,221,48,-24,217,449,-215,1,0,19,47,360,1,53298,1
2,31332,30669,32264,29648,7912,-4322,-1011,-1004,-189,-65,45,219,441,-219,1,0,19,47,400,1,53298,1
2,31338,30669,32268,29649,7904,-4453,-984,-1015,-581,-67,44,218,454,-214,1,0,19,47,440,1,53298,1
2,31341,30675,32268,29650,7896,-4341,-1003,-1016,-1347,-633,37,219,455,-211,1,0,19,47,480,1,53298,1
2,31344,30680,32265,29651,7888,-4256,-1016,-948,-648,-341,30,226,450,-210,1,0,19,47,520,1,53298,1
2,31349,30680,32269,29652,7880,-4433,-996,-1128,-592,-251,-10,219,453,-211,1,0,19,47,560,1,53298,1
2,31355,30678,32268,29653,7873,-4418,-955,-988,-813,-706,-21,229,447,-215,1,0,19,47,600,1,53298,1
2,31392,30645,32289,29654,7867,-4427,-944,-1034,-542,-364,-23,216,452,-216,1,0,19,47,640,1,53298,1
2,31450,30441,32355,29655,7861,-4793,-925,-1502,-1645,-751,-44,219,451,-217,1,0,19,47,680,1,53298,1
2,31475,30403,32333,29656,7855,-5038,-1123,-1040,-12,-421,-228,228,444,-218,1,0,19,47,720,1,53298,1
2,31715,30739,32559,29657,7849,-5134,-1132,-1407,2453,-145,-271,223,449,-215,1,0,19,47,760,1,53298,1
2,31698,30680,32515,29658,7843,-4055,-875,-913,5648,336,-124,214,446,-204,1,0,19,47,800,1,53298,1
2,31692,30635,32507,29659,7837,-2801,-923,193,4262,46,151,211,453,-213,1,0,19,47,840,1,53298,1
2,31655,30631,32506,29660,7831,-2826,-1317,-86,-622,-1035,877,230,446,-200,1,0,19,47,880,1,53298,1
2,31631,30555,32507,29661,7823,-2316,-1722,545,-597,-1412,732,219,453,-201,1,0,19,47,920,1,53298,1
2,31689,30517,32555,29662,7815,-3086,-740,-273,-1535,1921,510,224,450,-220,1,0,19,47,960,1,53298,1
1,32447,30768,33236,29663,7433,-13539,-1837,-8137,-2207,5942,-1100,224,446,-218,1,0,19,48,0,1,53298,1
2,32790,31055,33595,29664,7424,-4717,-750,471,1678,-2562,-164,223,451,-225,1,0,19,48,40,1,53298,1
2,32772,31005,33620,29665,7417,-3314,-1253,-1394,-89,3458,-2282,221,453,-219,1,0,19,48,80,1,53298,1
2,32672,30899,33528,29666,7409,-3860,-1499,-1593,-190,567,-656,230,450,-224,1,0,19,48,120,1,53298,1
2,32617,30909,33539,29667,7401,-4906,-795,-651,-333,-1387,608,226,446,-224,1,0,19,48,160,1,53298,1
2,32588,31000,33428,29668,7393,-4397,-931,-927,809,-59,318,216,448,-224,1,0,19,48,200,1,53298,1
2,32562,31053,33444,29669,7386,-4039,-1320,-1331,176,304,48,222,448,-222,1,0,19,48,240,1,53298,1
2,32640,31080,33510,29670,7378,-4370,-1014,-944,-1019,-574,653,218,456,-220,1,0,19,48,280,1,53298,1
2,32564,31041,33477,29671,7370,-4466,-1042,-1004,107,-256,387,215,453,-217,1,0,19,48,320,1,53298,1
2,32564,31082,33460,29672,7361,-4222,-1000,-1061,573,7,110,217,453,-209,1,0,19,48,360,1,53298,1
2,32548,31116,33468,29673,7352,-4293,-1049,-1015,-257,39,-146,221,451,-223,1,0,19,48,400,1,53298,1
2,32588,31147,33479,29674,7344,-4372,-1081,-1037,-86,101,-181,219,451,-215,1,0,19,48,440,1,53298,1
2,32587,31154,33446,29675,7336,-4283,-1065,-1049,224,48,-21,219,451,-219,1,0,19,48,480,1,53298,1
2,32542,31134,33461,29676,7327,-4314,-1062,-1045,-89,-46,71,218,458,-214,1,0,19,48,520,1,53298,1
2,32656,31174,33493,29677,7319,-4326,-1059,-1036,-47,-124,142,215,451,-227,1,0,19,48,560,1,53298,1
2,32703,31321,33580,29678,7310,-4306,-1050,-1039,65,-69,102,214,446,-210,1,0,19,48,600,1,53298,1
2,32759,31294,33633,29679,7301,-4319,-1058,-1039,-46,20,-15,216,448,-214,1,0,19,48,640,1,53298,1
2,32801,31371,33661,29680,7293,-4306,-1077,-1049,6,28,-19,221,447,-221,1,0,19,48,680,1,53298,1
2,32842,31342,33678,29681,7284,-4309,-1053,-1034,64,-26,30,222,446,-220,1,0,19,48,720,1,53298,1
2,32875,31402,33714,29682,7276,-4329,-1057,-1039,-57,-77,53,215,445,-219,1,0,19,48,760,1,53298,1
2,32814,31403,33704,29683,7268,-4328,-1076,-1048,-356,-31,38,230,448,-220,1,0,19,48,800,1,53298,1
2,32815,31340,33671,29684,7259,-4306,-1054,-1035,-367,-76,72,216,444,-210,1,0,19,48,840,1,53298,1
2,32717,31282,33615,29685,7251,-4328,-1025,-1048,-314,4,2,223,443,-217,1,0,19,48,880,1,53298,1
2,32674,31190,33562,29686,7244,-4349,-1055,-1032,-835,-10,-77,232,448,-222,1,0,19,48,920,1,53298,1
2,32581,31106,33470,29687,7244,-4358,-1101,-1069,-1383,-269,-84,223,451,-217,1,0,19,48,960,1,53298,1
1,31300,30248,32215,29688,6884,-4861,-785,-1134,-2219,-815,-51,229,443,-213,1,0,19,49,0,0,53298,1
2,31305,30483,32190,29689,6877,-5489,-785,-1648,-3452,-2535,-230,217,451,-205,1,0,19,49,40,0,53298,1
2,31272,30472,32126,29690,6870,-5105,-1013,-1289,929,-1436,-198,213,453,-203,1,0,19,49,80,0,53298,1
2,31250,30375,32100,29691,6863,-3127,-845,-157,3511,-279,292,218,456,-218,1,0,19,49,120,0,53298,1
2,31246,30402,32112,29692,6855,-2722,-1515,-141,544,-379,827,215,451,-203,1,0,19,49,160,0,53298,1
2,31223,30403,32122,29693,6848,-2654,-1756,-287,-1189,-771,428,222,450,-212,1,0,19,49,200,0,53298,1
2,31269,30252,32180,29694,6839,-2935,-1122,-67,875,1751,187,222,454,-218,1,0,19,49,240,0,53298,1
2,31245,30275,32252,29695,6831,-9976,-773,-5604,718,4762,-316,218,448,-222,1,0,19,49,280,0,53298,1
2,31250,30320,32157,29696,6822,-4244,-506,344,2796,-1130,-510,220,444,-218,1,0,19,49,320,0,53298,1
2,31276,30310,32175,29697,6815,-4018,-898,-1477,-2056,1460,-1279,228,444,-218,1,0,19,49,360,0,53298,1
2,31275,30302,32203,29698,6807,-3940,-1512,-1418,-4630,-3064,248,223,449,-213,1,0,19,49,400,0,53298,1
2,31278,30263,32196,29699,6800,-4142,-690,-418,-404,-1417,585,210,454,-204,1,0,19,49,440,0,53298,1
2,31266,30254,32184,29700,6792,-4267,-1132,-1102,524,264,213,223,445,-207,1,0,19,49,480,0,53298,1
2,31286,30290,32207,29701,6786,-3958,-1120,-689,431,676,202,225,453,-215,1,0,19,49,520,0,53298,1
2,31294,30351,32204,29702,6779,-5345,-734,-1845,-2457,-634,-167,222,448,-216,1,0,19,49,560,0,53298,1
2,31300,30577,32173,29703,6774,-5248,-675,-619,211,-1285,-353,229,451,-203,1,0,19,49,600,0,53298,1
2,31263,30563,32119,29704,6768,-5232,-830,-1670,-9,-1428,-226,224,456,-204,1,0,19,49,640,0,53298,1
2,31246,30544,32085,29705,6762,-2877,-1325,-46,3058,39,594,221,447,-211,1,0,19,49,680,0,53298,1
2,31225,30544,32092,29706,6755,-2435,-1790,-125,1268,-196,1344,221,449,-217,1,0,19,49,720,0,53298,1
2,31215,30512,32103,29707,6747,-1985,-1808,471,69,-469,694,229,445,-213,1,0,19,49,760,0,53298,1
2,31316,30563,32223,29708,6741,-3297,-728,402,294,2058,588,228,452,-204,1,0,19,49,800,0,53298,1
2,31263,30547,32216,29709,6734,-10432,-1140,-2385,-6737,1163,-1101,222,450,-214,1,0,19,49,840,0,53298,1
2,31251,30537,32117,29710,6727,-4148,-174,208,3910,-1036,-322,227,455,-217,1,0,19,49,880,0,53298,1
2,31268,30536,32140,29711,6720,-3167,-1480,-1321,289,1029,-89,222,444,-212,1,0,19,49,920,0,53298,1
2,31260,30535,32179,29712,6720,-3033,-2181,-662,-358,-508,0,221,451,-207,1,0,19,49,960,0,53298,1
1,31279,30417,32228,29713,6335,-4376,-666,-793,-279,1002,247,213,451,-209,1,0,19,50,0,0,53298,1
2,31297,30515,32209,29714,6327,-6978,-56,-2053,683,864,119,220,456,-210,1,0,19,50,40,0,53298,1
2,31286,30545,32172,29715,6321,-5428,-891,-1475,-2254,-2458,-613,222,452,-212,1,0,19,50,80,0,53298,1
2,31255,30488,32109,29716,6315,-4551,-1034,-1234,165,-1219,-327,217,449,-211,1,0,19,50,120,0,53298,1
2,31237,30486,32084,29717,6308,-2647,-1363,29,6188,658,568,220,448,-214,1,0,19,50,160,0,53298,1
2,31212,30488,32096,29718,6300,-2368,-1421,13,2819,225,848,213,453,-203,1,0,19,50,200,0,53298,1
2,31217,30470,32124,29719,6292,-2217,-1481,702,-184,-226,503,215,455,-215,1,0,19,50,240,0,53298,1
2,31266,30402,32262,29720,6284,-3322,-197,-2263,-1624,2578,661,215,451,-225,1,0,19,50,280,0,53298,1
2,31248,30350,32196,29721,6278,-5797,-141,697,-3015,2536,-988,221,441,-219,1,0,19,50,320,0,53298,1
2,31250,30345,32125,29722,6271,-3824,-783,-751,2462,-2245,-966,226,454,-220,1,0,19,50,360,0,53298,1
2,31263,30328,32156,29723,6264,-3102,-1647,-1452,-2016,742,-499,216,448,-210,1,0,19,50,400,0,53298,1
2,31251,30325,32193,29724,6257,-3573,-1759,-731,219,-189,-231,214,452,-218,1,0,19,50,440,0,53298,1
2,31282,30343,32221,29725,6250,-5958,-377,-1230,461,1139,475,223,457,-215,1,0,19,50,480,0,53298,1
2,31288,30452,32184,29726,6243,-5341,-628,-1150,-1535,-1783,-348,219,455,-209,1,0,19,50,520,0,53298,1
2,31280,30480,32140,29727,6237,-4968,-844,-909,-2100,-1879,-99,214,452,-202,1,0,19,50,560,0,53298,1
2,31250,30391,32101,29728,6230,-4095,-1260,-1224,47,-2019,1028,225,451,-213,1,0,19,50,600,0,53298,1
2,31236,30357,32095,29729,6223,-2676,-1699,-248,1612,-326,1026,220,448,-208,1,0,19,50,640,0,53298,1
2,31206,30325,32109,29730,6216,-2290,-1619,-226,568,-374,339,221,455,-207,1,0,19,50,680,0,53298,1
2,31254,30338,32150,29731,6208,-2515,-1189,643,1980,730,-109,220,450,-216,1,0,19,50,720,0,53298,1
2,31260,30333,32281,29732,6201,-5317,-506,-4657,-306,4169,168,214,460,-220,1,0,19,50,760,0,53298,1
2,31248,30304,32168,29733,6193,-4281,727,1406,-1620,308,-1163,221,451,-215,1,0,19,50,800,0,53298,1
2,31253,30313,32129,29734,6185,-3370,-873,-713,1947,443,-1503,223,451,-219,1,0,19,50,840,0,53298,1
2,31278,30309,32204,29735,6178,-3410,-1741,-1825,-1164,859,-437,230,456,-212,1,0,19,50,880,0,53298,1
2,31280,30291,32221,29736,6170,-4762,-1396,-952,-2125,-1458,79,225,451,-223,1,0,19,50,920,0,53298,1
2,31303,30377,32197,29737,6170,-5183,-385,-792,-94,-983,304,215,453,-209,1,0,19,50,960,0,53298,1
1,31296,30523,32165,29738,5786,-5653,-751,-2054,-1294,-1131,-88,224,452,-210,1,0,19,51,0,0,53298,1
2,31254,30444,32112,29739,5779,-4548,-1058,-1031,147,-1885,189,220,452,-206,1,0,19,51,40,0,53298,1
2,31247,30356,32088,29740,5772,-2755,-1097,101,4134,269,784,225,451,-211,1,0,19,51,80,0,53298,1
2,31220,30303,32092,29741,5765,-2393,-1593,-246,573,-511,1037,210,456,-206,1,0,19,51,120,0,53298,1
2,31287,30348,32130,29742,5758,-2444,-1523,739,66,54,472,218,454,-206,1,0,19,51,160,0,53298,1
2,31307,30360,32270,29743,5752,-5538,-276,-5076,-3904,1848,342,219,449,-209,1,0,19,51,200,0,53298,1
2,31269,30336,32178,29744,5745,-6671,591,605,-2675,-268,-664,226,456,-212,1,0,19,51,240,0,53298,1
2,31265,30308,32115,29745,5737,-3688,-531,-526,2695,519,-464,217,457,-207,1,0,19,51,280,0,53298,1
2,31268,30309,32155,29746,5730,-2851,-1789,-1488,949,419,-7,219,445,-215,1,0,19,51,320,0,53298,1
2,31276,30313,32215,29747,5723,-3879,-1454,-958,-396,633,-287,215,461,-211,1,0,19,51,360,0,53298,1
2,31289,30317,32216,29748,5716,-6072,-254,-1056,-1177,-82,413,222,450,-212,1,0,19,51,400,0,53298,1
2,31304,30426,32180,29749,5710,-5267,-520,-1187,777,-618,-221,226,450,-212,1,0,19,51,440,0,53298,1
2,31285,30430,32150,29750,5704,-4749,-1234,-1471,-2293,-1971,-142,225,449,-209,1,0,19,51,480,0,53298,1
2,31282,30417,32122,29751,5697,-3284,-1134,-250,1651,-852,404,214,450,-208,1,0,19,51,520,0,53298,1
2,31262,30344,32127,29752,5690,-3004,-1284,-626,1373,-93,513,214,444,-210,1,0,19,51,560,0,53298,1
2,31308,30362,32176,29753,5684,-2473,-1655,-49,800,724,-53,224,450,-212,1,0,19,51,600,0,53298,1
2,31306,30420,32234,29754,5679,-6645,-1131,-4032,-4769,1338,-637,221,449,-213,1,0,19,51,640,0,53298,1
2,31284,30399,32166,29755,5673,-5567,-384,-144,945,-1211,-260,223,459,-221,1,0,19,51,680,0,53298,1
2,31276,30321,32137,29756,5666,-3515,-808,-644,2346,857,-45,217,447,-211,1,0,19,51,720,0,53298,1
2,31262,30280,32156,29757,5659,-2592,-1730,-603,761,-572,687,222,450,-210,1,0,19,51,760,0,53298,1
2,31316,30405,32242,29758,5654,-4395,-1163,-1073,-992,1116,248,226,452,-204,1,0,19,51,800,0,53298,1
2,31324,30498,32194,29759,5649,-7256,-139,-1645,-3836,-1772,-229,222,450,-204,1,0,19,51,840,0,53298,1
2,31273,30435,32117,29760,5644,-5324,-210,-1286,2927,-168,-1045,217,455,-215,1,0,19,51,880,0,53298,1
2,31265,30317,32085,29761,5637,-2757,-1051,-150,4786,-36,659,213,443,-207,1,0,19,51,920,0,53298,1
2,31251,30295,32095,29762,5637,-2211,-2025,-205,680,-116,1086,222,444,-206,1,0,19,51,960,0,53298,1
1,31310,30357,32161,29763,5237,-2093,-2134,33,-218,-28,457,212,450,-202,1,0,19,52,0,1,53298,1
2,31332,30472,32262,29764,5232,-6089,1273,-3884,-2917,743,-377,215,455,-211,1,0,19,52,40,1,53298,1
2,31300,30479,32181,29765,5226,-6736,-192,-217,-1298,-989,-491,215,449,-209,1,0,19,52,80,1,53298,1
2,31278,30449,32128,29766,5220,-3587,-253,-182,3575,1869,-991,223,443,-215,1,0,19,52,120,1,53298,1
2,31276,30300,32148,29767,5212,-2426,-1439,-517,1724,-66,407,227,453,-215,1,0,19,52,160,1,53298,1
2,31339,30410,32254,29768,5206,-2638,-2567,523,-1070,1256,-115,222,452,-202,1,0,19,52,200,1,53298,1
2,31343,30438,32262,29769,5201,-7758,-725,-2771,-6749,-220,-529,223,453,-211,1,0,19,52,240,1,53298,1
2,31338,30446,32190,29770,5195,-5670,-425,-911,2639,-1286,-318,228,448,-212,1,0,19,52,280,1,53298,1
2,31330,30403,32163,29771,5189,-3660,-918,-906,2615,-100,222,228,454,-212,1,0,19,52,320,1,53298,1
2,31327,30386,32169,29772,5182,-2550,-1674,4,1681,-781,863,216,446,-206,1,0,19,52,360,1,53298,1
2,31364,30407,32240,29773,5174,-2411,-1751,-466,-1106,-226,604,219,447,-217,1,0,19,52,400,1,53298,1
2,31450,30505,32357,29774,5169,-5802,-198,-2053,-1372,1184,-273,217,449,-217,1,0,19,52,440,1,53298,1
2,31429,30497,32319,29775,5164,-6779,-267,-954,-1831,-810,-392,221,451,-209,1,0,19,52,480,1,53298,1
2,31433,30435,32288,29776,5158,-4013,-409,-375,2634,820,-417,224,448,-208,1,0,19,52,520,1,53298,1
2,31500,30385,32336,29777,5150,-2632,-1361,-481,1776,-253,662,220,446,-206,1,0,19,52,560,1,53298,1
2,31618,30460,32536,29778,5143,-3241,-1756,-636,-1020,815,169,221,447,-217,1,0,19,52,600,1,53298,1
2,31695,30491,32605,29779,5137,-6466,-726,-1950,-4599,22,-235,215,449,-205,1,0,19,52,640,1,53298,1
2,31838,30539,32741,29780,5132,-5391,-341,-876,1769,-868,128,218,454,-202,1,0,19,52,680,1,53298,1
2,31976,30695,32817,29781,5126,-4501,-1154,-1311,465,57,-267,216,452,-208,1,0,19,52,720,1,53298,1
2,31931,30630,32761,29782,5121,-4360,-1344,-1212,-185,-1509,-68,230,458,-210,1,0,19,52,760,1,53298,1
2,31893,30618,32721,29783,5115,-3268,-1042,-98,2913,-50,-42,214,450,-208,1,0,19,52,800,1,53298,1
2,31853,30544,32705,29784,5108,-3066,-1093,-496,1644,55,222,222,450,-212,1,0,19,52,840,1,53298,1
2,31942,30665,32791,29785,5102,-3160,-1421,396,174,703,-9,217,445,-209,1,0,19,52,880,1,53298,1
2,31939,30666,32819,29786,5096,-6054,-952,-3223,-5547,164,-204,224,452,-212,1,0,19,52,920,1,53298,1
2,31860,30599,32738,29787,5096,-5509,-399,-639,1212,107,-508,219,455,-211,1,0,19,52,960,1,53298,1
1,31857,30591,32708,29788,4688,-3954,-652,-550,2618,782,29,225,449,-213,1,0,19,53,0,0,53298,1
2,31861,30588,32711,29789,4682,-3763,-1571,-1073,-896,-747,407,223,441,-213,1,0,19,53,40,0,53298,1
2,31931,30695,32801,29790,4676,-3951,-1345,-585,-1025,-275,3,225,447,-209,1,0,19,53,80,0,53298,1
2,31890,30673,32758,29791,4670,-6247,-582,-2324,-469,-293,-541,229,451,-211,1,0,19,53,120,0,53298,1
2,31857,30658,32675,29792,4663,-4420,-428,-376,2972,45,-569,222,454,-214,1,0,19,53,160,0,53298,1
2,31836,30697,32665,29793,4655,-2854,-1095,42,2165,134,834,202,450,-206,1,0,19,53,200,0,53298,1
2,31888,30720,32761,29794,4648,-1810,-2077,-26,-885,-703,1055,220,450,-212,1,0,19,53,240,0,53298,1
2,31990,30733,32873,29795,4643,-5001,-821,-1765,-4217,484,361,226,452,-212,1,0,19,53,280,0,53298,1
2,31920,30704,32812,29796,4637,-7197,-849,-1500,-2224,-553,-614,219,451,-205,1,0,19,53,320,0,53298,1
2,31888,30679,32739,29797,4630,-4314,-25,-180,4032,1433,-1125,223,449,-209,1,0,19,53,360,0,53298,1
2,31911,30715,32755,29798,4623,-3075,-1083,-324,2566,301,255,224,454,-216,1,0,19,53,400,0,53298,1
2,31927,30723,32806,29799,4616,-3278,-2049,-1027,-2528,413,242,220,448,-212,1,0,19,53,440,0,53298,1
2,31976,30722,32869,29800,4610,-6237,-750,-1949,-3613,93,-321,221,447,-209,1,0,19,53,480,0,53298,1
2,31939,30710,32805,29801,4603,-5893,-578,-1387,1760,-920,-426,222,450,-214,1,0,19,53,520,0,53298,1
2,31892,30695,32706,29802,4595,-3801,-670,-630,3479,81,259,215,455,-209,1,0,19,53,560,0,53298,1
2,31910,30714,32747,29803,4587,-2664,-1646,-227,1177,-552,1352,217,457,-209,1,0,19,53,600,0,53298,1
2,31958,30730,32827,29804,4580,-2206,-2041,-328,-1309,-538,924,208,446,-210,1,0,19,53,640,0,53298,1
2,32042,30799,32942,29805,4574,-4164,-1035,-4,-14,1399,74,223,451,-215,1,0,19,53,680,0,53298,1
2,31971,30748,32885,29806,4567,-8243,-477,-2490,-3220,-113,-554,222,450,-204,1,0,19,53,720,0,53298,1
2,31960,30730,32794,29807,4560,-4626,-424,-413,1412,-140,-553,211,447,-207,1,0,19,53,760,0,53298,1
2,31977,30708,32811,29808,4553,-3238,-1319,-861,1209,1163,-492,220,448,-226,1,0,19,53,800,0,53298,1
2,32034,30771,32904,29809,4546,-2923,-1908,-811,-165,265,-421,223,449,-215,1,0,19,53,840,0,53298,1
2,32049,30795,32972,29810,4540,-5006,-773,-884,-50,1570,-243,221,447,-215,1,0,19,53,880,0,53298,1
2,32050,30768,32930,29811,4534,-6570,-225,-1332,-2282,-1301,-66,225,453,-213,1,0,19,53,920,0,53298,1
2,32008,30735,32849,29812,4534,-4763,-991,-1320,173,-1224,-121,217,449,-213,1,0,19,53,960,0,53298,1
1,31979,30732,32797,29813,4141,-3012,-1358,-484,2590,-728,1142,220,442,-214,1,0,19,54,0,1,53298,1
2,32022,30765,32865,29814,4132,-2490,-1788,-422,178,-737,1175,221,449,-205,1,0,19,54,40,1,53298,1
2,32286,30972,33104,29815,4125,-2499,-1606,51,552,305,399,220,444,-216,1,0,19,54,80,1,53298,1
2,32414,31059,33282,29816,4118,-6889,567,-4068,-2502,2019,-246,212,450,-216,1,0,19,54,120,1,53298,1
2,32320,30972,33159,29817,4111,-5816,-13,32,-666,-1273,-573,218,454,-208,1,0,19,54,160,1,53298,1
2,32314,30961,33113,29818,4103,-3558,-1054,-896,857,1158,-789,222,462,-210,1,0,19,54,200,1,53298,1
2,32309,30974,33134,29819,4095,-2917,-1579,-990,641,-33,-170,224,456,-218,1,0,19,54,240,1,53298,1
2,32352,30949,33202,29820,4087,-3255,-1485,-939,-416,512,-228,223,447,-221,1,0,19,54,280,1,53298,1
2,32322,30938,33197,29821,4080,-6817,-7,-1992,211,1482,206,218,456,-220,1,0,19,54,320,1,53298,1
2,32385,30970,33192,29822,4074,-5662,-418,-1008,-1009,-2103,-167,224,454,-218,1,0,19,54,360,1,53298,1
2,32352,30878,33142,29823,4068,-4537,-837,-1426,-634,-1124,-27,218,446,-210,1,0,19,54,400,1,53298,1
2,32332,30837,33112,29824,4060,-3076,-1439,-394,2251,-979,803,212,454,-216,1,0,19,54,440,1,53298,1
2,32300,30890,33108,29825,4052,-2677,-1602,-530,523,-278,702,213,445,-209,1,0,19,54,480,1,53298,1
2,32333,30863,33143,29826,4045,-2531,-1529,32,1024,507,118,218,448,-218,1,0,19,54,520,1,53298,1
2,32413,30915,33270,29827,4039,-6690,66,-4105,-2895,2221,-185,219,457,-215,1,0,19,54,560,1,53298,1
2,32326,30820,33156,29828,4032,-5874,26,58,-974,-1426,-276,218,452,-216,1,0,19,54,600,1,53298,1
2,32309,30828,33113,29829,4024,-3516,-1000,-810,1332,997,-453,221,455,-223,1,0,19,54,640,1,53298,1
2,32313,30818,33141,29830,4016,-2939,-1738,-1062,624,213,-231,219,441,-217,1,0,19,54,680,1,53298,1
2,32337,30854,33200,29831,4008,-3988,-1329,-847,-934,513,-165,220,456,-214,1,0,19,54,720,1,53298,1
2,32381,30878,33216,29832,4001,-6205,-313,-1387,-837,-13,91,224,448,-222,1,0,19,54,760,1,53298,1
2,32372,30844,33174,29833,3994,-5330,-648,-1523,-191,-1215,-390,228,460,-214,1,0,19,54,800,1,53298,1
2,32337,30874,33132,29834,3987,-4051,-1062,-996,308,-918,-69,224,444,-210,1,0,19,54,840,1,53298,1
2,32321,30824,33099,29835,3979,-3030,-1318,-230,2227,-447,586,229,443,-213,1,0,19,54,880,1,53298,1
2,32286,30791,33097,29836,3971,-2601,-1561,-480,245,-490,792,220,448,-214,1,0,19,54,920,1,53298,1
2,32340,30812,33185,29837,3971,-2841,-1376,167,899,917,495,223,451,-211,1,0,19,54,960,1,53298,1
1,32307,30788,33201,29838,3593,-7883,-884,-4459,-4310,1906,28,217,451,-219,1,0,19,55,0,0,53298,1
2,32264,30702,33107,29839,3585,-5069,-235,146,1007,-1946,-36,219,449,-221,1,0,19,55,40,0,53298,1
2,32266,30731,33103,29840,3576,-3368,-1173,-1012,903,1320,-543,219,443,-213,1,0,19,55,80,0,53298,1
2,32291,30747,33144,29841,3568,-3145,-1520,-910,870,527,-497,220,452,-212,1,0,19,55,120,0,53298,1
2,32388,30880,33234,29842,3562,-5627,-752,-1492,-1567,748,-157,226,458,-218,1,0,19,55,160,0,53298,1
2,32361,30856,33161,29843,3556,-6190,-212,-1423,-1375,-2176,-342,211,443,-203,1,0,19,55,200,0,53298,1
2,32308,30819,33098,29844,3549,-4538,-699,-1342,1313,-557,-237,226,444,-206,1,0,19,55,240,0,53298,1
2,32307,30757,33082,29845,3540,-2631,-1304,-98,2549,-487,986,214,442,-212,1,0,19,55,280,0,53298,1
2,32284,30741,33082,29846,3532,-2195,-1871,-180,-708,-491,901,223,449,-209,1,0,19,55,320,0,53298,1
2,32381,30740,33176,29847,3524,-2621,-1621,230,623,628,302,225,453,-213,1,0,19,55,360,0,53298,1
2,32353,30685,33220,29848,3518,-7364,-579,-5427,-4450,1301,-622,221,447,-215,1,0,19,55,400,0,53298,1
2,32303,30696,33119,29849,3510,-5486,-24,210,284,-1278,-434,222,452,-212,1,0,19,55,440,0,53298,1
2,32309,30618,33100,29850,3501,-3316,-1168,-905,1360,1443,-348,213,453,-215,1,0,19,55,480,0,53298,1
2,32322,30691,33161,29851,3493,-2783,-1848,-904,1259,170,-33,218,450,-210,1,0,19,55,520,0,53298,1
2,32335,30700,33212,29852,3485,-4637,-1057,-1290,-2017,525,18,221,455,-219,1,0,19,55,560,0,53298,1
2,32335,30704,33180,29853,3478,-5881,-181,-903,53,-529,379,224,448,-218,1,0,19,55,600,0,53298,1
2,32388,30801,33181,29854,3472,-5159,-718,-1242,-284,-338,-371,222,450,-214,1,0,19,55,640,0,53298,1
2,32340,30722,33134,29855,3465,-5220,-1093,-1650,-1900,-2087,-172,224,444,-210,1,0,19,55,680,0,53298,1
2,32292,30607,33077,29856,3458,-3322,-980,-266,2872,-377,319,208,446,-214,1,0,19,55,720,0,53298,1
2,32260,30648,33055,29857,3451,-2736,-1387,-111,2286,111,757,222,452,-206,1,0,19,55,760,0,53298,1
2,32299,30722,33093,29858,3443,-2392,-1654,101,-264,-208,347,214,458,-210,1,0,19,55,800,0,53298,1
2,32361,30878,33253,29859,3436,-2995,-1127,-409,-521,2078,305,214,456,-214,1,0,19,55,840,0,53298,1
2,32364,30858,33244,29860,3428,-11471,-436,-3251,-652,3889,-465,215,453,-213,1,0,19,55,880,0,53298,1
2,32374,30861,33179,29861,3420,-4469,-1244,-885,2229,-2589,132,217,451,-221,1,0,19,55,920,0,53298,1
2,32384,30848,33217,29862,3420,-3560,-1215,-1205,-1650,1530,-1065,220,454,-214,1,0,19,55,960,0,53298,1
1,32274,30789,33143,29863,3045,-4412,-1118,-922,-1779,-1341,6,224,444,-208,1,0,19,56,0,0,53298,1
2,32270,30786,33097,29864,3039,-6096,-595,-1602,-4005,-2640,175,223,445,-215,1,0,19,56,40,0,53298,1
2,32376,30900,33149,29865,3031,-5154,-434,-1404,3137,-174,-568,219,449,-215,1,0,19,56,80,0,53298,1
2,32370,30867,33135,29866,3023,-2635,-1292,-262,4311,187,289,210,454,-206,1,0,19,56,120,0,53298,1
2,32358,30840,33151,29867,3015,-2294,-1752,58,548,-125,46,224,448,-208,1,0,19,56,160,0,53298,1
2,32417,30946,33222,29868,3007,-2398,-1820,1049,-42,157,-363,219,449,-215,1,0,19,56,200,0,53298,1
2,32347,30806,33237,29869,3001,-7145,-307,-4716,-4757,72,-767,215,445,-205,1,0,19,56,240,0,53298,1
2,32347,30844,33148,29870,2993,-5766,-429,-527,267,-132,335,223,451,-213,1,0,19,56,280,0,53298,1
2,32330,30877,33113,29871,2984,-3181,-598,-159,2864,833,1112,217,449,-211,1,0,19,56,320,0,53298,1
2,32377,30902,33169,29872,2975,-2219,-1776,-467,274,-662,241,224,438,-214,1,0,19,56,360,0,53298,1
2,32420,30890,33272,29873,2967,-4577,-1535,-2400,-5005,537,-34,216,452,-202,1,0,19,56,400,0,53298,1
2,32399,30882,33211,29874,2960,-7087,136,-867,-2533,-1549,-568,215,437,-211,1,0,19,56,440,0,53298,1
2,32331,30888,33112,29875,2952,-4803,-302,-1018,3450,398,1038,223,441,-207,1,0,19,56,480,0,53298,1
2,32335,30912,33113,29876,2945,-2947,-1152,-287,2823,-658,1022,211,445,-211,1,0,19,56,520,0,53298,1
2,32349,30911,33144,29877,2938,-2046,-2031,-474,-1458,-701,289,219,447,-207,1,0,19,56,560,0,53298,1
2,32423,30936,33270,29878,2932,-3428,-1642,326,-366,1313,-415,218,454,-210,1,0,19,56,600,0,53298,1
2,32395,30824,33231,29879,2927,-8589,-342,-2601,-4950,-513,-890,215,449,-213,1,0,19,56,640,0,53298,1
2,32330,30805,33119,29880,2920,-5169,-734,-1103,2277,-522,-207,222,446,-216,1,0,19,56,680,0,53298,1
2,32310,30787,33103,29881,2913,-2760,-1232,-232,3438,684,148,227,447,-213,1,0,19,56,720,0,53298,1
2,32328,30854,33128,29882,2905,-1628,-1858,-160,695,164,-28,218,456,-212,1,0,19,56,760,0,53298,1
2,32376,31063,33241,29883,2899,-3771,-1320,17,-854,1995,-593,217,443,-219,1,0,19,56,800,0,53298,1
2,32324,31246,33175,29884,2893,-8935,-401,-1753,-5099,-1669,-979,222,446,-216,1,0,19,56,840,0,53298,1
2,32301,31191,33100,29885,2884,-4435,-16,-573,4275,524,1020,221,445,-213,1,0,19,56,880,0,53298,1
2,32327,31235,33116,29886,2876,-2443,-1203,-82,4261,-42,772,221,439,-215,1,0,19,56,920,0,53298,1
2,32428,31235,33204,29887,2876,-1469,-2325,103,87,-482,-46,219,453,-215,1,0,19,56,960,0,53298,1
1,32449,31219,33275,29888,2499,-6192,12,-4502,-7561,-1269,-1093,212,456,-200,1,0,19,57,0,1,53298,1
2,32341,31148,33152,29889,2493,-7001,-959,-1023,959,2067,-769,216,448,-206,1,0,19,57,40,1,53298,1
2,32320,31191,33083,29890,2485,-3097,-123,254,7579,-333,1392,207,453,-205,1,0,19,57,80,1,53298,1
2,32334,31218,33115,29891,2477,-1822,-1378,-388,3172,405,631,219,451,-217,1,0,19,57,120,1,53298,1
2,32422,31240,33233,29892,2471,-2465,-2576,1133,-2287,-1271,-217,220,456,-204,1,0,19,57,160,1,53298,1
2,32405,31172,33250,29893,2466,-8656,-916,-4670,-10263,10,-1092,220,454,-214,1,0,19,57,200,1,53298,1
2,32318,31143,33115,29894,2461,-5620,-224,-574,4678,1487,87,227,445,-211,1,0,19,57,240,1,53298,1
2,32292,31160,33078,29895,2453,-2947,-629,-131,6240,-431,677,213,457,-213,1,0,19,57,280,1,53298,1
2,32362,31167,33177,29896,2446,-1862,-1838,-285,959,-270,-10,216,450,-208,1,0,19,57,320,1,53298,1
2,32416,31163,33253,29897,2440,-4727,-1306,-2209,-6912,-1142,-945,215,439,-199,1,0,19,57,360,1,53298,1
2,32346,31090,33168,29898,2434,-7052,-894,-1573,-1673,1620,-843,220,448,-212,1,0,19,57,400,1,53298,1
2,32310,31099,33092,29899,2428,-3797,-92,-15,6439,58,968,214,450,-204,1,0,19,57,440,1,53298,1
2,32334,31187,33102,29900,2420,-2203,-1266,-321,2740,582,789,220,452,-212,1,0,19,57,480,1,53298,1
2,32400,31248,33210,29901,2413,-2248,-2034,752,-1483,-855,-138,219,449,-219,1,0,19,57,520,1,53298,1
2,32410,31245,33225,29902,2408,-8263,-1472,-5036,-9312,-672,-1101,223,455,-207,1,0,19,57,560,1,53298,1
2,32307,31162,33110,29903,2401,-5920,-380,-696,3595,1406,-43,220,450,-210,1,0,19,57,600,1,53298,1
2,32294,31170,33080,29904,2393,-2920,-581,-7,6623,-619,923,213,451,-215,1,0,19,57,640,1,53298,1
2,32330,31190,33114,29905,2385,-1786,-1723,-397,1286,279,92,217,443,-215,1,0,19,57,680,1,53298,1
2,32415,31154,33239,29906,2379,-4345,-1523,-952,-5440,-1366,-392,222,454,-212,1,0,19,57,720,1,53298,1
2,32376,31104,33177,29907,2373,-7583,-618,-2037,-4754,1321,-849,215,443,-207,1,0,19,57,760,1,53298,1
2,32299,31087,33096,29908,2367,-4673,-75,-370,4893,216,909,220,442,-222,1,0,19,57,800,1,53298,1
2,32300,31175,33094,29909,2359,-2778,-962,-379,3449,-52,831,217,445,-221,1,0,19,57,840,1,53298,1
2,32408,31154,33224,29910,2352,-1986,-2217,753,-782,-617,-45,221,451,-217,1,0,19,57,880,1,53298,1
2,32402,31160,33252,29911,2346,-7515,-1088,-4579,-8465,-987,-1186,209,447,-207,1,0,19,57,920,1,53298,1
2,32306,31127,33110,29912,2346,-5988,-485,-704,2278,1155,-152,221,451,-217,1,0,19,57,960,1,53298,1
1,32290,31135,33064,29913,1952,-3041,-386,78,773,-702,850,223,447,-211,1,0,19,58,0,1,53298,1
2,32317,31197,33102,29914,1944,-1872,-1607,-342,-2906,619,269,215,445,-215,1,0,19,58,40,1,53298,1
2,32429,31183,33261,29915,1938,-3374,-1795,191,-8813,-1203,-273,221,457,-207,1,0,19,58,80,1,53298,1
2,32352,31129,33190,29916,1932,-8876,-1442,-4032,5399,266,-424,224,456,-210,1,0,19,58,120,1,53298,1
2,32313,31139,33098,29917,1925,-5294,283,-166,4958,-395,2190,220,448,-214,1,0,19,58,160,1,53298,1
2,32311,31190,33077,29918,1917,-3037,-622,-126,-661,-1825,2406,212,454,-216,1,0,19,58,200,1,53298,1
2,32369,31156,33126,29919,1909,-2049,-1947,-417,-7340,-868,1154,218,448,-210,1,0,19,58,240,1,53298,1
2,32400,31130,33214,29920,1902,-4086,-1698,-1937,-1539,-544,-893,220,448,-210,1,0,19,58,280,1,53298,1
2,32347,31088,33165,29921,1896,-6610,-889,-1553,6338,1593,-1265,218,454,-200,1,0,19,58,320,1,53298,1
2,32317,31110,33118,29922,1888,-4634,341,-128,4312,685,234,210,440,-198,1,0,19,58,360,1,53298,1
2,32313,31160,33105,29923,1880,-3102,-920,-390,-1524,977,-125,206,452,-204,1,0,19,58,400,1,53298,1
2,32340,31133,33154,29924,1873,-3044,-1814,-521,-4871,125,-750,219,449,-207,1,0,19,58,440,1,53298,1
2,32381,31049,33216,29925,1867,-5259,-1056,-1852,426,-352,-1272,221,449,-213,1,0,19,58,480,1,53298,1
2,32318,31020,33125,29926,1861,-6430,-492,-1420,4760,717,-398,220,456,-214,1,0,19,58,520,1,53298,1
2,32302,31072,33103,29927,1854,-4119,-297,-346,1286,-526,832,219,447,-209,1,0,19,58,560,1,53298,1
2,32312,31168,33113,29928,1846,-2629,-1331,-456,-888,-64,604,212,452,-210,1,0,19,58,600,1,53298,1
2,32320,31140,33141,29929,1837,-2543,-1814,31,-4021,1226,519,218,456,-210,1,0,19,58,640,1,53298,1
2,32403,31152,33251,29930,1830,-5499,-735,-1898,-3746,-1842,-163,220,442,-210,1,0,19,58,680,1,53298,1
2,32354,31096,33157,29931,1822,-7912,-41,-1624,4674,398,-513,211,449,-203,1,0,19,58,720,1,53298,1
2,32328,31143,33097,29932,1815,-4459,-132,-662,4272,376,754,214,448,-210,1,0,19,58,760,1,53298,1
2,32324,31165,33091,29933,1807,-2652,-1102,-222,-314,-354,215,219,447,-207,1,0,19,58,800,1,53298,1
2,32330,31147,33135,29934,1799,-1836,-2066,-14,-2045,1341,33,214,454,-208,1,0,19,58,840,1,53298,1
2,32430,31167,33249,29935,1791,-3220,-1851,-97,-7406,-573,-597,219,445,-213,1,0,19,58,880,1,53298,1
2,32398,31073,33236,29936,1784,-9089,125,-4430,3932,-1087,-535,221,451,-215,1,0,19,58,920,1,53298,1
2,32340,31074,33121,29937,1784,-5610,-738,-1055,4961,1071,123,217,445,-217,1,0,19,58,960,1,53298,1
1,32310,31073,33094,29938,1406,-2864,-1095,-162,1070,-197,513,216,440,-210,1,0,19,59,0,0,53298,1
2,32306,31124,33113,29939,1398,-1808,-1650,8,-1782,1029,99,217,449,-215,1,0,19,59,40,0,53298,1
2,32423,31246,33233,29940,1391,-2415,-1828,-5331,-6942,140,-396,214,448,-210,1,0,19,59,80,0,53298,1
2,32406,31238,33245,29941,1385,-9108,-225,-1119,3598,-1705,-409,215,451,-207,1,0,19,59,120,0,53298,1
2,32338,31200,33106,29942,1377,-6081,-435,-334,5368,1692,-168,212,450,-212,1,0,19,59,160,0,53298,1
2,32306,31182,33069,29943,1369,-2753,-1057,-74,2346,74,426,210,450,-214,1,0,19,59,200,0,53298,1
2,32305,31208,33077,29944,1360,-2048,-1625,563,-1230,111,-59,213,459,-213,1,0,19,59,240,0,53298,1
2,32388,31251,33206,29945,1352,-2230,-2103,-4996,-7869,-677,-272,220,454,-210,1,0,19,59,280,0,53298,1
2,32394,31200,33210,29946,1346,-6165,435,-1135,1514,-1169,-241,221,451,-209,1,0,19,59,320,0,53298,1
2,32333,31151,33111,29947,1338,-6759,-506,-95,5063,1660,-157,216,448,-214,1,0,19,59,360,0,53298,1
2,32296,31168,33065,29948,1330,-3119,-672,-304,1964,-133,931,216,448,-214,1,0,19,59,400,0,53298,1
2,32296,31188,33077,29949,1322,-2090,-1355,257,-999,382,470,211,451,-217,1,0,19,59,440,0,53298,1
2,32391,31257,33204,29950,1314,-2289,-1944,-5434,-6122,491,167,215,449,-215,1,0,19,59,480,0,53298,1
2,32409,31246,33243,29951,1309,-7396,295,-607,-359,-2519,-405,217,451,-211,1,0,19,59,520,0,53298,1
2,32342,31178,33138,29952,1303,-6691,-40,-136,5154,1290,-349,216,450,-210,1,0,19,59,560,0,53298,1
2,32297,31190,33053,29953,1295,-3140,-142,-110,3452,-687,1164,206,444,-198,1,0,19,59,600,0,53298,1
2,32295,31214,33056,29954,1287,-2196,-1321,374,-1129,-412,252,209,447,-209,1,0,19,59,640,0,53298,1
2,32376,31207,33163,29955,1280,-1935,-2030,-4107,-6602,1217,4,215,451,-207,1,0,19,59,680,0,53298,1
2,32406,31151,33248,29956,1274,-6308,9,-471,-3506,-2010,-607,215,449,-209,1,0,19,59,720,0,53298,1
2,32340,31113,33140,29957,1266,-7320,192,-156,5638,1978,-1207,219,445,-205,1,0,19,59,760,0,53298,1
2,32297,31128,33057,29958,1259,-3694,131,-340,4828,-336,1155,215,447,-205,1,0,19,59,800,0,53298,1
2,32291,31167,33061,29959,1251,-2395,-1243,210,-588,-372,100,204,448,-216,1,0,19,59,840,0,53298,1
2,32352,31147,33127,29960,1244,-1881,-2139,-1957,-6377,801,-171,217,445,-217,1,0,19,59,880,0,53298,1
2,32413,31121,33257,29961,1238,-5881,178,-766,-3274,-1743,-209,222,446,-214,1,0,19,59,920,0,53298,1
2,32339,31075,33148,29962,1238,-7405,187,-317,4797,1445,-864,210,454,-212,1,0,19,59,960,0,53298,1
1,32279,31049,33053,29963,860,-3876,-1215,-467,4642,19,896,214,452,-214,1,0,20,0,0,1,53298,1
2,32287,31122,33072,29964,853,-2585,-2090,143,320,-4,-200,211,457,-213,1,0,20,0,40,1,53298,1
2,32332,31148,33120,29965,845,-1968,-17,-1907,-4428,1853,-334,210,450,-216,1,0,20,0,80,1,53298,1
2,32395,31115,33244,29966,839,-6280,133,-974,-4805,-2559,-189,219,451,-211,1,0,20,0,120,1,53298,1
2,32318,31001,33134,29967,832,-7681,-147,-524,4506,712,-456,213,445,-205,1,0,20,0,160,1,53298,1
2,32281,31068,33053,29968,826,-3938,-1287,-328,4965,-239,1370,209,441,-211,1,0,20,0,200,1,53298,1
2,32276,31116,33051,29969,819,-2420,-2047,192,-29,-558,291,209,447,-199,1,0,20,0,240,1,53298,1
2,32312,31135,33098,29970,812,-1750,-1522,834,-2779,1566,-40,220,448,-206,1,0,20,0,280,1,53298,1
2,32412,31107,33253,29971,807,-3725,-834,-2686,-6714,-437,-507,213,455,-221,1,0,20,0,320,1,53298,1
2,32338,31000,33158,29972,800,-9073,-746,-477,3450,-979,-533,216,450,-210,1,0,20,0,360,1,53298,1
2,32285,30995,33062,29973,794,-4557,-1181,-351,4874,565,878,210,446,-218,1,0,20,0,400,1,53298,1
2,32278,31070,33043,29974,786,-2702,-2122,-128,577,-594,370,206,446,-210,1,0,20,0,440,1,53298,1
2,32306,31118,33097,29975,778,-1654,-1440,-94,-2833,1520,-314,212,452,-214,1,0,20,0,480,1,53298,1
2,32388,31071,33220,29976,771,-3833,-811,-2723,-6878,-1082,-296,209,447,-213,1,0,20,0,520,1,53298,1
2,32345,31004,33146,29977,765,-8880,-733,-726,3465,-704,-574,212,446,-212,1,0,20,0,560,1,53298,1
2,32274,31011,33053,29978,758,-4763,-1167,-296,5305,447,895,209,449,-221,1,0,20,0,600,1,53298,1
2,32266,31060,33035,29979,750,-2723,-2073,-145,614,-741,602,217,449,-205,1,0,20,0,640,1,53298,1
2,32279,31099,33091,29980,743,-1647,-1727,809,-2321,1358,-256,215,455,-213,1,0,20,0,680,1,53298,1
2,32388,31041,33215,29981,736,-3509,-804,-3478,-7495,-863,-530,212,444,-210,1,0,20,0,720,1,53298,1
2,32350,30996,33157,29982,730,-9378,-421,-458,4159,-243,-910,217,447,-213,1,0,20,0,760,1,53298,1
2,32282,31001,33060,29983,723,-4826,-963,-95,5939,695,834,207,449,-205,1,0,20,0,800,1,53298,1
2,32282,31090,33046,29984,715,-2757,-1909,-52,1049,-761,819,206,454,-218,1,0,20,0,840,1,53298,1
2,32287,31130,33078,29985,708,-1681,-1831,-431,-2955,1516,69,213,451,-213,1,0,20,0,880,1,53298,1
2,32387,31141,33228,29986,701,-2767,-1007,-4002,-7868,898,-509,217,445,-213,1,0,20,0,920,1,53298,1
2,32353,31034,33205,29987,701,-10216,-1047,-743,2006,-3053,-673,216,446,-214,1,0,20,0,960,1,53298,1
1,32287,31016,33075,29988,314,-2538,-943,-207,6011,1316,18,223,443,-211,1,0,20,1,0,0,53298,1
0,32284,31049,33046,29989,307,-2538,-943,-207,6011,1316,18,204,444,-208,1,0,20,1,40,0,53298,1
2,32284,31160,33081,29990,299,-2186,-1844,-68,-2236,1036,28,215,451,-213,1,0,20,1,80,0,53298,1
2,32392,31244,33216,29991,293,-9509,-693,-5163,-7778,603,-465,224,450,-214,1,0,20,1,120,0,53298,1
2,32350,31212,33217,29992,288,-5445,-319,-181,1505,-2260,-226,214,450,-208,1,0,20,1,160,0,53298,1
2,32297,31165,33082,29993,281,-3124,-642,-343,5077,1596,50,212,444,-210,1,0,20,1,200,0,53298,1
2,32286,31178,33054,29994,274,-2107,-1557,-657,2094,-866,868,210,454,-210,1,0,20,1,240,0,53298,1
2,32286,31197,33075,29995,266,-2401,-1899,-63,-951,924,-325,218,446,-216,1,0,20,1,280,0,53298,1
2,32367,31239,33206,29996,260,-9005,-284,-4834,-7341,943,-373,210,456,-212,1,0,20,1,320,0,53298,1
2,32360,31208,33209,29997,255,-5553,-387,-289,1547,-2569,-264,211,453,-211,1,0,20,1,360,0,53298,1
2,32308,31132,33079,29998,249,-3220,-644,-478,4089,1337,29,213,443,-211,1,0,20,1,400,0,53298,1
2,32292,31135,33058,29999,243,-2289,-1610,-720,1982,-789,903,202,446,-206,1,0,20,1,440,0,53298,1
2,32280,31145,33066,30000,235,-2307,-1936,13,-619,689,-305,210,448,-202,1,0,20,1,480,0,53298,1
1,32366,31212,33205,30001,229,-8056,-320,-4535,-6825,642,-394,215,455,-207,1,0,20,1,520,0,53298,1
1,32361,31169,33209,30002,223,-5912,-381,-504,1076,-2054,-397,214,450,-210,1,0,20,1,560,0,53298,1
1,32310,31092,33107,30003,216,-3271,-674,-437,4040,1481,-388,221,443,-215,1,0,20,1,600,0,53298,1
1,32294,31106,33063,30004,208,-2297,-1445,-433,2919,-345,471,213,453,-217,1,0,20,1,640,0,53298,1
1,32282,31140,33074,30005,200,-2159,-1820,86,20,842,-226,215,457,-213,1,0,20,1,680,0,53298,1
1,32347,31186,33188,30006,192,-8903,537,-4176,-4233,2751,-228,220,446,-224,1,0,20,1,720,0,53298,1
1,32360,31147,33221,30007,186,-6281,157,-564,-2012,-3398,-238,211,449,-215,1,0,20,1,760,0,53298,1
1,32317,31077,33125,30008,180,-3624,-471,-664,2453,638,-324,216,448,-212,1,0,20,1,800,0,53298,1
1,32296,31087,33059,30009,172,-2475,-1384,-431,3994,-1021,1427,217,443,-205,1,0,20,1,840,0,53298,1
1,32286,31103,33056,30010,164,-1905,-2060,-40,-287,-220,378,210,452,-208,1,0,20,1,880,0,53298,1
1,32306,31168,33103,30011,156,-4447,-507,-1739,-1292,2624,70,214,452,-204,1,0,20,1,920,0,53298,1
1,32338,31128,33202,30012,148,-6791,-585,-1268,-5155,-317,-180,210,446,-216,1,0,20,1,960,0,53298,1
1,32297,31085,33138,30013,0,-4243,-780,-419,958,-2112,-482,215,457,-215,1,0,20,2,0,0,53298,1
2,32284,31012,33055,30014,39762,-2978,-1134,-747,2927,435,398,214,450,-210,1,0,20,2,40,0,53298,1
2,32270,31055,33059,30015,39755,-2159,-1959,-382,1290,-278,35,214,452,-208,1,0,20,2,80,0,53298,1
2,32314,31084,33112,30016,39746,-5297,-363,-1226,-733,2116,-354,211,445,-221,1,0,20,2,120,0,53298,1
2,32358,31078,33214,30017,39740,-6644,-267,-1030,-4954,-1403,-265,222,448,-208,1,0,20,2,160,0,53298,1
2,32339,31042,33153,30018,39734,-4552,-768,-1094,568,-659,-553,221,445,-211,1,0,20,2,200,0,53298,1
2,32307,30990,33096,30019,39727,-3008,-1310,-706,3175,11,260,223,449,-217,1,0,20,2,240,0,53298,1
2,32295,30994,33084,30020,39719,-2143,-1711,-228,1505,-196,-9,215,445,-205,1,0,20,2,280,0,53298,1
2,32297,31056,33102,30021,39712,-2851,-1324,-267,981,1856,-90,212,442,-214,1,0,20,2,320,0,53298,1
2,32364,31090,33213,30022,39705,-9429,-274,-4146,-4644,1692,-48,214,448,-222,1,0,20,2,360,0,53298,1
2,32342,31082,33185,30023,39701,-5339,-540,-401,-186,-3537,-118,215,453,-215,1,0,20,2,400,0,53298,1
2,32298,30994,33100,30024,39695,-3307,-798,-698,2150,451,174,220,446,-214,1,0,20,2,440,0,53298,1
2,32286,31016,33060,30025,39690,-2547,-1586,-487,2453,-797,676,207,443,-205,1,0,20,2,480,0,53298,1
2,32291,31097,33079,30026,39682,-2276,-1854,140,537,775,9,211,451,-201,1,0,20,2,520,0,53298,1
2,32380,31076,33175,30027,39676,-8029,-384,-4167,-5814,1398,-264,211,455,-215,1,0,20,2,560,0,53298,1
2,32365,31039,33196,30028,39671,-5664,-181,-155,-6,-2357,-140,210,454,-206,1,0,20,2,600,0,53298,1
2,32313,31000,33110,30029,39666,-3539,-660,-640,2926,1130,-104,220,450,-210,1,0,20,2,640,0,53298,1
2,32308,31008,33075,30030,39660,-2671,-1550,-885,1664,-827,857,212,452,-210,1,0,20,2,680,0,53298,1
2,32303,31092,33100,30031,39653,-2394,-1911,-189,179,645,-146,212,456,-204,1,0,20,2,720,0,53298,1
2,32308,31067,33155,30032,39646,-6883,-333,-1376,-443,2494,491,219,451,-219,1,0,20,2,760,0,53298,1
2,32335,31040,33195,30033,39639,-5440,-545,-1337,-2775,-1863,-138,215,453,-217,1,0,20,2,800,0,53298,1
2,32319,31137,33141,30034,39634,-4224,-855,-1046,-1232,-1409,-41,216,448,-206,1,0,20,2,840,0,53298,1
2,32299,31118,33092,30035,39629,-3068,-1251,-620,2261,-867,704,209,447,-211,1,0,20,2,880,0,53298,1
2,32290,31119,33084,30036,39622,-2289,-1638,-356,1003,-269,297,208,444,-216,1,0,20,2,920,0,53298,1
2,32310,31140,33112,30037,39616,-3474,-993,-442,1502,1894,-244,217,451,-219,1,0,20,2,960,0,53298,1
1,32361,31150,33219,30038,0,-8740,-56,-3604,-4192,1874,-320,211,453,-221,1,0,20,3,0,0,53298,1
2,32359,31156,33200,30039,39219,-5473,-651,-581,-1171,-3734,-430,208,454,-210,1,0,20,3,40,0,53298,1
2,32318,31090,33118,30040,39212,-3232,-466,-462,2871,700,-222,218,448,-204,1,0,20,3,80,0,53298,1
2,32307,31117,33075,30041,39205,-2392,-1557,-403,2728,-611,567,213,445,-213,1,0,20,3,120,0,53298,1
2,32301,31150,33098,30042,39198,-2347,-1757,-4,-104,783,-126,212,450,-210,1,0,20,3,160,0,53298,1
2,32351,31143,33163,30043,39191,-7479,394,-3598,-4397,2465,-43,210,448,-218,1,0,20,3,200,0,53298,1
2,32392,31137,33235,30044,39185,-6818,575,-962,-1973,-2529,-146,210,448,-216,1,0,20,3,240,0,53298,1
2,32339,31105,33150,30045,39180,-4067,-655,-918,1416,-425,-603,218,456,-214,1,0,20,3,280,0,53298,1
2,32313,31107,33084,30046,39173,-2587,-1167,-164,3876,-976,1028,213,445,-207,1,0,20,3,320,0,53298,1
2,32310,31110,33077,30047,39166,-1817,-1949,-37,-523,-643,716,208,448,-206,1,0,20,3,360,0,53298,1
2,32319,31123,33099,30048,39158,-2978,-1571,-674,-1659,1601,253,207,447,-215,1,0,20,3,400,0,53298,1
2,32369,31115,33220,30049,39152,-10213,170,-4015,-4933,2548,-324,213,441,-209,1,0,20,3,440,0,53298,1
2,32335,31078,33191,30050,39147,-4903,-613,-152,1385,-3857,-18,209,453,-209,1,0,20,3,480,0,53298,1
2,32304,31061,33095,30051,39141,-3240,-881,-770,953,1331,-40,220,446,-214,1,0,20,3,520,0,53298,1
2,32300,31047,33085,30052,39133,-2664,-1870,-863,868,-1127,637,210,450,-210,1,0,20,3,560,0,53298,1
2,32305,31090,33112,30053,39126,-3076,-1265,-311,0,820,-195,209,445,-219,1,0,20,3,600,0,53298,1
2,32353,31115,33191,30054,39119,-7992,192,-2945,-3660,1110,59,216,450,-212,1,0,20,3,640,0,53298,1
2,32384,31102,33208,30055,39114,-5694,-457,-858,-269,-2343,-537,214,448,-210,1,0,20,3,680,0,53298,1
2,32348,30994,33140,30056,39108,-3886,-478,-958,1613,498,-512,217,447,-211,1,0,20,3,720,0,53298,1
2,32318,31030,33085,30057,39101,-2562,-1342,30,3292,-694,332,216,440,-214,1,0,20,3,760,0,53298,1
2,32310,31036,33095,30058,39095,-2192,-1556,-169,-256,117,152,213,451,-209,1,0,20,3,800,0,53298,1
2,32320,31070,33121,30059,39088,-3378,-1219,-653,-166,1935,-83,207,451,-205,1,0,20,3,840,0,53298,1
2,32399,31091,33250,30060,39081,-8710,-831,-2632,-5912,891,-602,208,450,-220,1,0,20,3,880,0,53298,1
2,32357,31046,33193,30061,39076,-4804,-496,-391,1498,-2285,-213,211,447,-213,1,0,20,3,920,0,53298,1
2,32311,31032,33099,30062,39069,-3175,-810,-545,2709,321,745,208,444,-206,1,0,20,3,960,0,53298,1
1,32315,31070,33084,30063,0,-2356,-1851,-659,951,-1105,1026,205,455,-207,1,0,20,4,0,1,53298,1
2,32342,31079,33116,30064,38673,-4075,-1602,-575,-2113,808,-162,219,451,-215,1,0,20,4,40,1,53298,1
2,32381,31024,33209,30065,38667,-7878,-359,-2366,-4966,-1342,-739,214,454,-208,1,0,20,4,80,1,53298,1
2,32344,31041,33165,30066,38662,-4776,282,-144,5215,994,-1773,221,443,-207,1,0,20,4,120,1,53298,1
2,32285,31044,33074,30067,38656,-2711,-638,201,5320,305,565,212,444,-206,1,0,20,4,160,1,53298,1
2,32300,31110,33068,30068,38649,-1702,-1910,156,433,-588,824,212,450,-206,1,0,20,4,200,1,53298,1
2,32323,31134,33099,30069,38642,-2848,-2084,-136,-3654,1631,374,205,449,-213,1,0,20,4,240,1,53298,1
2,32397,31059,33229,30070,38635,-9830,-868,-3932,-7477,762,-629,217,445,-213,1,0,20,4,280,1,53298,1
2,32357,31011,33166,30071,38629,-4936,-616,-450,3341,-1982,-421,214,446,-210,1,0,20,4,320,1,53298,1
2,32300,31014,33084,30072,38622,-3026,-839,-524,3976,833,363,219,451,-213,1,0,20,4,360,1,53298,1
2,32309,31042,33073,30073,38616,-2210,-1905,-517,1060,-976,682,207,445,-199,1,0,20,4,400,1,53298,1
2,32308,31075,33095,30074,38608,-2574,-1767,-101,-931,1123,-126,211,451,-213,1,0,20,4,440,1,53298,1
2,32377,31059,33205,30075,38601,-8788,-182,-4166,-5570,1100,-122,223,449,-211,1,0,20,4,480,1,53298,1
2,32354,31041,33179,30076,38595,-5537,-310,-452,1689,-2407,-126,208,452,-216,1,0,20,4,520,1,53298,1
2,32300,30941,33090,30077,38588,-3587,-533,-504,2730,776,18,221,439,-211,1,0,20,4,560,1,53298,1
2,32289,31010,33063,30078,38580,-2597,-1374,-563,1346,-1217,1032,212,450,-200,1,0,20,4,600,1,53298,1
2,32294,31071,33083,30079,38573,-2462,-1838,-98,-310,218,140,209,453,-209,1,0,20,4,640,1,53298,1
2,32344,31063,33138,30080,38566,-6019,105,-2834,-1533,2252,-51,211,449,-213,1,0,20,4,680,1,53298,1
2,32344,31008,33206,30081,38559,-6349,154,-246,-2661,-1377,-128,215,453,-211,1,0,20,4,720,1,53298,1
2,32335,30973,33138,30082,38553,-4703,-588,-1028,203,-375,-434,212,452,-204,1,0,20,4,760,1,53298,1
2,32317,30933,33105,30083,38547,-3473,-1041,-973,772,-1143,438,201,447,-211,1,0,20,4,800,1,53298,1
2,32307,30960,33082,30084,38540,-2687,-1646,-233,727,-334,420,207,453,-193,1,0,20,4,840,1,53298,1
2,32335,30955,33100,30085,38534,-4379,-1276,-490,-451,843,-6,212,442,-212,1,0,20,4,880,1,53298,1
2,32385,31135,33173,30086,38529,-7241,-820,-2727,-1736,-663,-1009,212,450,-204,1,0,20,4,920,1,53298,1
2,32337,31144,33119,30087,38525,-4635,22,-289,5395,952,-1859,214,448,-208,1,0,20,4,960,1,53298,1
1,32289,31198,33054,30088,0,-2701,-554,331,5975,926,-212,216,450,-220,1,0,20,5,0,0,53298,1
2,32287,31243,33060,30089,38129,-1820,-1666,444,420,-579,523,217,445,-211,1,0,20,5,40,0,53298,1
2,32342,31263,33109,30090,38123,-2953,-1742,-669,-5005,1268,665,214,448,-208,1,0,20,5,80,0,53298,1
2,32395,31287,33210,30091,38116,-11804,158,-4983,-6135,3730,-474,207,449,-221,1,0,20,5,120,0,53298,1
2,32333,31263,33175,30092,38110,-4967,-338,-60,2344,-4712,719,216,446,-212,1,0,20,5,160,0,53298,1
2,32322,31244,33095,30093,38104,-3438,-754,-782,1095,1121,634,212,448,-210,1,0,20,5,200,0,53298,1
2,32330,31245,33087,30094,38096,-2696,-1834,-1000,616,-2043,1817,211,447,-211,1,0,20,5,240,0,53298,1
2,32362,31249,33146,30095,38091,-3898,-1543,-1056,-2980,-382,-76,198,444,-214,1,0,20,5,280,0,53298,1
2,32386,31261,33187,30096,38086,-5936,-190,-1177,-823,-334,-780,205,449,-201,1,0,20,5,320,0,53298,1
2,32360,31211,33149,30097,38080,-4649,-351,-632,2982,640,-553,219,449,-211,1,0,20,5,360,0,53298,1
2,32324,31217,33115,30098,38074,-3510,-859,-479,1673,445,424,211,451,-213,1,0,20,5,400,0,53298,1
2,32320,31213,33117,30099,38068,-3156,-1401,-499,-877,494,629,207,447,-213,1,0,20,5,440,0,53298,1
2,32323,31224,33141,30100,38061,-4327,-1049,-1537,-474,1490,446,212,442,-210,1,0,20,5,480,0,53298,1
2,32372,31256,33214,30101,38054,-6669,-322,-1105,112,1419,-162,214,456,-218,1,0,20,5,520,0,53298,1
2,32370,31237,33204,30102,38047,-5422,-515,-1756,-2823,-2396,-597,211,451,-205,1,0,20,5,560,0,53298,1
2,32383,31230,33184,30103,38042,-4462,-929,-1263,-1145,-1054,-858,214,448,-214,1,0,20,5,600,0,53298,1
2,32360,31220,33150,30104,38036,-3201,-1064,-169,2651,-471,-88,215,447,-207,1,0,20,5,640,0,53298,1
2,32345,31219,33130,30105,38029,-2418,-1235,-128,889,-219,444,215,445,-201,1,0,20,5,680,0,53298,1
2,32336,31233,33140,30106,38022,-2788,-1234,33,304,471,427,215,449,-201,1,0,20,5,720,0,53298,1
2,32397,31294,33192,30107,38015,-7345,-1124,-2997,-1035,3259,-62,207,451,-207,1,0,20,5,760,0,53298,1
2,32373,31235,33231,30108,38009,-5768,-33,-610,-2525,-1796,-501,213,445,-205,1,0,20,5,800,0,53298,1
2,32324,31227,33138,30109,38002,-3895,-634,-300,1849,-12,-219,208,446,-208,1,0,20,5,840,0,53298,1
2,32327,31234,33102,30110,37996,-2970,-1004,-987,1007,-1096,1758,209,451,-209,1,0,20,5,880,0,53298,1
2,32357,31227,33127,30111,37989,-3562,-1967,-1046,-2338,-856,780,200,442,-210,1,0,20,5,920,0,53298,1
2,32422,31237,33211,30112,37983,-5627,-748,-1618,-3805,-1014,-966,205,449,-213,1,0,20,5,960,0,53298,1
1,32431,31232,33229,30113,0,-5943,-409,-1148,1586,-37,-1657,201,441,-201,1,0,20,6,0,1,53298,1
2,32392,31213,33163,30114,37587,-4118,-326,-513,3818,440,-595,215,443,-203,1,0,20,6,40,1,53298,1
2,32345,31231,33122,30115,37581,-2498,-1296,271,1894,133,693,214,450,-204,1,0,20,6,80,1,53298,1
2,32332,31267,33113,30116,37575,-2072,-1575,86,-1245,279,1062,208,448,-200,1,0,20,6,120,1,53298,1
2,32405,31280,33169,30117,37567,-4506,-1075,-672,-797,1818,258,210,450,-204,1,0,20,6,160,1,53298,1
2,32447,31332,33292,30118,37562,-8367,-200,-1035,-5617,-893,-1100,210,446,-218,1,0,20,6,200,1,53298,1
2,32390,31288,33177,30119,37557,-5006,-445,-930,2677,-403,-1357,214,440,-204,1,0,20,6,240,1,53298,1
2,32340,31245,33109,30120,37552,-2751,-1171,-416,5240,-184,1048,210,442,-214,1,0,20,6,280,1,53298,1
2,32335,31256,33092,30121,37545,-1749,-1780,126,2157,-354,996,209,447,-207,1,0,20,6,320,1,53298,1
2,32339,31265,33113,30122,37539,-2430,-1908,182,-1217,562,472,212,450,-208,1,0,20,6,360,1,53298,1
2,32464,31319,33238,30123,37534,-7651,-77,-6369,-6671,1145,-550,211,451,-211,1,0,20,6,400,1,53298,1
2,32434,31284,33242,30124,37530,-6520,-2,-298,-323,-2526,-448,215,445,-209,1,0,20,6,440,1,53298,1
2,32352,31255,33144,30125,37525,-3713,-426,-26,3818,1481,-332,213,445,-213,1,0,20,6,480,1,53298,1
2,32329,31246,33099,30126,37519,-2270,-1027,-409,2661,-1081,1517,203,449,-191,1,0,20,6,520,1,53298,1
2,32331,31181,33110,30127,37512,-2003,-1510,-154,-438,-78,782,215,443,-207,1,0,20,6,560,1,53298,1
2,32406,31266,33173,30128,37505,-4565,-1218,-890,-1772,1797,-688,207,449,-209,1,0,20,6,600,1,53298,1
2,32418,31282,33283,30129,37499,-8390,20,-1242,-6310,-340,-882,213,445,-207,1,0,20,6,640,1,53298,1
2,32395,31265,33210,30130,37493,-5057,-490,-626,768,-1221,-776,216,446,-214,1,0,20,6,680,1,53298,1
2,32348,31237,33137,30131,37487,-3308,-822,-655,1862,-398,764,209,449,-215,1,0,20,6,720,1,53298,1
2,32345,31250,33110,30132,37481,-2289,-1631,-774,347,-1079,1340,212,442,-200,1,0,20,6,760,1,53298,1
2,32349,31252,33133,30133,37474,-2658,-1791,-177,34,700,-87,209,449,-205,1,0,20,6,800,1,53298,1
2,32434,31281,33235,30134,37468,-5998,245,-3821,-4510,577,-851,210,458,-212,1,0,20,6,840,1,53298,1
2,32434,31266,33261,30135,37464,-6519,-730,-700,327,-1454,-911,215,449,-201,1,0,20,6,880,1,53298,1
2,32358,31234,33156,30136,37459,-3903,-128,-246,4168,1663,-845,215,447,-211,1,0,20,6,920,1,53298,1
2,32344,31225,33116,30137,37452,-2639,-945,-321,3518,-535,1230,214,452,-204,1,0,20,6,960,1,53298,1
1,32333,31240,33106,30138,0,-2128,-1900,56,86,-351,892,201,453,-197,1,0,20,7,0,1,53298,1
2,32385,31221,33164,30139,37040,-4882,-1063,-1692,-3105,1096,70,206,444,-214,1,0,20,7,40,1,53298,1
2,32424,31268,33280,30140,37034,-8058,74,-1029,-4244,-416,-815,219,451,-213,1,0,20,7,80,1,53298,1
2,32394,31248,33211,30141,37029,-5481,-861,-1230,1484,-326,-905,219,447,-207,1,0,20,7,120,1,53298,1
2,32345,31208,33119,30142,37023,-3212,-895,-420,5046,231,584,212,452,-214,1,0,20,7,160,1,53298,1
2,32335,31201,33093,30143,37018,-2172,-1498,-401,1707,-479,1030,210,448,-206,1,0,20,7,200,1,53298,1
2,32168,31008,32993,30144,37011,-2394,-1909,160,-313,435,222,212,444,-204,1,0,20,7,240,1,53298,1
2,32208,31041,33035,30145,37005,-4801,-479,-980,-1128,2209,-321,216,460,-218,1,0,20,7,280,1,53298,1
2,32233,31086,33145,30146,36999,-7861,133,-672,-4292,-135,-425,214,456,-210,1,0,20,7,320,1,53298,1
2,32213,31079,33073,30147,36994,-4875,-653,-977,236,-1209,-867,214,448,-208,1,0,20,7,360,1,53298,1
2,32172,31049,32985,30148,36988,-3232,-896,-833,2183,-146,262,219,447,-211,1,0,20,7,400,1,53298,1
2,32154,31046,32972,30149,36981,-2265,-1669,-214,1275,-302,734,215,443,-211,1,0,20,7,440,1,53298,1
2,32156,31050,32992,30150,36973,-2646,-1520,-113,390,793,6,212,454,-210,1,0,20,7,480,1,53298,1
2,32217,31065,33105,30151,36965,-7431,601,-3878,-2445,1886,-514,211,451,-213,1,0,20,7,520,1,53298,1
2,32238,31065,33125,30152,36960,-6791,115,-375,-2186,-2839,-701,212,460,-210,1,0,20,7,560,1,53298,1
2,32179,31028,33016,30153,36955,-4398,-88,-858,2069,571,-569,217,445,-207,1,0,20,7,600,1,53298,1
2,32150,31013,32932,30154,36948,-2453,-1182,-251,3881,-1126,2013,209,449,-203,1,0,20,7,640,1,53298,1
2,32129,31010,32931,30155,36941,-1590,-1920,182,-1005,-905,1772,206,452,-196,1,0,20,7,680,1,53298,1
2,32120,31007,32947,30156,36934,-2763,-1921,113,-986,285,493,204,448,-204,1,0,20,7,720,1,53298,1
2,32268,31072,33122,30157,36928,-8093,441,-6919,-5655,311,-588,208,444,-212,1,0,20,7,760,1,53298,1
2,32243,31090,33119,30158,36924,-6609,-754,-640,493,-1664,-1147,208,444,-202,1,0,20,7,800,1,53298,1
2,32154,31061,32965,30159,36918,-2938,-487,-116,5168,2092,-506,214,446,-210,1,0,20,7,840,1,53298,1
2,32125,31046,32922,30160,36912,-1914,-1180,-234,3996,-149,1056,202,454,-212,1,0,20,7,880,1,53298,1
2,32154,31041,32951,30161,36906,-2870,-1984,269,-1638,144,119,206,452,-210,1,0,20,7,920,1,53298,1
2,32268,31099,33117,30162,36899,-5892,-1203,-4181,-7047,-529,-988,211,451,-209,1,0,20,7,960,1,53298,1
1,32212,31112,33110,30163,0,-5927,-71,-277,659,488,-1336,215,455,-207,1,0,20,8,0,1,53298,1
2,32126,30811,33008,30164,36498,-4172,-288,-73,3204,1665,270,205,449,-203,1,0,20,8,40,1,53298,1
2,32146,30978,32994,30165,36492,-3922,-1223,-1575,-1254,-1260,1216,214,446,-198,1,0,20,8,80,1,53298,1
2,32118,30906,32985,30166,36487,-3543,-1501,-527,-1004,-716,355,212,450,-208,1,0,20,8,120,1,53298,1
2,32128,30962,33010,30167,36481,-5888,107,-1398,449,899,-67,206,450,-202,1,0,20,8,160,1,53298,1
2,32259,31037,33106,30168,36477,-6532,-1032,-1794,-1037,-1888,-704,216,456,-200,1,0,20,8,200,1,53298,1
2,32182,30987,33020,30169,36472,-3617,-298,21,4028,440,-741,208,448,-208,1,0,20,8,240,1,53298,1
2,32131,30988,32933,30170,36466,-2156,-1093,15,3463,184,978,215,443,-213,1,0,20,8,280,1,53298,1
2,32164,31016,32977,30171,36460,-2107,-1718,451,-539,-382,695,207,449,-211,1,0,20,8,320,1,53298,1
2,32185,31081,33000,30172,36453,-3641,-1416,-135,-3075,1433,431,209,451,-211,1,0,20,8,360,1,53298,1
2,32271,30995,33158,30173,36447,-9768,-547,-2728,-7497,1182,-1263,214,452,-212,1,0,20,8,400,1,53298,1
2,32207,31005,33068,30174,36441,-5119,-735,-686,3430,-1186,-1024,214,450,-212,1,0,20,8,440,1,53298,1
2,32144,31012,32941,30175,36434,-3642,-593,-787,5302,246,708,211,451,-203,1,0,20,8,480,1,53298,1
2,32148,31003,32936,30176,36428,-2385,-1926,-244,747,-1559,1253,212,446,-212,1,0,20,8,520,1,53298,1
2,32132,31005,32951,30177,36421,-2303,-1797,36,-2765,-212,398,205,445,-215,1,0,20,8,560,1,53298,1
2,32156,31025,33008,30178,36414,-3658,-926,-785,93,2026,282,202,450,-198,1,0,20,8,600,1,53298,1
2,32199,31008,33114,30179,36408,-8915,-214,-3138,-4567,1064,-667,211,451,-213,1,0,20,8,640,1,53298,1
2,32180,31012,33067,30180,36403,-5193,-377,-576,761,-2164,-606,201,445,-207,1,0,20,8,680,1,53298,1
2,32137,31001,32963,30181,36398,-3606,-787,-823,2189,471,-151,209,455,-205,1,0,20,8,720,1,53298,1
2,32094,30691,32929,30182,36391,-2017,-1604,7,1088,-477,556,209,443,-209,1,0,20,8,760,1,53298,1
2,32119,30444,32972,30183,36383,-3007,-1789,1396,-817,974,464,210,452,-212,1,0,20,8,800,1,53298,1
2,32314,31013,33173,30184,36378,-9459,-866,-4755,-6498,-1093,-754,213,451,-203,1,0,20,8,840,1,53298,1
2,32308,30858,33135,30185,36373,-5740,267,-475,4586,-366,-1417,217,447,-209,1,0,20,8,880,1,53298,1
2,32155,30715,32942,30186,36367,-2830,-475,111,6533,927,734,210,444,-206,1,0,20,8,920,1,53298,1
2,32136,31039,32929,30187,36360,-1549,-1777,-25,1260,-584,1448,199,447,-205,1,0,20,8,960,1,53298,1
1,32132,31027,32963,30188,0,-2309,-2387,351,-2617,238,208,204,454,-216,1,0,20,9,0,1,53298,1
2,32226,31082,33085,30189,35954,-6790,1346,-4748,-5488,1336,-532,213,447,-211,1,0,20,9,40,1,53298,1
2,32243,31085,33146,30190,35949,-7117,419,-171,-746,-2182,-534,212,452,-210,1,0,20,9,80,1,53298,1
2,32135,31026,32955,30191,35942,-3614,-40,-170,4008,1887,-908,210,446,-208,1,0,20,9,120,1,53298,1
2,32104,31011,32920,30192,35935,-2293,-1153,-511,2990,-896,1642,203,445,-213,1,0,20,9,160,1,53298,1
2,32139,31025,32943,30193,35927,-2067,-2222,334,-1145,-58,415,207,451,-207,1,0,20,9,200,1,53298,1
2,32259,31105,33129,30194,35920,-6178,-58,-4812,-7441,-422,-533,212,444,-206,1,0,20,9,240,1,53298,1
2,32260,31100,33139,30195,35915,-7099,-644,-1184,1741,-563,-1641,214,446,-210,1,0,20,9,280,1,53298,1
2,32165,31013,32996,30196,35910,-3326,-193,19,7275,1738,-545,207,447,-203,1,0,20,9,320,1,53298,1
2,32145,31033,32971,30197,35903,-2005,-1317,-542,3409,118,1061,207,447,-205,1,0,20,9,360,1,53298,1
2,32139,31033,32983,30198,35895,-2127,-2232,519,-1018,331,20,222,448,-202,1,0,20,9,400,1,53298,1
2,32184,30953,33078,30199,35888,-4930,-448,-426,-3846,589,-12,213,453,-199,1,0,20,9,440,1,53298,1
2,32255,31023,33155,30200,35883,-8919,-506,-2193,-3628,-335,-317,213,449,-213,1,0,20,9,480,1,53298,1
2,32166,30951,33030,30201,35879,-4434,-252,-264,2484,-944,-51,215,457,-201,1,0,20,9,520,1,53298,1
2,32127,30934,32947,30202,35873,-2691,-1211,-337,1191,-364,1313,205,445,-207,1,0,20,9,560,1,53298,1
2,32152,31035,32976,30203,35867,-1867,-2026,-269,-1628,-798,992,207,445,-207,1,0,20,9,600,1,53298,1
2,32251,31082,33047,30204,35861,-5161,-1103,-1565,-4233,836,-200,211,447,-211,1,0,20,9,640,1,53298,1
2,32327,31099,33173,30205,35857,-7887,-356,-1318,-2772,-1730,-1012,214,448,-210,1,0,20,9,680,1,53298,1
2,32233,31026,33064,30206,35853,-4178,411,-142,6301,1957,-1887,211,441,-207,1,0,20,9,720,1,53298,1
2,32150,30891,32960,30207,35848,-2260,-1024,153,5020,423,846,207,443,-207,1,0,20,9,760,1,53298,1
2,32163,30891,32986,30208,35842,-1817,-1975,391,-1444,36,620,209,453,-211,1,0,20,9,800,1,53298,1
2,32200,30900,33047,30209,35835,-2946,-1567,-285,-3455,806,226,212,446,-216,1,0,20,9,840,1,53298,1
2,32277,31055,33188,30210,35829,-12146,499,-4533,-5372,2601,-441,207,449,-217,1,0,20,9,880,1,53298,1
2,32212,30997,33122,30211,35823,-5291,-521,-462,1409,-4193,-93,202,446,-212,1,0,20,9,920,1,53298,1
2,32175,30910,33028,30212,35816,-3474,-490,-817,919,1265,-238,211,449,-215,1,0,20,9,960,1,53298,1
1,32169,31023,33032,30213,0,-2406,-1400,-176,1895,-1326,977,214,454,-208,1,0,20,10,0,0,53298,1
2,32186,31038,33048,30214,35411,-2876,-1567,882,-966,226,20,219,447,-209,1,0,20,10,40,0,53298,1
2,32294,31047,33159,30215,35405,-7778,-670,-3957,-5362,-513,-405,221,459,-205,1,0,20,10,80,0,53298,1
2,32238,30989,33080,30216,35399,-5337,-260,-546,2257,-538,-580,215,445,-209,1,0,20,10,120,0,53298,1
2,32184,31006,33028,30217,35392,-3243,-824,-150,2671,563,407,214,440,-208,1,0,20,10,160,0,53298,1
2,32176,30968,32996,30218,35385,-2151,-1597,-320,612,-640,1339,211,449,-205,1,0,20,10,200,0,53298,1
2,32197,30909,33015,30219,35377,-2662,-1761,-622,-913,984,741,216,452,-206,1,0,20,10,240,0,53298,1
2,32262,31048,33132,30220,35370,-9280,19,-3523,-939,2150,-50,204,450,-212,1,0,20,10,280,0,53298,1
2,32239,31014,33117,30221,35363,-5449,-219,-768,-772,-3398,-364,218,448,-208,1,0,20,10,320,0,53298,1
2,32242,30987,33060,30222,35357,-3831,-787,-962,-559,464,-626,208,448,-216,1,0,20,10,360,0,53298,1
2,32244,31055,33050,30223,35350,-2971,-1499,-570,1525,-831,456,217,453,-209,1,0,20,10,400,0,53298,1
2,32246,31071,33064,30224,35342,-2527,-1491,-256,256,237,112,206,444,-210,1,0,20,10,440,0,53298,1
2,32280,31051,33108,30225,35336,-5705,-26,-1794,-583,1557,-139,201,449,-207,1,0,20,10,480,0,53298,1
2,32288,31027,33163,30226,35330,-6444,-278,-674,-2727,-1465,-396,214,442,-208,1,0,20,10,520,0,53298,1
2,32213,30993,33071,30227,35324,-4360,-389,-744,2017,525,-752,215,449,-203,1,0,20,10,560,0,53298,1
2,32190,30976,33016,30228,35317,-2976,-911,-308,3020,-406,606,210,446,-206,1,0,20,10,600,0,53298,1
2,32234,31041,33057,30229,35309,-2303,-1750,-226,78,-111,243,212,444,-214,1,0,20,10,640,0,53298,1
2,32320,31050,33130,30230,35301,-6052,-3,-2384,-3806,997,-355,217,449,-203,1,0,20,10,680,0,53298,1
2,32324,31039,33183,30231,35294,-6597,-454,-789,-1215,-1339,-682,216,450,-210,1,0,20,10,720,0,53298,1
2,32251,31010,33070,30232,35287,-3870,79,-59,4660,1327,-841,209,451,-209,1,0,20,10,760,0,53298,1
2,32235,31008,33031,30233,35280,-2633,-967,-333,2815,-567,1089,218,454,-212,1,0,20,10,800,0,53298,1
2,32237,31055,33048,30234,35272,-2235,-2039,110,-616,-299,646,210,442,-210,1,0,20,10,840,0,53298,1
2,32344,31050,33141,30235,35265,-6142,-577,-4445,-6450,301,134,208,454,-210,1,0,20,10,880,0,53298,1
2,32300,31014,33151,30236,35261,-6198,-641,-748,599,-856,-915,213,443,-213,1,0,20,10,920,0,53298,1
2,32233,31006,33038,30237,35254,-3586,185,126,5447,1571,-748,212,440,-208,1,0,20,10,960,0,53298,1
1,32217,31004,33016,30238,0,-2389,-1257,-368,2106,-916,1198,211,441,-201,1,0,20,11,0,1,53298,1
2,32234,31041,33041,30239,34868,-2406,-2171,-297,-1867,548,579,212,454,-212,1,0,20,11,40,1,53298,1
2,32280,31050,33147,30240,34860,-7692,243,-3370,-4666,2164,-2,217,459,-219,1,0,20,11,80,1,53298,1
2,32266,31019,33153,30241,34855,-6140,73,-282,-764,-2989,27,206,454,-196,1,0,20,11,120,1,53298,1
2,32230,30993,33049,30242,34850,-3819,-843,-966,2000,871,-593,216,446,-206,1,0,20,11,160,1,53298,1
2,32207,30973,33028,30243,34843,-2611,-1304,-381,2611,-762,668,210,444,-208,1,0,20,11,200,1,53298,1
2,32209,31025,33049,30244,34837,-2315,-1579,-157,-772,461,107,210,448,-208,1,0,20,11,240,1,53298,1
2,32272,31076,33147,30245,34831,-6968,389,-2997,-2440,1775,-358,215,449,-215,1,0,20,11,280,1,53298,1
2,32280,31071,33158,30246,34826,-6607,56,-546,-987,-2075,-552,214,450,-202,1,0,20,11,320,1,53298,1
2,32241,30990,33063,30247,34821,-4275,-275,-892,2276,859,-986,220,446,-210,1,0,20,11,360,1,53298,1
2,32226,30906,33022,30248,34814,-2627,-1148,-158,3640,-412,547,211,443,-209,1,0,20,11,400,1,53298,1
2,32231,30880,33029,30249,34808,-1860,-1895,97,321,-116,435,207,439,-209,1,0,20,11,440,1,53298,1
2,32249,31085,33069,30250,34801,-3740,-1295,251,-553,1474,220,212,456,-208,1,0,20,11,480,1,53298,1
2,32323,31105,33188,30251,34795,-8722,-627,-3481,-5763,281,-393,212,448,-206,1,0,20,11,520,1,53298,1
2,32285,31045,33138,30252,34790,-5369,-310,-669,1735,-1950,3,212,448,-210,1,0,20,11,560,1,53298,1
2,32227,30976,33036,30253,34784,-3298,-649,-383,3077,838,96,206,452,-212,1,0,20,11,600,1,53298,1
2,32220,30941,33034,30254,34777,-2144,-1588,-312,1241,-843,903,205,453,-207,1,0,20,11,640,1,53298,1
2,32238,30978,33057,30255,34771,-2674,-1840,-40,-804,1061,262,211,445,-213,1,0,20,11,680,1,53298,1
2,32304,30830,33177,30256,34765,-8084,-340,-3963,-5800,662,-607,212,446,-204,1,0,20,11,720,1,53298,1
2,32281,30793,33146,30257,34761,-5583,-294,-573,1808,-1884,-334,213,451,-205,1,0,20,11,760,1,53298,1
2,32234,30776,33062,30258,34755,-4063,-541,-798,2153,1257,-434,215,445,-205,1,0,20,11,800,1,53298,1
2,32228,30778,33059,30259,34749,-2771,-1161,-310,1946,-1037,1082,206,444,-200,1,0,20,11,840,1,53298,1
2,32217,30811,33053,30260,34742,-2462,-1686,85,21,-351,1068,198,450,-202,1,0,20,11,880,1,53298,1
2,32266,30741,33113,30261,34736,-4189,-951,-1328,-1830,624,133,206,452,-208,1,0,20,11,920,1,53298,1
2,32324,30870,33193,30262,34730,-7969,229,-1492,-2820,-594,-629,207,439,-201,1,0,20,11,960,1,53298,1
1,32290,30814,33120,30263,0,-5006,-575,-1025,1800,-286,-958,217,455,-203,1,0,20,12,0,1,53298,1
2,32249,30778,33042,30264,34326,-2996,-1015,-261,2926,670,-185,209,441,-211,1,0,20,12,40,1,53298,1
2,32231,30965,33033,30265,34319,-2033,-1682,-41,364,-152,521,203,451,-209,1,0,20,12,80,1,53298,1
2,32251,31005,33065,30266,34313,-2889,-1716,-384,-1472,1171,375,212,448,-210,1,0,20,12,120,1,53298,1
2,32304,30910,33173,30267,34306,-9096,-435,-2995,-1964,2935,-364,209,445,-215,1,0,20,12,160,1,53298,1
2,32296,31057,33173,30268,34300,-5949,102,-996,-1148,-3907,461,209,445,-195,1,0,20,12,200,1,53298,1
2,32269,31032,33079,30269,34293,-4259,-1002,-1414,-392,-8,-469,216,450,-206,1,0,20,12,240,1,53298,1
2,32237,30985,33050,30270,34287,-2602,-1579,-182,2507,-1160,894,201,455,-213,1,0,20,12,280,1,53298,1
2,32216,30945,33049,30271,34280,-2054,-1549,0,-268,9,488,215,455,-209,1,0,20,12,320,1,53298,1
2,32228,30973,33092,30272,34273,-3305,-959,-161,1258,1818,-171,204,448,-210,1,0,20,12,360,1,53298,1
2,32296,31053,33172,30273,34267,-8742,-562,-3375,-3761,724,-781,210,454,-214,1,0,20,12,400,1,53298,1
2,32265,31022,33125,30274,34262,-5257,-266,-687,1479,-1791,-725,215,449,-211,1,0,20,12,440,1,53298,1
2,32241,31015,33047,30275,34256,-3456,-746,-765,1399,435,-128,215,447,-195,1,0,20,12,480,1,53298,1
2,32236,31033,33036,30276,34249,-2516,-1701,-182,1046,-635,560,214,448,-210,1,0,20,12,520,1,53298,1
2,32239,31062,33047,30277,34241,-2535,-1750,-41,-97,266,322,208,456,-208,1,0,20,12,560,1,53298,1
2,32295,31120,33120,30278,34234,-5223,-419,-1953,-65,2534,79,210,448,-210,1,0,20,12,600,1,53298,1
2,32290,31085,33173,30279,34228,-7052,416,-995,-3798,-1685,-35,207,447,-209,1,0,20,12,640,1,53298,1
2,32268,31054,33075,30280,34221,-4489,-744,-1053,969,-858,-480,212,444,-208,1,0,20,12,680,1,53298,1
2,32232,31052,33030,30281,34214,-2928,-1185,-704,2325,-328,833,213,447,-211,1,0,20,12,720,1,53298,1
2,32232,31055,33022,30282,34206,-2329,-2002,18,563,-384,467,208,448,-208,1,0,20,12,760,1,53298,1
2,32235,31082,33049,30283,34197,-2961,-1434,212,368,798,-135,208,446,-208,1,0,20,12,800,1,53298,1
2,32342,31088,33167,30284,34190,-7061,204,-4589,-3984,855,-567,208,448,-214,1,0,20,12,840,1,53298,1
2,32335,31077,33152,30285,34184,-6142,64,-431,907,-1814,-258,209,445,-209,1,0,20,12,880,1,53298,1
2,32261,31045,33058,30286,34178,-3900,-549,-637,1758,1124,-284,208,442,-198,1,0,20,12,920,1,53298,1
2,32243,31018,33028,30287,34170,-2577,-1331,-492,1024,-781,1286,210,448,-208,1,0,20,12,960,1,53298,1
1,32250,31039,33048,30288,0,-2467,-2092,-242,-904,249,608,204,448,-210,1,0,20,13,0,0,53298,1
2,32282,31028,33108,30289,33783,-4521,30,-1700,289,2068,-260,207,445,-211,1,0,20,13,40,0,53298,1
2,32317,31054,33187,30290,33775,-7684,53,-1194,-269,234,221,208,448,-210,1,0,20,13,80,0,53298,1
2,32316,31048,33130,30291,33769,-5064,-777,-1257,-967,-2069,-934,207,451,-203,1,0,20,13,120,0,53298,1
2,32298,31016,33096,30292,33762,-4041,-729,-1348,-743,-141,-896,210,450,-208,1,0,20,13,160,0,53298,1
2,32269,30956,33060,30293,33755,-2698,-1536,250,3092,-66,-81,214,452,-204,1,0,20,13,200,0,53298,1
2,32240,31016,33059,30294,33747,-2198,-1266,88,1434,494,20,209,449,-211,1,0,20,13,240,0,53298,1
2,32255,31016,33077,30295,33739,-3114,-906,-272,1249,1441,96,210,446,-212,1,0,20,13,280,0,53298,1
2,32319,31023,33176,30296,33732,-10096,-68,-4367,-4484,2096,-623,213,443,-215,1,0,20,13,320,0,53298,1
2,31361,30528,32251,30297,33726,-6183,-188,-1064,62,-3249,-345,215,453,-207,1,0,20,13,360,0,53298,1
2,31312,30497,32156,30298,33719,-3650,-426,-929,2145,944,-3,207,445,-219,1,0,20,13,400,0,53298,1
2,31291,30531,32106,30299,33711,-2254,-1467,330,3307,-220,1153,210,448,-212,1,0,20,13,440,0,53298,1
2,31280,30538,32097,30300,33704,-1942,-1871,724,-757,-502,700,211,455,-211,1,0,20,13,480,0,53298,1
2,31333,30550,32160,30301,33697,-3259,-1246,-19,-799,297,78,213,455,-207,1,0,20,13,520,0,53298,1
2,31373,30531,32268,30302,33691,-10337,2,-3318,-7551,629,-1106,217,445,-207,1,0,20,13,560,0,53298,1
2,31355,30485,32198,30303,33686,-5302,-583,-942,3185,-1485,62,210,450,-206,1,0,20,13,600,0,53298,1
2,31308,30477,32116,30304,33680,-2957,-1126,-785,3463,1186,600,202,450,-204,1,0,20,13,640,0,53298,1
2,31291,30480,32112,30305,33673,-2027,-1927,-118,1580,-543,821,208,450,-214,1,0,20,13,680,0,53298,1
2,31287,30509,32145,30306,33665,-2428,-2177,453,-1301,265,-800,206,450,-214,1,0,20,13,720,0,53298,1
2,31347,30561,32239,30307,33658,-5790,1992,-1991,-1740,2068,-907,203,447,-211,1,0,20,13,760,0,53298,1
2,31385,30521,32289,30308,33654,-7421,462,-581,-3131,-905,-462,210,450,-216,1,0,20,13,800,0,53298,1
2,31345,30482,32196,30309,33648,-4477,-593,-727,-116,350,-569,219,447,-213,1,0,20,13,840,0,53298,1
2,31337,30485,32148,30310,33641,-2700,-1388,-814,1202,-32,1254,209,451,-211,1,0,20,13,880,0,53298,1
2,31334,30480,32143,30311,33634,-2119,-2157,-373,43,-629,510,210,448,-214,1,0,20,13,920,0,53298,1
2,31350,30500,32204,30312,33628,-2994,-1698,179,-174,-292,-538,210,448,-212,1,0,20,13,960,0,53298,1
1,31412,30505,32278,30313,0,-5914,738,-3121,-2132,1620,-55,203,449,-203,1,0,20,14,0,0,53298,1
2,31431,30562,32321,30314,33243,-7056,570,-652,-3302,-1032,-470,216,452,-216,1,0,20,14,40,0,53298,1
2,31403,30508,32220,30315,33237,-4653,-585,-879,-427,-902,-110,212,446,-208,1,0,20,14,80,0,53298,1
2,31371,30497,32168,30316,33230,-2722,-1426,-851,1705,-1198,1845,213,447,-203,1,0,20,14,120,0,53298,1
2,31348,30430,32159,30317,33223,-1971,-2081,-515,-430,-531,694,209,449,-203,1,0,20,14,160,0,53298,1
2,31344,30445,32191,30318,33215,-2942,-1874,298,2581,-92,-225,199,447,-209,1,0,20,14,200,0,53298,1
2,31403,30484,32282,30319,33207,-6536,1140,-3580,-1034,2790,-509,203,451,-211,1,0,20,14,240,0,53298,1
2,31410,30467,32306,30320,33200,-6152,507,-178,-2242,-1185,-564,211,453,-207,1,0,20,14,280,0,53298,1
2,31378,30428,32215,30321,33193,-4408,-910,-872,-1400,-132,-645,213,453,-207,1,0,20,14,320,0,53298,1
2,31371,30485,32182,30322,33186,-2810,-1371,-952,1125,-1168,1441,215,455,-207,1,0,20,14,360,0,53298,1
2,31360,30524,32169,30323,33179,-2513,-1932,-358,575,-761,672,215,449,-205,1,0,20,14,400,0,53298,1
2,31394,30559,32215,30324,33172,-3707,-963,-738,-1299,434,-373,219,453,-203,1,0,20,14,440,0,53298,1
2,31403,30538,32260,30325,33166,-5986,-251,-1765,-1887,1257,-630,214,454,-218,1,0,20,14,480,0,53298,1
2,31423,30543,32292,30326,33160,-5807,-257,-721,-904,-285,-684,208,452,-218,1,0,20,14,520,0,53298,1
2,31401,30529,32241,30327,33156,-4851,-693,-1328,-147,170,-685,210,450,-200,1,0,20,14,560,0,53298,1
2,31388,30525,32203,30328,33150,-3984,-1200,-1084,916,-668,506,210,444,-214,1,0,20,14,600,0,53298,1
2,31348,30517,32167,30329,33144,-2821,-1355,-441,2473,-297,810,211,447,-209,1,0,20,14,640,0,53298,1
2,31326,30538,32170,30330,33137,-2595,-1345,85,3087,-277,709,210,452,-208,1,0,20,14,680,0,53298,1
2,31336,30544,32201,30331,33131,-3245,-832,-680,1910,863,474,212,452,-208,1,0,20,14,720,0,53298,1
2,31354,30560,32294,30332,33124,-8911,-115,-2567,-1394,2616,-667,209,449,-217,1,0,20,14,760,0,53298,1
2,31361,30551,32268,30333,33118,-5315,-377,-799,408,-1282,-700,195,453,-207,1,0,20,14,800,0,53298,1
2,31379,30543,32226,30334,33111,-5248,-826,-1944,-3995,-167,-1413,204,446,-210,1,0,20,14,840,0,53298,1
2,31365,30527,32206,30335,33105,-4398,-1359,-1556,855,-2363,222,212,450,-208,1,0,20,14,880,0,53298,1
2,31335,30554,32159,30336,33099,-2702,-997,498,4966,630,174,209,449,-213,1,0,20,14,920,0,53298,1
2,31335,30541,32159,30337,33092,-2265,-1271,667,2404,-189,903,207,457,-203,1,0,20,14,960,0,53298,1
1,31347,30557,32173,30338,0,-2245,-1552,388,-1160,-829,468,211,447,-203,1,0,20,15,0,1,53298,1
2,31436,30591,32320,30339,32700,-3378,-828,-3288,-2121,2904,-116,214,456,-216,1,0,20,15,40,1,53298,1
2,31493,30596,32452,30340,32694,-6953,707,723,-1485,2734,-961,215,449,-217,1,0,20,15,80,1,53298,1
2,31765,30719,32661,30341,32688,-4065,-1176,-869,2735,-1113,-998,205,457,-205,1,0,20,15,120,1,53298,1
2,31895,30753,32759,30342,32683,-5320,-710,-2739,-5377,-530,-539,220,448,-210,1,0,20,15,160,1,53298,1
2,32206,30922,33002,30343,32678,-4521,-2026,-1538,-425,-3771,1329,214,452,-206,1,0,20,15,200,1,53298,1
2,32168,30945,32972,30344,32673,-2903,-787,611,4305,727,408,210,450,-210,1,0,20,15,240,1,53298,1
2,32245,31028,33035,30345,32667,-2353,-1099,90,3317,14,1108,203,449,-205,1,0,20,15,280,1,53298,1
2,32278,31057,33090,30346,32660,-2285,-1905,347,-558,-178,30,207,453,-203,1,0,20,15,320,1,53298,1
2,32333,31050,33185,30347,32653,-4064,190,-1795,-1931,2406,-1142,211,453,-207,1,0,20,15,360,1,53298,1
2,32325,31052,33254,30348,32648,-7367,-11,235,-4310,1337,-1335,208,450,-210,1,0,20,15,400,1,53298,1
2,32287,30991,33127,30349,32643,-4529,-334,-509,3714,111,-1051,214,448,-214,1,0,20,15,440,1,53298,1
2,32280,30989,33083,30350,32637,-3237,-1143,-1637,-2638,-1731,1424,211,445,-205,1,0,20,15,480,1,53298,1
2,32256,31030,33070,30351,32631,-2122,-2359,-691,319,-2274,1887,215,447,-209,1,0,20,15,520,1,53298,1
2,32238,31019,33099,30352,32624,-2425,-1700,-160,1222,310,148,212,446,-210,1,0,20,15,560,1,53298,1
2,32320,30987,33192,30353,32618,-6626,1211,-2118,2098,2259,-323,213,445,-215,1,0,20,15,600,1,53298,1
2,32342,30960,33208,30354,32612,-6802,192,-978,-204,-1595,-1004,215,443,-207,1,0,20,15,640,1,53298,1
2,32312,30967,33103,30355,32608,-4853,-998,-1656,1789,2133,-2137,218,448,-216,1,0,20,15,680,1,53298,1
2,32274,30970,33062,30356,32601,-2374,-1202,411,5941,1153,-245,208,456,-214,1,0,20,15,720,1,53298,1
2,32255,30954,33046,30357,32595,-1330,-1599,481,1453,-198,798,207,453,-209,1,0,20,15,760,1,53298,1
2,32273,30961,33066,30358,32588,-2390,-1098,253,113,-308,759,212,440,-212,1,0,20,15,800,1,53298,1
2,32409,31084,33215,30359,32582,-7300,-60,-8400,-7016,319,-648,208,452,-210,1,0,20,15,840,1,53298,1
2,32335,31063,33187,30360,32578,-6539,394,795,-1241,-2748,-283,211,457,-207,1,0,20,15,880,1,53298,1
2,32288,31010,33091,30361,32572,-3946,-607,-733,-155,1871,-852,208,460,-208,1,0,20,15,920,1,53298,1
2,32287,30959,33065,30362,32565,-2295,-1283,-987,1930,-1468,1996,213,449,-205,1,0,20,15,960,1,53298,1
1,32284,30931,33083,30363,0,-2197,-2315,-24,-1786,226,653,212,444,-218,1,0,20,16,0,1,53298,1
2,32340,31020,33169,30364,32159,-5079,-246,-1826,-845,2054,-113,203,439,-223,1,0,20,16,40,1,53298,1
2,32364,31072,33236,30365,32153,-6992,165,-1049,-3483,-2308,129,218,446,-204,1,0,20,16,80,1,53298,1
2,32340,31051,33125,30366,32148,-4807,-1257,-1705,723,-698,-854,209,443,-211,1,0,20,16,120,1,53298,1
2,32282,31010,33082,30367,32141,-2819,-1398,-649,4155,-38,422,210,448,-212,1,0,20,16,160,1,53298,1
2,32256,30929,33057,30368,32135,-1948,-1545,702,3144,440,481,207,447,-209,1,0,20,16,200,1,53298,1
2,32259,30930,33074,30369,32129,-2400,-1216,370,232,369,73,208,448,-208,1,0,20,16,240,1,53298,1
2,32355,31084,33166,30370,32122,-6733,-489,-4951,-1344,2605,-496,207,445,-217,1,0,20,16,280,1,53298,1
2,32316,31072,33201,30371,32117,-6185,852,895,-1040,-1203,-801,220,446,-214,1,0,20,16,320,1,53298,1
2,32315,31035,33108,30372,32112,-5090,-1031,-1622,1456,483,-1164,212,452,-218,1,0,20,16,360,1,53298,1
2,32284,31035,33061,30373,32106,-2680,-1419,-1232,3814,-1584,1302,205,443,-211,1,0,20,16,400,1,53298,1
2,32242,31033,33033,30374,32101,-2038,-1913,210,1856,-454,819,206,448,-214,1,0,20,16,440,1,53298,1
2,32240,31021,33056,30375,32094,-2425,-1333,359,393,-159,-391,203,453,-213,1,0,20,16,480,1,53298,1
2,32341,31057,33201,30376,32088,-6704,1843,-4779,-3468,1214,-1387,212,454,-212,1,0,20,16,520,1,53298,1
2,32324,31026,33223,30377,32083,-6614,0,1037,-1366,-1255,-1129,209,451,-209,1,0,20,16,560,1,53298,1
2,32271,31016,33105,30378,32077,-4045,-574,-317,-1861,878,-804,210,448,-214,1,0,20,16,600,1,53298,1
2,32280,31015,33064,30379,32070,-2851,-1148,-1494,-787,-1888,2044,213,443,-209,1,0,20,16,640,1,53298,1
2,32297,30998,33080,30380,32064,-2873,-2487,-1450,-3078,-643,1393,219,455,-205,1,0,20,16,680,1,53298,1
2,32283,30996,33131,30381,32059,-3971,-1554,-541,-1861,-223,-92,209,445,-203,1,0,20,16,720,1,53298,1
2,32321,31047,33211,30382,32053,-7659,1085,-2260,-1720,114,358,214,440,-210,1,0,20,16,760,1,53298,1
2,32353,31074,33174,30383,32049,-6308,-801,-1122,-817,-1951,-773,217,447,-203,1,0,20,16,800,1,53298,1
2,32293,31021,33088,30384,32044,-3300,-655,-509,1470,-169,-291,223,445,-199,1,0,20,16,840,1,53298,1
2,32257,31008,33035,30385,32038,-2131,-1272,419,3175,25,961,213,437,-199,1,0,20,16,880,1,53298,1
2,32243,31013,33035,30386,32032,-1750,-1846,122,-585,-330,758,208,446,-206,1,0,20,16,920,1,53298,1
2,32273,31063,33107,30387,32025,-3082,-1546,-407,-699,1833,-316,212,440,-208,1,0,20,16,960,1,53298,1
1,32332,31052,33230,30388,0,-12115,912,-5467,-4203,2879,-1121,212,456,-210,1,0,20,17,0,0,53298,1
2,32298,30999,33151,30389,31619,-5619,-536,33,3890,-2938,-269,213,455,-203,1,0,20,17,40,0,53298,1
2,32257,31018,33052,30390,31612,-3894,-905,-936,543,1334,41,214,450,-198,1,0,20,17,80,0,53298,1
2,32249,31023,33051,30391,31604,-2169,-1362,-885,903,-1912,1697,208,448,-206,1,0,20,17,120,0,53298,1
2,32254,31012,33063,30392,31597,-2358,-1935,32,-678,-134,490,214,444,-208,1,0,20,17,160,0,53298,1
2,32344,31005,33185,30393,31590,-5283,41,-3113,-2696,-361,-1111,213,449,-209,1,0,20,17,200,0,53298,1
2,32335,30967,33204,30394,31586,-6508,-359,-224,971,-309,-1324,210,450,-206,1,0,20,17,240,0,53298,1
2,32300,30936,33109,30395,31582,-5432,199,-1126,1081,1482,-1303,219,451,-207,1,0,20,17,280,0,53298,1
2,32240,30941,33051,30396,31576,-3002,-1233,-236,1263,-619,958,215,445,-201,1,0,20,17,320,0,53298,1
2,32201,31008,33006,30397,31571,-1667,-1980,41,-754,-3,1791,217,449,-203,1,0,20,17,360,0,53298,1
2,32243,31039,33050,30398,31564,-2746,-1589,-299,-258,1144,877,208,448,-206,1,0,20,17,400,0,53298,1
2,32339,31075,33190,30399,31559,-9075,578,-5932,-1950,2233,-348,212,448,-204,1,0,20,17,440,0,53298,1
2,32304,31064,33200,30400,31554,-5661,132,600,562,-3711,-455,216,446,-204,1,0,20,17,480,0,53298,1
2,32304,31059,33106,30401,31548,-5092,-720,-1467,-2126,1498,-1254,219,451,-217,1,0,20,17,520,0,53298,1
2,32276,31026,33078,30402,31542,-3490,-1672,-2129,1528,-1178,270,215,439,-207,1,0,20,17,560,0,53298,1
2,32242,31024,33059,30403,31536,-2413,-1552,1070,5770,1102,26,214,452,-212,1,0,20,17,600,0,53298,1
2,32213,30953,33059,30404,31531,-2083,-875,123,1457,182,-386,207,451,-211,1,0,20,17,640,0,53298,1
2,32277,31009,33107,30405,31526,-3944,-327,-377,591,846,-255,213,455,-211,1,0,20,17,680,0,53298,1
2,32355,31037,33235,30406,31521,-9825,-846,-2451,-4464,193,-1316,206,454,-214,1,0,20,17,720,0,53298,1
2,32282,31010,33141,30407,31515,-5417,-59,-484,1197,-272,-823,215,451,-207,1,0,20,17,760,0,53298,1
2,32242,30978,33056,30408,31508,-3313,-974,-587,1186,186,946,220,456,-208,1,0,20,17,800,0,53298,1
2,32229,30926,33031,30409,31501,-1935,-1985,-487,-1547,-1103,2168,210,438,-208,1,0,20,17,840,0,53298,1
2,32216,30855,33035,30410,31494,-2239,-2280,-104,-2110,331,1287,205,451,-211,1,0,20,17,880,0,53298,1
2,32304,30993,33190,30411,31487,-6606,800,-4029,-738,1701,-341,218,450,-214,1,0,20,17,920,0,53298,1
2,32306,30987,33201,30412,31480,-6259,432,171,-564,-2874,-250,219,445,-207,1,0,20,17,960,0,53298,1
1,32281,30974,33090,30413,0,-4705,-1187,-1768,-1177,1415,-1440,217,441,-207,1,0,20,18,0,0,53298,1
2,32232,30797,33041,30414,31077,-2565,-1627,-647,2259,-119,372,213,449,-207,1,0,20,18,40,0,53298,1
2,32208,30728,33022,30415,31070,-1928,-1439,388,1514,685,502,203,453,-207,1,0,20,18,80,0,53298,1
2,32222,30759,33039,30416,31064,-2501,-1021,209,1208,244,-1,216,448,-214,1,0,20,18,120,0,53298,1
2,32297,30896,33175,30417,31057,-5564,-682,-4598,-139,2211,-151,203,455,-207,1,0,20,18,160,0,53298,1
2,32299,31021,33215,30418,31052,-5591,640,891,-1766,-684,-805,208,446,-206,1,0,20,18,200,0,53298,1
2,32290,31002,33104,30419,31046,-4650,-678,-860,-208,-948,-1408,219,447,-213,1,0,20,18,240,0,53298,1
2,32265,30999,33066,30420,31040,-2904,-1025,-1105,-1228,-1249,1299,214,454,-208,1,0,20,18,280,0,53298,1
2,32242,30887,33052,30421,31034,-2270,-2220,-249,-1871,-738,1522,211,447,-207,1,0,20,18,320,0,53298,1
2,32247,30895,33090,30422,31028,-2825,-1646,-252,-123,477,311,208,452,-214,1,0,20,18,360,0,53298,1
2,32336,31059,33201,30423,31021,-7618,105,-3353,-131,1863,-4,214,446,-218,1,0,20,18,400,0,53298,1
2,32328,31070,33205,30424,31014,-5433,-140,-81,300,-2135,-437,214,454,-216,1,0,20,18,440,0,53298,1
2,32301,31056,33125,30425,31007,-4470,-768,-952,-2712,494,-1259,214,450,-212,1,0,20,18,480,0,53298,1
2,32289,31078,33104,30426,31000,-3404,-1150,-913,-75,-707,298,214,452,-210,1,0,20,18,520,0,53298,1
2,32262,31061,33079,30427,30993,-2787,-1521,-332,731,86,729,207,447,-219,1,0,20,18,560,0,53298,1
2,32270,31058,33089,30428,30986,-3180,-1020,-438,1931,624,401,211,451,-213,1,0,20,18,600,0,53298,1
2,32308,31059,33175,30429,30979,-6537,-171,-3259,-2689,664,44,217,449,-215,1,0,20,18,640,0,53298,1
2,32303,31055,33179,30430,30972,-5293,-458,349,746,-2079,-575,210,444,-204,1,0,20,18,680,0,53298,1
2,32306,31025,33136,30431,30966,-4688,-565,-1239,-1897,841,-1042,210,448,-208,1,0,20,18,720,0,53298,1
2,32305,31013,33127,30432,30961,-3988,-1108,-1313,-683,-1403,139,217,449,-203,1,0,20,18,760,0,53298,1
2,32237,30975,33097,30433,30955,-3383,-1415,-101,499,-495,434,214,442,-212,1,0,20,18,800,0,53298,1
2,32244,30995,33087,30434,30950,-3145,-1002,-698,1440,125,840,205,451,-207,1,0,20,18,840,0,53298,1
2,32288,31029,33167,30435,30944,-4986,-864,-1624,1488,1886,298,212,448,-216,1,0,20,18,880,0,53298,1
2,32283,31051,33191,30436,30937,-5830,-214,-739,710,532,-48,209,439,-211,1,0,20,18,920,0,53298,1
2,32322,31068,33163,30437,30931,-5565,-187,-1817,-840,-764,-724,219,455,-207,1,0,20,18,960,0,53298,1
1,32343,31047,33155,30438,0,-4691,-1139,-1450,-2756,-2287,-342,214,454,-206,1,0,20,19,0,0,53298,1
2,32295,31036,33111,30439,30537,-2883,-1162,339,1664,-774,388,220,446,-210,1,0,20,19,40,0,53298,1
2,32287,31019,33099,30440,30532,-2391,-924,-335,434,-391,1063,208,444,-204,1,0,20,19,80,0,53298,1
2,32265,30976,33106,30441,30527,-2562,-1711,-199,-59,641,352,208,450,-204,1,0,20,19,120,0,53298,1
2,32330,31105,33208,30442,30521,-7966,-430,-3400,817,4214,-944,213,453,-211,1,0,20,19,160,0,53298,1
2,32319,31099,33178,30443,30515,-5332,-129,-544,638,-1292,-810,214,448,-202,1,0,20,19,200,0,53298,1
2,32299,31080,33106,30444,30510,-4237,-668,-735,111,446,-988,211,449,-207,1,0,20,19,240,0,53298,1
2,32304,31067,33100,30445,30504,-3411,-1086,-1330,-1949,-1929,1335,215,445,-207,1,0,20,19,280,0,53298,1
2,32297,31079,33110,30446,30498,-3065,-1894,-485,-545,-1276,1140,206,452,-192,1,0,20,19,320,0,53298,1
2,32267,31009,33130,30447,30492,-3402,-439,-210,2259,840,686,214,440,-202,1,0,20,19,360,0,53298,1
2,32290,30974,33186,30448,30486,-6446,-238,-2028,2199,1736,859,203,449,-203,1,0,20,19,400,0,53298,1
2,32278,30916,33157,30449,30480,-4944,-459,-582,1859,352,-667,208,446,-216,1,0,20,19,440,0,53298,1
2,32275,30919,33135,30450,30474,-4538,-599,-1322,-2742,487,-1696,215,451,-217,1,0,20,19,480,0,53298,1
2,32317,30995,33158,30451,30469,-4505,-1003,-1137,-3079,-1171,-1156,213,447,-211,1,0,20,19,520,0,53298,1
2,32305,30974,33143,30452,30463,-3962,-1052,-729,797,-260,-188,211,449,-199,1,0,20,19,560,0,53298,1
2,32295,31014,33135,30453,30457,-3016,-1084,-493,1694,145,622,205,449,-211,1,0,20,19,600,0,53298,1
2,32271,30833,33153,30454,30452,-3837,-1013,-1053,481,1338,844,210,446,-222,1,0,20,19,640,0,53298,1
2,32249,31008,33180,30455,30445,-6263,-380,-1463,999,999,371,204,450,-204,1,0,20,19,680,0,53298,1
2,32214,30962,33119,30456,30439,-4525,-927,-648,2101,-310,-393,212,444,-210,1,0,20,19,720,0,53298,1
2,32232,31008,33114,30457,30432,-4247,-846,-1170,-2399,-225,-1010,210,444,-210,1,0,20,19,760,0,53298,1
2,32237,30970,33119,30458,30425,-4174,-1095,-806,-2330,-991,-581,216,442,-210,1,0,20,19,800,0,53298,1
2,32242,31011,33126,30459,30419,-3964,-927,-827,-260,-102,318,208,454,-216,1,0,20,19,840,0,53298,1
2,32285,30712,33171,30460,30413,-5002,-765,-1202,-57,304,716,213,451,-209,1,0,20,19,880,0,53298,1
2,32312,30959,33193,30461,30409,-5004,-669,-905,-2628,-1963,324,216,450,-210,1,0,20,19,920,0,53298,1
2,32318,30911,33166,30462,30404,-4175,-763,-825,84,-696,148,215,451,-209,1,0,20,19,960,0,53298,1
1,32290,30968,33147,30463,0,-3557,-1031,-783,1233,-118,-99,210,454,-218,1,0,20,20,0,0,53298,1
2,32306,30905,33155,30464,29997,-4422,-731,-886,479,884,-177,210,452,-212,1,0,20,20,40,0,53298,1
2,32313,30846,33180,30465,29992,-5022,-754,-1038,-1093,-314,-117,216,446,-210,1,0,20,20,80,0,53298,1
2,32285,30430,33157,30466,29987,-4120,-799,-866,972,45,301,210,450,-198,1,0,20,20,120,0,53298,1
2,32292,30863,33162,30467,29983,-4057,-1361,246,970,901,174,210,444,-204,1,0,20,20,160,0,53298,1
2,32366,30882,33209,30468,29979,-6378,-396,-2006,-4112,-1875,-292,216,452,-204,1,0,20,20,200,0,53298,1
2,32331,30930,33150,30469,29975,-5192,-633,-989,1627,-877,-225,219,447,-205,1,0,20,20,240,0,53298,1
2,32299,30950,33076,30470,29970,-3192,-1040,-396,3900,423,975,204,448,-214,1,0,20,20,280,0,53298,1
2,32294,31085,33085,30471,29964,-2207,-1579,-170,1371,-199,1146,206,452,-198,1,0,20,20,320,0,53298,1
2,32270,31116,33080,30472,29958,-2419,-1751,674,849,87,505,208,452,-204,1,0,20,20,360,0,53298,1
2,32329,31114,33165,30473,29952,-3432,-645,-1671,-528,1640,119,216,454,-216,1,0,20,20,400,0,53298,1
2,32362,31052,33256,30474,29946,-8033,312,-87,-5176,-36,-1018,200,444,-202,1,0,20,20,440,0,53298,1
2,32328,31008,33151,30475,29941,-4430,-676,-1043,1143,-387,-1238,221,451,-203,1,0,20,20,480,0,53298,1
2,32295,31022,33100,30476,29935,-2918,-1190,-1020,1214,368,286,208,456,-210,1,0,20,20,520,0,53298,1
2,32258,30980,33095,30477,29928,-2192,-2055,83,1076,-191,507,203,443,-211,1,0,20,20,560,0,53298,1
2,32275,30828,33150,30478,29921,-2728,-1165,-80,917,971,88,218,454,-208,1,0,20,20,600,0,53298,1
2,32386,30985,33265,30479,29914,-9521,397,-4223,-4626,-511,-609,217,449,-213,1,0,20,20,640,0,53298,1
2,32328,30927,33172,30480,29910,-5720,-825,-1211,1500,-1521,-1042,221,453,-209,1,0,20,20,680,0,53298,1
2,32270,30803,33074,30481,29904,-2805,-1428,-285,3775,1633,-37,212,446,-206,1,0,20,20,720,0,53298,1
2,32241,30837,33052,30482,29898,-1819,-1628,104,3297,477,1083,210,452,-218,1,0,20,20,760,0,53298,1
2,32243,30852,33063,30483,29890,-2098,-1629,690,985,-82,735,212,454,-198,1,0,20,20,800,0,53298,1
2,32339,30820,33190,30484,29883,-5073,-436,-3739,-1595,1586,541,209,447,-215,1,0,20,20,840,0,53298,1
2,32305,30987,33212,30485,29879,-6049,1018,421,-4452,-1844,-590,213,447,-215,1,0,20,20,880,0,53298,1
2,32292,30980,33102,30486,29873,-3990,-709,-646,732,244,-839,204,448,-208,1,0,20,20,920,0,53298,1
2,32276,31043,33089,30487,29866,-2465,-1260,-1007,748,-872,1346,205,451,-197,1,0,20,20,960,0,53298,1
1,32279,31030,33105,30488,0,-2296,-2197,-289,-1023,-302,659,205,449,-213,1,0,20,21,0,0,53298,1
2,32320,30957,33207,30489,29456,-6193,263,-1883,-57,1198,160,214,446,-214,1,0,20,21,40,0,53298,1
2,32314,30994,33208,30490,29450,-6298,-32,-469,-993,-1452,-275,203,439,-211,1,0,20,21,80,0,53298,1
2,32310,31079,33143,30491,29444,-4662,-680,-830,225,478,-325,214,446,-206,1,0,20,21,120,0,53298,1
2,32327,30839,33150,30492,29439,-4349,-958,-1688,-1747,-2136,-231,216,450,-212,1,0,20,21,160,0,53298,1
2,32308,30933,33120,30493,29434,-3087,-1333,113,2171,-375,-560,211,443,-207,1,0,20,21,200,0,53298,1
2,32279,30989,33094,30494,29429,-2513,-900,-258,2109,869,-379,217,443,-205,1,0,20,21,240,0,53298,1
2,32290,30784,33116,30495,29423,-2819,-1339,-441,1602,2508,-473,210,450,-206,1,0,20,21,280,0,53298,1
2,32303,31085,33191,30496,29417,-9244,-438,-2949,151,3625,-700,209,451,-217,1,0,20,21,320,0,53298,1
2,32304,31063,33155,30497,29412,-5443,-645,-1126,-551,-1985,-488,217,455,-217,1,0,20,21,360,0,53298,1
2,32294,31056,33122,30498,29407,-4085,-847,-1007,-2034,-905,-211,214,444,-218,1,0,20,21,400,0,53298,1
2,32275,31049,33095,30499,29402,-3024,-1469,-582,481,-1791,1442,205,447,-207,1,0,20,21,440,0,53298,1
2,32255,31036,33093,30500,29396,-2360,-1523,-346,-360,-603,1228,220,446,-206,1,0,20,21,480,0,53298,1
2,32249,31020,33119,30501,29389,-4049,-415,-825,1801,1439,518,202,448,-200,1,0,20,21,520,0,53298,1
2,32300,31053,33199,30502,29384,-7763,-33,-2263,-1382,818,-10,218,448,-214,1,0,20,21,560,0,53298,1
2,32327,31062,33170,30503,29379,-5436,-381,-806,-767,-2093,-1169,217,447,-201,1,0,20,21,600,0,53298,1
2,32301,31045,33111,30504,29374,-4276,-857,-1413,-1546,-123,-725,212,444,-206,1,0,20,21,640,0,53298,1
2,32262,31052,33065,30505,29369,-2910,-1648,-274,2224,-108,323,219,453,-207,1,0,20,21,680,0,53298,1
2,32221,31034,33058,30506,29364,-1848,-1625,162,1266,498,563,215,447,-211,1,0,20,21,720,0,53298,1
2,32245,31039,33096,30507,29358,-2866,-1162,260,1444,1064,271,208,440,-200,1,0,20,21,760,0,53298,1
2,32377,31090,33255,30508,29353,-9864,-140,-5787,-4987,100,-629,219,451,-203,1,0,20,21,800,0,53298,1
2,32321,31045,33174,30509,29349,-5960,-30,-472,661,-1832,-813,209,455,-203,1,0,20,21,840,0,53298,1
2,32271,31044,33069,30510,29344,-3387,-545,-641,3191,1735,-298,216,454,-204,1,0,20,21,880,0,53298,1
2,32215,31019,33027,30511,29338,-2243,-1419,-83,2188,-74,1057,204,440,-198,1,0,20,21,920,0,53298,1
2,32215,31070,33031,30512,29330,-2097,-1922,484,-472,-265,665,214,444,-210,1,0,20,21,960,0,53298,1
1,32349,31081,33157,30513,0,-5182,308,-2200,-3458,-706,129,209,451,-211,1,0,20,22,0,0,53298,1
2,32317,31044,33184,30514,28917,-7396,163,-388,-2620,-1120,-336,208,450,-210,1,0,20,22,40,0,53298,1
2,32283,31040,33100,30515,28912,-4185,-267,-125,2787,211,-122,216,452,-216,1,0,20,22,80,0,53298,1
2,32261,31073,33029,30516,28906,-2839,-882,-607,1789,-1159,1937,205,451,-207,1,0,20,22,120,0,53298,1
2,32277,31081,33021,30517,28900,-2331,-2080,-125,-104,-730,1554,208,450,-208,1,0,20,22,160,0,53298,1
2,32374,31109,33154,30518,28894,-6000,-704,-3552,-5445,671,69,212,446,-208,1,0,20,22,200,0,53298,1
2,32375,31086,33183,30519,28889,-6644,-357,-646,-2673,-1719,-1438,206,446,-190,1,0,20,22,240,0,53298,1
2,32285,30962,33094,30520,28885,-4156,225,-389,4966,2528,-2700,212,440,-202,1,0,20,22,280,0,53298,1
2,32263,30991,33061,30521,28880,-2495,-1091,106,5427,506,57,217,451,-211,1,0,20,22,320,0,53298,1
2,32250,31000,33066,30522,28873,-1755,-1635,293,651,366,555,209,451,-207,1,0,20,22,360,0,53298,1
2,32328,31082,33128,30523,28866,-4951,-662,-524,-2076,817,352,217,447,-209,1,0,20,22,400,0,53298,1
2,32386,31048,33218,30524,28861,-9043,-486,-2290,-4257,-903,-491,216,450,-210,1,0,20,22,440,0,53298,1
2,32307,31014,33125,30525,28856,-4930,-439,-875,3300,-208,-816,214,452,-206,1,0,20,22,480,0,53298,1
2,32272,30990,33064,30526,28849,-2654,-1261,-170,3609,795,400,213,447,-217,1,0,20,22,520,0,53298,1
2,32272,31046,33064,30527,28843,-1600,-1648,176,387,-37,592,207,449,-215,1,0,20,22,560,0,53298,1
2,32325,31041,33102,30528,28837,-2740,-1745,684,-374,633,410,206,450,-212,1,0,20,22,600,0,53298,1
2,32417,31086,33236,30529,28832,-10263,-1293,-5783,-5882,842,-645,212,450,-208,1,0,20,22,640,0,53298,1
2,32335,31023,33143,30530,28828,-5591,-194,-444,2166,-2323,-347,216,442,-212,1,0,20,22,680,0,53298,1
2,32276,30980,33051,30531,28821,-2899,-818,-185,3782,1392,181,205,453,-207,1,0,20,22,720,0,53298,1
2,32259,30998,33026,30532,28815,-1782,-1567,-109,516,-507,1508,215,449,-211,1,0,20,22,760,0,53298,1
2,32275,31016,33053,30533,28808,-2157,-1930,-14,-1505,501,989,199,447,-213,1,0,20,22,800,0,53298,1
2,32382,31036,33190,30534,28801,-7564,933,-5126,-3709,1244,-542,209,443,-213,1,0,20,22,840,0,53298,1
2,32370,31016,33187,30535,28796,-6713,533,31,-792,-3283,-484,211,447,-205,1,0,20,22,880,0,53298,1
2,32313,30972,33091,30536,28791,-4188,-26,-796,2529,1240,-972,209,443,-213,1,0,20,22,920,0,53298,1
2,32288,31022,33022,30537,28785,-2637,-764,-161,3122,-1589,1617,197,445,-205,1,0,20,22,960,0,53298,1
1,32290,31044,33015,30538,0,-1693,-1973,372,-1747,-1272,1529,216,450,-200,1,0,20,23,0,1,53298,1
2,32391,31063,33080,30539,28376,-4746,-1496,-797,-4319,-330,991,212,446,-204,1,0,20,23,40,1,53298,1
2,32417,31026,33183,30540,28371,-8507,-543,-2921,-4700,-947,-878,209,439,-199,1,0,20,23,80,1,53298,1
2,32298,30918,33074,30541,28366,-5049,631,-89,6979,1739,-2168,206,448,-202,1,0,20,23,120,1,53298,1
2,32230,30883,32988,30542,28360,-2881,-584,183,6889,1822,62,207,455,-209,1,0,20,23,160,1,53298,1
2,32264,30947,33016,30543,28352,-1806,-1551,255,799,176,563,213,449,-199,1,0,20,23,200,1,53298,1
2,32278,31064,33052,30544,28346,-2774,-1784,555,-1905,243,95,206,448,-206,1,0,20,23,240,1,53298,1
2,32400,31130,33180,30545,28339,-7032,1800,-5531,-4931,977,-295,219,447,-205,1,0,20,23,280,1,53298,1
2,32328,31060,33150,30546,28334,-6450,450,-229,192,-1631,-512,215,443,-205,1,0,20,23,320,1,53298,1
2,32262,31062,33043,30547,28328,-3482,-601,-103,1538,1113,-32,213,451,-215,1,0,20,23,360,1,53298,1
2,32261,31061,33019,30548,28320,-2324,-1048,-691,-665,-1318,2125,201,447,-197,1,0,20,23,400,1,53298,1
2,32343,31068,33067,30549,28312,-3676,-2238,-15,-3740,-842,1064,208,446,-206,1,0,20,23,440,1,53298,1
2,32393,31110,33173,30550,28306,-7261,-916,-2683,-4914,-1440,-831,217,449,-211,1,0,20,23,480,1,53298,1
2,32355,31051,33114,30551,28302,-5753,-46,-915,5047,1266,-2242,205,447,-205,1,0,20,23,520,1,53298,1
2,32262,30988,33042,30552,28296,-3516,-237,41,5651,1726,-1081,203,447,-217,1,0,20,23,560,1,53298,1
2,32242,30988,33022,30553,28290,-2081,-1376,413,655,600,267,209,451,-205,1,0,20,23,600,1,53298,1
2,32297,31034,33063,30554,28284,-2528,-1394,53,-2017,912,659,208,452,-214,1,0,20,23,640,1,53298,1
2,32380,31036,33183,30555,28277,-8075,-320,-5935,-6190,838,-664,212,446,-210,1,0,20,23,680,1,53298,1
2,32349,31017,33136,30556,28271,-6380,243,-223,1742,-2748,-42,218,450,-214,1,0,20,23,720,1,53298,1
2,32274,31027,33040,30557,28265,-3942,-434,-890,3755,1605,-400,204,446,-202,1,0,20,23,760,1,53298,1
2,32253,31030,33015,30558,28258,-2594,-1149,-165,3022,-514,985,215,447,-215,1,0,20,23,800,1,53298,1
2,32247,31070,33034,30559,28250,-2113,-1817,306,-1364,-207,314,206,444,-202,1,0,20,23,840,1,53298,1
2,32354,31122,33124,30560,28243,-5192,-686,-1431,-2564,906,-336,216,454,-212,1,0,20,23,880,1,53298,1
2,32386,31107,33175,30561,28238,-8010,-170,-1487,-3382,-1384,-779,210,444,-206,1,0,20,23,920,1,53298,1
2,32286,31040,33072,30562,28232,-4517,-148,-721,3989,799,-915,209,447,-219,1,0,20,23,960,1,53298,1
1,32253,31007,33020,30563,0,-2569,-1154,-69,3112,263,710,210,446,-212,1,0,20,24,0,0,53298,1
2,32242,31016,33034,30564,27838,-1876,-1816,288,-1324,-222,649,214,440,-204,1,0,20,24,40,0,53298,1
2,32322,31058,33099,30565,27831,-3048,-1523,-427,-2290,1135,390,210,448,-212,1,0,20,24,80,0,53298,1
2,32350,31077,33195,30566,27825,-9989,-730,-3521,-4009,1100,-246,215,451,-211,1,0,20,24,120,0,53298,1
2,32313,31068,33102,30567,27819,-4775,-347,-336,3164,-2911,246,210,442,-198,1,0,20,24,160,0,53298,1
2,32277,31061,33045,30568,27812,-3380,-936,-799,720,686,209,205,447,-207,1,0,20,24,200,0,53298,1
2,32281,31085,33068,30569,27805,-2817,-1732,-258,12,-1046,677,214,452,-208,1,0,20,24,240,0,53298,1
2,32339,31091,33120,30570,27798,-4063,-1340,-1498,-3468,-501,-286,213,439,-203,1,0,20,24,280,0,53298,1
2,32340,31090,33148,30571,27792,-5582,-302,-1043,259,88,-937,208,452,-208,1,0,20,24,320,0,53298,1
2,32327,31074,33122,30572,27787,-4496,-560,-595,1712,905,-511,208,450,-202,1,0,20,24,360,0,53298,1
2,32356,31063,33132,30573,27782,-5466,-486,-2050,-1852,-824,-275,209,449,-203,1,0,20,24,400,0,53298,1
2,32328,31033,33101,30574,27778,-4064,-864,-513,1266,-1111,-72,213,445,-191,1,0,20,24,440,0,53298,1
2,32310,31028,33065,30575,27772,-2968,-992,44,2251,104,327,207,451,-193,1,0,20,24,480,0,53298,1
2,32271,31030,33056,30576,27767,-2340,-1532,53,299,-248,417,205,447,-207,1,0,20,24,520,0,53298,1
2,32297,31077,33088,30577,27760,-3142,-1418,-491,-886,1802,251,210,446,-206,1,0,20,24,560,0,53298,1
2,32340,31127,33194,30578,27753,-10089,-573,-3852,-2679,3636,-359,218,448,-214,1,0,20,24,600,0,53298,1
2,32328,30990,33141,30579,27747,-5484,5,-718,502,-3794,434,209,441,-205,1,0,20,24,640,0,53298,1
2,32309,30977,33063,30580,27740,-3825,-661,-1028,-140,1,66,203,449,-209,1,0,20,24,680,0,53298,1
2,32291,31066,33043,30581,27734,-2893,-1524,-344,968,-1802,1241,212,444,-204,1,0,20,24,720,0,53298,1
2,32269,31057,33046,30582,27727,-2246,-1767,-309,-946,-318,671,209,443,-205,1,0,20,24,760,0,53298,1
2,32321,31076,33136,30583,27720,-4687,-803,-634,479,2184,-335,206,450,-202,1,0,20,24,800,0,53298,1
2,32350,31054,33196,30584,27714,-7585,93,-1480,-4398,-668,-538,209,449,-211,1,0,20,24,840,0,53298,1
2,32319,31017,33093,30585,27709,-4728,-712,-1118,1303,-337,-799,205,445,-207,1,0,20,24,880,0,53298,1
2,32276,31021,33075,30586,27703,-3315,-1115,-793,2117,831,-187,212,448,-208,1,0,20,24,920,0,53298,1
2,32266,31038,33072,30587,27696,-2472,-1639,-184,915,-152,340,204,450,-202,1,0,20,24,960,0,53298,1
1,32267,31054,33104,30588,0,-2848,-1315,16,985,870,258,213,451,-211,1,0,20,25,0,1,53298,1
2,32344,30945,33188,30589,27299,-7697,364,-3024,-337,1347,570,216,460,-210,1,0,20,25,40,1,53298,1
2,32335,31035,33176,30590,27293,-6136,6,-711,-1925,-2743,-297,210,446,-208,1,0,20,25,80,1,53298,1
2,32295,31022,33090,30591,27288,-3954,-789,-962,-340,-392,-341,206,452,-204,1,0,20,25,120,1,53298,1
2,32268,31037,33061,30592,27282,-2644,-1309,-276,1829,-599,683,210,444,-200,1,0,20,25,160,1,53298,1
2,32264,31092,33067,30593,27275,-2020,-1697,-67,-20,14,369,217,447,-207,1,0,20,25,200,1,53298,1
2,32319,31035,33113,30594,27268,-3448,-1001,-580,1104,2103,-164,215,449,-217,1,0,20,25,240,1,53298,1
2,32349,30999,33202,30595,27261,-8993,-450,-3431,-3140,1546,-748,210,454,-202,1,0,20,25,280,1,53298,1
2,32339,30968,33125,30596,27256,-5107,-288,-455,666,-2519,-977,215,447,-215,1,0,20,25,320,1,53298,1
2,32298,30963,33076,30597,27250,-3369,-877,-881,1041,796,-528,199,445,-211,1,0,20,25,360,1,53298,1
2,32282,30950,33078,30598,27244,-2569,-1738,-357,868,-330,169,216,446,-208,1,0,20,25,400,1,53298,1
2,32281,30983,33110,30599,27238,-2576,-1547,-20,673,1023,152,213,447,-217,1,0,20,25,440,1,53298,1
2,32375,30991,33211,30600,27231,-8290,317,-4021,-2908,1445,171,210,452,-210,1,0,20,25,480,1,53298,1
2,32351,30956,33167,30601,27226,-5409,-146,-160,182,-2853,-6,216,442,-210,1,0,20,25,520,1,53298,1
2,32315,30939,33110,30602,27220,-3322,-1093,-933,503,874,-493,213,451,-207,1,0,20,25,560,1,53298,1
2,32303,30935,33112,30603,27214,-2656,-1494,-465,1380,63,-354,211,447,-207,1,0,20,25,600,1,53298,1
2,32294,30944,33142,30604,27208,-2845,-1166,-157,1393,1550,-434,212,444,-212,1,0,20,25,640,1,53298,1
2,32353,30957,33207,30605,27202,-8703,364,-3151,-1117,2419,-177,217,447,-207,1,0,20,25,680,1,53298,1
2,32316,30942,33161,30606,27197,-4861,-529,-511,173,-2452,-476,209,447,-215,1,0,20,25,720,1,53298,1
2,32290,30925,33089,30607,27191,-3312,-1007,-786,-397,344,305,210,450,-200,1,0,20,25,760,1,53298,1
2,32287,30940,33093,30608,27184,-2745,-1745,-645,410,-784,857,211,445,-207,1,0,20,25,800,1,53298,1
2,32320,30960,33147,30609,27177,-4638,-822,-1284,-324,857,474,212,442,-212,1,0,20,25,840,1,53298,1
2,32323,31003,33179,30610,27171,-5898,-147,-1005,-685,-416,264,215,453,-209,1,0,20,25,880,1,53298,1
2,32322,30991,33148,30611,27165,-4922,-625,-1226,-354,-181,-469,213,447,-213,1,0,20,25,920,1,53298,1
2,32325,30989,33141,30612,27160,-4546,-728,-1195,-1420,-1020,-506,212,450,-216,1,0,20,25,960,1,53298,1
1,32317,30967,33120,30613,0,-3957,-815,-595,529,-840,-159,212,454,-206,1,0,20,26,0,0,53298,1
2,32324,30981,33108,30614,26761,-3958,-961,-885,353,-437,427,216,446,-208,1,0,20,26,40,0,53298,1
2,32320,30976,33109,30615,26755,-3988,-1146,-958,-1145,-633,307,207,447,-201,1,0,20,26,80,0,53298,1
2,32261,30921,33087,30616,26749,-3353,-859,-396,141,-262,250,216,446,-204,1,0,20,26,120,0,53298,1
2,32288,30963,33127,30617,26742,-3720,-1121,-858,954,1314,199,205,447,-211,1,0,20,26,160,0,53298,1
2,32296,30959,33175,30618,26736,-6804,-680,-2165,-3970,704,-542,215,445,-201,1,0,20,26,200,0,53298,1
2,32291,30923,33121,30619,26730,-4919,-377,-511,472,-1327,-488,216,446,-204,1,0,20,26,240,0,53298,1
2,32317,30916,33115,30620,26724,-5058,-898,-1695,-367,-87,-449,216,448,-206,1,0,20,26,280,0,53298,1
2,32290,30915,33085,30621,26720,-3734,-1117,-556,1468,-709,-83,212,448,-210,1,0,20,26,320,0,53298,1
2,32272,30885,33053,30622,26715,-2913,-1164,-70,1695,620,335,205,449,-215,1,0,20,26,360,0,53298,1
2,32236,30892,33044,30623,26709,-2239,-1389,154,646,-74,284,211,445,-207,1,0,20,26,400,0,53298,1
2,32343,30912,33121,30624,26702,-5318,-456,-1073,-2507,844,415,223,443,-209,1,0,20,26,440,0,53298,1
2,32348,30891,33185,30625,26697,-7621,-632,-1753,-3916,-800,-297,214,450,-206,1,0,20,26,480,0,53298,1
2,32296,30868,33098,30626,26691,-4588,-166,-465,2483,-446,199,208,454,-204,1,0,20,26,520,0,53298,1
2,32276,30879,33066,30627,26685,-3087,-1042,-725,2044,-924,1347,204,444,-194,1,0,20,26,560,0,53298,1
2,32250,30893,33054,30628,26679,-2253,-2010,-117,-127,-435,852,209,455,-209,1,0,20,26,600,0,53298,1
2,32339,30966,33166,30629,26672,-5744,-195,-2220,-2147,1548,198,216,448,-206,1,0,20,26,640,0,53298,1
2,32351,30951,33192,30630,26667,-7219,519,-671,-2820,-2157,-586,213,443,-203,1,0,20,26,680,0,53298,1
2,32289,30961,33079,30631,26662,-4425,-467,-1242,2126,1082,-1297,209,445,-197,1,0,20,26,720,0,53298,1
2,32262,30993,33043,30632,26657,-2584,-1158,-143,4502,474,172,218,452,-204,1,0,20,26,760,0,53298,1
2,32253,31065,33052,30633,26651,-1675,-1746,167,1317,329,76,214,454,-202,1,0,20,26,800,0,53298,1
2,32305,31101,33126,30634,26643,-3668,-1387,1192,450,1444,-80,205,445,-211,1,0,20,26,840,0,53298,1
2,32366,31069,33216,30635,26637,-9575,-1001,-3892,-5774,-64,-551,215,449,-205,1,0,20,26,880,0,53298,1
2,32305,31025,33101,30636,26632,-4766,-271,-359,2261,-1412,28,212,450,-206,1,0,20,26,920,0,53298,1
2,32274,31021,33057,30637,26626,-3065,-1055,-631,2637,549,679,213,443,-211,1,0,20,26,960,0,53298,1
1,32265,31045,33056,30638,0,-2200,-2003,-297,793,-744,614,208,454,-212,1,0,20,27,0,0,53298,1
2,32301,31050,33125,30639,26221,-3777,-1494,-55,-1473,852,-117,211,455,-201,1,0,20,27,40,0,53298,1
2,32378,31027,33202,30640,26215,-8110,-198,-2915,-4166,-655,-389,211,451,-205,1,0,20,27,80,0,53298,1
2,32314,30974,33124,30641,26210,-4834,-416,-541,2541,-483,-358,212,454,-208,1,0,20,27,120,0,53298,1
2,32274,30924,33060,30642,26204,-3075,-932,-335,2286,-242,1282,195,445,-207,1,0,20,27,160,0,53298,1
2,32261,30961,33046,30643,26198,-2184,-1867,-337,-712,-956,1481,208,450,-204,1,0,20,27,200,0,53298,1
2,32291,30976,33119,30644,26192,-3029,-1782,-657,-1148,1162,617,199,449,-205,1,0,20,27,240,0,53298,1
2,32374,30990,33222,30645,26185,-8994,-319,-3165,-5159,-249,-167,202,450,-208,1,0,20,27,280,0,53298,1
2,32316,30908,33123,30646,26181,-5546,-1210,-1403,1966,-1856,-978,210,450,-200,1,0,20,27,320,0,53298,1
2,32257,30920,33022,30647,26176,-2580,-1059,-193,4943,994,-201,209,447,-211,1,0,20,27,360,0,53298,1
2,32245,30938,33030,30648,26169,-1648,-1638,397,2622,268,67,204,440,-210,1,0,20,27,400,0,53298,1
2,32286,30962,33075,30649,26162,-2394,-1878,837,-527,718,-232,216,444,-214,1,0,20,27,440,0,53298,1
2,32389,30944,33210,30650,26155,-8654,-777,-6355,-6602,602,-637,202,452,-204,1,0,20,27,480,0,53298,1
2,32315,30898,33125,30651,26151,-5810,-186,-466,1583,-1141,-686,204,456,-208,1,0,20,27,520,0,53298,1
2,32260,30902,33039,30652,26145,-2787,-697,-39,4035,1403,157,216,446,-204,1,0,20,27,560,0,53298,1
2,32250,30890,33035,30653,26139,-1635,-1552,-233,1050,-860,1372,206,454,-216,1,0,20,27,600,0,53298,1
2,32328,30974,33104,30654,26132,-2731,-2622,1644,-1855,684,459,213,445,-203,1,0,20,27,640,0,53298,1
2,32374,30744,33205,30655,26128,-9857,-506,-3726,-6999,-1121,-796,207,447,-207,1,0,20,27,680,0,53298,1
2,32303,30837,33100,30656,26125,-5222,-128,-605,4269,-173,-1242,204,446,-212,1,0,20,27,720,0,53298,1
2,32273,30876,33038,30657,26120,-2881,-871,-103,5114,451,653,215,451,-211,1,0,20,27,760,0,53298,1
2,32264,30976,33032,30658,26114,-1631,-1654,31,1202,-748,1120,206,452,-200,1,0,20,27,800,0,53298,1
2,32331,31004,33096,30659,26108,-3049,-2271,981,-1802,447,429,208,446,-198,1,0,20,27,840,0,53298,1
2,32376,30973,33199,30660,26103,-8738,-379,-4160,-7268,2,-654,212,448,-202,1,0,20,27,880,0,53298,1
2,32315,30949,33116,30661,26098,-5360,-486,-610,3306,-723,-602,210,448,-202,1,0,20,27,920,0,53298,1
2,32255,30900,33048,30662,26092,-3035,-635,-202,3894,1074,221,207,451,-207,1,0,20,27,960,0,53298,1
1,32253,30913,33048,30663,0,-2201,-1654,-297,1364,-230,857,209,449,-209,1,0,20,28,0,0,53298,1
2,32343,30923,33134,30664,25684,-4468,-1332,-619,-2946,1176,-309,210,456,-204,1,0,20,28,40,0,53298,1
2,32373,30937,33201,30665,25679,-8039,-267,-1604,-4779,-1478,-577,213,447,-201,1,0,20,28,80,0,53298,1
2,32318,30882,33089,30666,25674,-4466,-441,-763,3923,369,-784,210,446,-206,1,0,20,28,120,0,53298,1
2,32270,30867,33046,30667,25669,-2619,-1073,-14,3640,205,607,208,456,-212,1,0,20,28,160,0,53298,1
2,32254,30874,33040,30668,25662,-2059,-1627,93,-518,8,591,206,438,-208,1,0,20,28,200,0,53298,1
2,32364,30997,33139,30669,25656,-5467,-377,-2028,-2329,1465,133,213,451,-201,1,0,20,28,240,0,53298,1
2,32325,30914,33159,30670,25652,-7492,-177,-1098,-3887,-1205,-461,211,447,-203,1,0,20,28,280,0,53298,1
2,32270,30877,33048,30671,25647,-4161,-642,-607,3156,106,-582,206,440,-204,1,0,20,28,320,0,53298,1
2,32239,30925,33020,30672,25641,-2643,-1041,-247,2706,-127,1043,209,441,-201,1,0,20,28,360,0,53298,1
2,32266,30963,33042,30673,25635,-2230,-1635,139,-251,5,877,208,448,-204,1,0,20,28,400,0,53298,1
2,32380,30984,33170,30674,25629,-6202,437,-4476,-4299,78,-72,205,451,-207,1,0,20,28,440,0,53298,1
2,32362,30963,33157,30675,25625,-6607,-95,-545,-564,-1559,-939,211,447,-207,1,0,20,28,480,0,53298,1
2,32289,30904,33043,30676,25621,-3910,68,-354,3820,1322,-1017,209,455,-209,1,0,20,28,520,0,53298,1
2,32266,30957,33011,30677,25616,-2628,-997,46,3696,-353,494,210,450,-212,1,0,20,28,560,0,53298,1
2,32275,31020,33025,30678,25610,-2067,-1634,413,-231,-211,527,209,451,-203,1,0,20,28,600,0,53298,1
2,32398,31070,33131,30679,25604,-5337,-538,-2822,-3397,623,827,201,447,-199,1,0,20,28,640,0,53298,1
2,32352,31005,33145,30680,25601,-6947,-588,-1287,-2592,-628,-871,206,452,-188,1,0,20,28,680,0,53298,1
2,32301,30979,33079,30681,25597,-4306,71,-185,3773,1091,-1532,202,452,-214,1,0,20,28,720,0,53298,1
2,32289,30988,33042,30682,25592,-3104,-553,-262,4497,-110,446,205,453,-207,1,0,20,28,760,0,53298,1
2,32288,31041,33071,30683,25586,-2311,-1757,44,-447,-715,595,209,449,-203,1,0,20,28,800,0,53298,1
2,32363,31091,33136,30684,25579,-5159,-701,-702,-4598,561,284,202,446,-204,1,0,20,28,840,0,53298,1
2,32391,31065,33195,30685,25575,-7295,-538,-1841,-4057,-846,-85,212,450,-208,1,0,20,28,880,0,53298,1
2,32318,31020,33116,30686,25570,-4476,-385,-420,2688,-33,-431,211,451,-213,1,0,20,28,920,0,53298,1
2,32315,31033,33085,30687,25565,-3322,-640,-438,2654,225,441,205,443,-215,1,0,20,28,960,0,53298,1
1,32304,31084,33063,30688,0,-2639,-1696,-247,-722,-318,556,207,451,-203,1,0,20,29,0,0,53298,1
2,32355,31114,33119,30689,25146,-4587,-1521,-539,-2758,1480,198,196,442,-198,1,0,20,29,40,0,53298,1
2,32384,31060,33178,30690,25141,-7074,-267,-1928,-4664,-1020,-391,211,449,-197,1,0,20,29,80,0,53298,1
2,32341,31028,33093,30691,25137,-4820,-219,-579,3769,-727,-740,209,443,-191,1,0,20,29,120,0,53298,1
2,32322,31001,33030,30692,25132,-3121,-907,-388,4803,51,628,202,438,-214,1,0,20,29,160,0,53298,1
2,32302,31047,33035,30693,25126,-2167,-2154,-645,-144,-89,462,207,447,-209,1,0,20,29,200,0,53298,1
2,32333,31109,33082,30694,25120,-2799,-1988,-143,-896,1598,-688,216,448,-210,1,0,20,29,240,0,53298,1
2,32395,31077,33204,30695,25114,-8118,221,-3938,-5336,1094,-810,207,445,-209,1,0,20,29,280,0,53298,1
2,32359,31057,33125,30696,25110,-5579,-405,-509,2580,-2106,10,206,448,-206,1,0,20,29,320,0,53298,1
2,32301,31018,33056,30697,25104,-3595,-553,-671,3529,1496,-327,211,447,-205,1,0,20,29,360,0,53298,1
2,32296,31019,33052,30698,25097,-2633,-1462,-434,1040,-923,751,209,457,-207,1,0,20,29,400,0,53298,1
2,32275,31028,33075,30699,25089,-2481,-1716,-59,-1318,437,290,204,448,-210,1,0,20,29,440,0,53298,1
2,32351,31030,33164,30700,25083,-7373,370,-2676,-1507,2136,270,209,449,-207,1,0,20,29,480,0,53298,1
2,32344,31031,33159,30701,25077,-5910,57,-434,-1465,-2589,-65,206,440,-198,1,0,20,29,520,0,53298,1
2,32296,30991,33073,30702,25072,-3763,-624,-771,429,245,-250,208,450,-204,1,0,20,29,560,0,53298,1
2,32284,30993,33060,30703,25064,-2889,-1433,-796,399,-512,622,203,453,-205,1,0,20,29,600,0,53298,1
2,32282,30994,33078,30704,25057,-2621,-1799,-425,-538,201,164,206,444,-216,1,0,20,29,640,0,53298,1
2,32315,30995,33147,30705,25049,-5438,-217,-1476,1016,1979,128,205,451,-213,1,0,20,29,680,0,53298,1
2,32335,30994,33168,30706,25043,-6114,-481,-1696,-1993,-677,-339,203,449,-217,1,0,20,29,720,0,53298,1
2,32310,30963,33103,30707,25038,-4334,-552,-650,-241,-1155,-803,215,449,-215,1,0,20,29,760,0,53298,1
2,32308,30960,33086,30708,25032,-3483,-1034,-729,467,-45,-155,205,451,-201,1,0,20,29,800,0,53298,1
2,32294,30953,33084,30709,25026,-2900,-1657,-661,87,-160,181,208,448,-204,1,0,20,29,840,0,53298,1
2,32280,30968,33103,30710,25020,-3891,-934,-810,1468,1483,121,215,443,-209,1,0,20,29,880,0,53298,1
2,32271,30979,33130,30711,25012,-6340,-241,-1689,1579,1464,429,212,442,-214,1,0,20,29,920,0,53298,1
2,32296,30967,33114,30712,25006,-5075,-548,-1332,-604,-675,-272,214,446,-208,1,0,20,29,960,0,53298,1
1,32322,30961,33128,30713,0,-4382,-856,-1131,-3354,-1547,-504,207,443,-205,1,0,20,30,0,1,53298,1
2,32318,30954,33111,30714,24608,-3725,-1131,-640,-92,-1095,179,211,451,-209,1,0,20,30,40,1,53298,1
2,32281,30967,33096,30715,24601,-3248,-1187,-705,624,90,411,207,451,-205,1,0,20,30,80,1,53298,1
2,32266,30991,33104,30716,24595,-3582,-956,-564,1913,1090,480,210,448,-220,1,0,20,30,120,1,53298,1
2,32270,30991,33142,30717,24589,-6014,-580,-1905,880,2054,287,212,452,-214,1,0,20,30,160,1,53298,1
2,32275,31000,33130,30718,24583,-5150,-654,-1003,-750,-552,-439,214,444,-208,1,0,20,30,200,1,53298,1
2,32320,30971,33138,30719,24577,-4585,-849,-899,-3382,-1585,-924,218,452,-202,1,0,20,30,240,1,53298,1
2,32335,30971,33122,30720,24571,-4375,-1106,-1157,-972,-1397,-193,215,453,-213,1,0,20,30,280,1,53298,1
2,32314,30945,33100,30721,24565,-3384,-1069,-452,1773,-252,50,212,448,-216,1,0,20,30,320,1,53298,1
2,32284,30937,33083,30722,24560,-2710,-1107,-255,1314,96,139,217,445,-207,1,0,20,30,360,1,53298,1
2,32291,30985,33105,30723,24554,-2971,-1360,-505,840,1743,200,208,442,-206,1,0,20,30,400,1,53298,1
2,32333,31007,33188,30724,24546,-8809,87,-3313,-1570,2580,-276,204,452,-210,1,0,20,30,440,1,53298,1
2,32316,30988,33148,30725,24541,-5416,-344,-722,-1029,-3095,-292,212,450,-218,1,0,20,30,480,1,53298,1
2,32306,30951,33101,30726,24535,-4056,-505,-1081,-832,-317,33,213,451,-211,1,0,20,30,520,1,53298,1
2,32292,30943,33071,30727,24528,-3087,-1623,-636,774,-1800,1185,209,447,-209,1,0,20,30,560,1,53298,1
2,32260,30955,33060,30728,24522,-2528,-1678,-568,-734,-131,427,210,450,-204,1,0,20,30,600,1,53298,1
2,32308,31012,33119,30729,24516,-4125,-1021,620,1825,1995,-356,205,447,-217,1,0,20,30,640,1,53298,1
2,32351,30939,33192,30730,24510,-7397,-97,-1869,-4375,-189,-491,212,450,-208,1,0,20,30,680,1,53298,1
2,32322,30895,33116,30731,24506,-4866,-542,-869,1355,-656,-717,214,452,-214,1,0,20,30,720,1,53298,1
2,32297,30914,33076,30732,24500,-3308,-895,-629,2121,498,6,209,445,-205,1,0,20,30,760,1,53298,1
2,32281,30991,33065,30733,24493,-2485,-1715,-288,618,-557,515,215,451,-203,1,0,20,30,800,1,53298,1
2,32283,31003,33078,30734,24486,-2852,-1576,-155,458,980,384,209,441,-207,1,0,20,30,840,1,53298,1
2,32354,31097,33201,30735,24479,-7886,-167,-2535,12,2326,358,210,450,-208,1,0,20,30,880,1,53298,1
2,32321,31084,33176,30736,24472,-5319,-183,-630,-1402,-2348,-184,207,451,-191,1,0,20,30,920,1,53298,1
2,32305,31079,33114,30737,24466,-3783,-706,-655,-605,-14,-469,202,456,-206,1,0,20,30,960,1,53298,1
1,32306,31066,33102,30738,0,-3301,-1286,-881,367,-712,505,215,449,-215,1,0,20,31,0,1,53298,1
2,32324,31075,33133,30739,24070,-3524,-1506,-194,-485,110,419,203,447,-205,1,0,20,31,40,1,53298,1
2,32330,31063,33174,30740,24064,-5711,-337,-1617,-2447,-295,151,206,446,-196,1,0,20,31,80,1,53298,1
2,32313,31053,33139,30741,24059,-4637,-493,-615,716,-780,-61,208,456,-208,1,0,20,31,120,1,53298,1
2,32318,31057,33127,30742,24052,-4081,-755,-895,145,564,-416,205,441,-205,1,0,20,31,160,1,53298,1
2,32338,31065,33145,30743,24047,-4451,-1040,-1085,-699,-349,-378,216,452,-198,1,0,20,31,200,1,53298,1
2,32331,31048,33141,30744,24041,-4523,-743,-849,21,-180,-192,207,457,-213,1,0,20,31,240,1,53298,1
2,32302,31029,33114,30745,24035,-3855,-741,-658,737,-217,389,209,447,-199,1,0,20,31,280,1,53298,1
2,32275,31053,33114,30746,24029,-3247,-1263,-556,459,97,516,219,453,-209,1,0,20,31,320,1,53298,1
2,32285,31074,33138,30747,24023,-4417,-886,-1280,1038,1662,265,217,447,-217,1,0,20,31,360,1,53298,1
2,32278,31079,33154,30748,24015,-5960,-279,-1030,1512,1073,105,206,444,-216,1,0,20,31,400,1,53298,1
2,32325,31075,33167,30749,24008,-5326,-468,-1537,-2131,-760,-404,206,450,-202,1,0,20,31,440,1,53298,1
2,32335,31060,33144,30750,24002,-4836,-676,-1099,-2816,-2229,-255,211,451,-205,1,0,20,31,480,1,53298,1
