sensorStatus,cap1,cap2,cap3,counter,microseconds_since_last_tick,accX,accY,accZ,gyroX,gyroY,gyroZ,magnetX,magnetY,magnetZ,day,hour,min,sec,msec,sync,battery_fuel,crc_good
1,31524,30725,32445,26914,28769,-4262,-1760,-314,-45,-384,-179,319,417,-169,1,0,17,58,40,0,53298,1
2,31525,30726,32447,26915,28755,-4241,-1779,-295,107,-250,-340,310,416,-178,1,0,17,58,80,0,53298,1
2,31527,30728,32447,26916,28743,-4235,-1773,-310,67,13,-443,314,422,-162,1,0,17,58,120,0,53298,1
2,31529,30728,32450,26917,28729,-4225,-1791,-297,79,264,-566,321,421,-175,1,0,17,58,160,0,53298,1
2,31527,30725,32451,26918,28716,-4232,-1817,-331,76,441,-553,317,423,-167,1,0,17,58,200,0,53298,1
2,31530,30728,32453,26919,28704,-4229,-1825,-345,63,481,-373,322,414,-180,1,0,17,58,240,0,53298,1
2,31529,30728,32453,26920,28691,-4236,-1866,-364,-27,419,-74,311,431,-177,1,0,17,58,280,0,53298,1
2,31534,30727,32458,26921,28678,-4248,-1847,-378,-59,98,277,310,422,-172,1,0,17,58,320,0,53298,1
2,31535,30729,32458,26922,28664,-4253,-1784,-358,-14,-323,392,309,421,-169,1,0,17,58,360,0,53298,1
2,31540,30730,32465,26923,28652,-4236,-1802,-343,-101,-536,297,319,417,-165,1,0,17,58,400,0,53298,1
2,31546,30731,32468,26924,28639,-4228,-1786,-316,-138,-566,229,315,427,-177,1,0,17,58,440,0,53298,1
2,31554,30725,32469,26925,28627,-4239,-1779,-314,-48,-337,132,308,414,-160,1,0,17,58,480,0,53298,1
2,31552,30733,32473,26926,28614,-4240,-1767,-289,-9,-41,-34,310,416,-172,1,0,17,58,520,0,53298,1
2,31562,30721,32479,26927,28602,-4252,-1790,-337,-41,124,-160,312,424,-164,1,0,17,58,560,0,53298,1
2,31565,30729,32482,26928,28589,-4257,-1806,-321,13,53,-258,316,420,-176,1,0,17,58,600,0,53298,1
2,31562,30728,32486,26929,28577,-4244,-1826,-330,30,-55,-326,317,419,-173,1,0,17,58,640,0,53298,1
2,31570,30735,32490,26930,28566,-4244,-1829,-314,-7,-173,-296,315,415,-171,1,0,17,58,680,0,53298,1
2,31574,30731,32495,26931,28553,-4219,-1833,-309,-7,-134,-197,318,424,-168,1,0,17,58,720,0,53298,1
2,31576,30735,32495,26932,28541,-4221,-1830,-310,-61,24,-19,327,425,-169,1,0,17,58,760,0,53298,1
2,31584,30729,32503,26933,28529,-4230,-1816,-314,-4,130,31,307,419,-159,1,0,17,58,800,0,53298,1
2,31590,30728,32516,26934,28516,-4237,-1824,-324,-71,150,121,315,413,-169,1,0,17,58,840,0,53298,1
2,31599,30718,32524,26935,28504,-4251,-1820,-338,0,96,248,317,415,-167,1,0,17,58,880,0,53298,1
2,31601,30705,32520,26936,28491,-4257,-1795,-324,-6,-36,243,317,417,-171,1,0,17,58,920,0,53298,1
2,31602,30696,32523,26937,28478,-4234,-1786,-316,-24,-92,53,311,411,-171,1,0,17,58,960,0,53298,1
1,31610,30680,32535,26938,0,-4246,-1798,-317,35,-39,-164,319,423,-165,1,0,17,59,0,1,53298,1
2,31631,30676,32555,26939,28197,-4241,-1824,-327,23,111,-323,321,419,-169,1,0,17,59,40,1,53298,1
2,31641,30673,32557,26940,28184,-4219,-1836,-339,-74,230,-193,310,414,-168,1,0,17,59,80,1,53298,1
2,31658,30678,32581,26941,28171,-4228,-1853,-355,17,176,154,312,414,-174,1,0,17,59,120,1,53298,1
2,31687,30682,32624,26942,28158,-4241,-1811,-353,5,-29,447,318,422,-176,1,0,17,59,160,1,53298,1
2,31731,30698,32645,26943,28145,-4253,-1801,-331,-97,-250,472,314,418,-170,1,0,17,59,200,1,53298,1
2,31715,30700,32628,26944,28132,-4247,-1787,-318,-56,-365,318,321,417,-167,1,0,17,59,240,1,53298,1
2,31701,30717,32614,26945,28120,-4263,-1782,-304,-32,-291,59,313,423,-165,1,0,17,59,280,1,53298,1
2,31704,30707,32618,26946,28106,-4245,-1784,-290,-10,-80,-152,315,417,-171,1,0,17,59,320,1,53298,1
2,31689,30701,32609,26947,28093,-4242,-1799,-307,70,161,-236,311,421,-175,1,0,17,59,360,1,53298,1
2,31675,30698,32595,26948,28079,-4229,-1814,-335,47,316,-199,316,418,-170,1,0,17,59,400,1,53298,1
2,31670,30687,32585,26949,28067,-4238,-1819,-324,64,290,-65,326,416,-174,1,0,17,59,440,1,53298,1
2,31659,30683,32565,26950,28053,-4233,-1815,-339,49,145,35,313,419,-175,1,0,17,59,480,1,53298,1
2,31639,30665,32557,26951,28040,-4238,-1815,-345,-31,-60,140,315,413,-175,1,0,17,59,520,1,53298,1
2,31623,30668,32543,26952,28027,-4247,-1790,-331,-25,-212,198,307,427,-165,1,0,17,59,560,1,53298,1
2,31623,30650,32540,26953,28014,-4234,-1792,-317,-56,-235,189,309,425,-169,1,0,17,59,600,1,53298,1
2,31613,30648,32533,26954,28001,-4236,-1788,-319,-64,-185,138,302,418,-164,1,0,17,59,640,1,53298,1
2,31606,30641,32519,26955,27988,-4246,-1781,-317,-28,-95,63,313,421,-171,1,0,17,59,680,1,53298,1
2,31593,30638,32511,26956,27975,-4253,-1784,-320,2,16,-50,323,431,-169,1,0,17,59,720,1,53298,1
2,31584,30641,32499,26957,27962,-4238,-1802,-319,-18,85,-138,314,422,-160,1,0,17,59,760,1,53298,1
2,31575,30633,32492,26958,27948,-4240,-1798,-328,30,100,-160,315,423,-181,1,0,17,59,800,1,53298,1
2,31566,30639,32483,26959,27935,-4233,-1808,-339,4,88,-109,319,419,-175,1,0,17,59,840,1,53298,1
2,31553,30631,32475,26960,27922,-4243,-1813,-345,5,20,-22,313,415,-177,1,0,17,59,880,1,53298,1
2,31546,30635,32465,26961,27909,-4242,-1798,-316,23,-54,19,310,424,-178,1,0,17,59,920,1,53298,1
2,31543,30627,32465,26962,27896,-4261,-1819,-333,-39,-64,15,315,415,-165,1,0,17,59,960,1,53298,1
1,31542,30621,32462,26963,0,-4248,-1805,-316,2,-26,-1,323,423,-171,1,0,18,0,0,1,53298,1
2,31544,30635,32461,26964,27623,-4236,-1796,-331,4,18,-45,312,420,-166,1,0,18,0,40,1,53298,1
2,31541,30621,32459,26965,27611,-4246,-1813,-335,-21,35,-55,317,425,-175,1,0,18,0,80,1,53298,1
2,31544,30634,32465,26966,27598,-4210,-1832,-333,0,-18,-37,314,412,-176,1,0,18,0,120,1,53298,1
2,31545,30623,32468,26967,27585,-4278,-1773,-303,3,-156,-17,316,418,-166,1,0,18,0,160,1,53298,1
2,31546,30643,32470,26968,27572,-4248,-1841,-364,-28,-345,-72,321,423,-179,1,0,18,0,200,1,53298,1
2,31548,30614,32470,26969,27560,-4245,-1836,-313,-183,-479,-39,309,417,-175,1,0,18,0,240,1,53298,1
2,31548,30646,32470,26970,27547,-4259,-1838,-298,-97,-486,34,317,417,-173,1,0,18,0,280,1,53298,1
2,31529,30647,32450,26971,27534,-4282,-1800,-286,-81,-442,189,319,427,-165,1,0,18,0,320,1,53298,1
2,31510,30642,32436,26972,27522,-4247,-1796,-292,-149,-460,374,315,419,-161,1,0,18,0,360,1,53298,1
2,31503,30676,32425,26973,27509,-4282,-1804,-264,-220,-576,466,314,414,-162,1,0,18,0,400,1,53298,1
2,31497,30680,32410,26974,27496,-4260,-1801,-261,-165,-709,621,316,418,-168,1,0,18,0,440,1,53298,1
2,31484,30668,32394,26975,27483,-4296,-1806,-236,-147,-831,926,312,412,-170,1,0,18,0,480,1,53298,1
2,31473,30663,32374,26976,27470,-4325,-1672,-155,268,-879,1154,309,417,-163,1,0,18,0,520,1,53298,1
2,31468,30642,32330,26977,27456,-4526,-1795,-229,33,-810,1681,303,419,-157,1,0,18,0,560,1,53298,1
2,31457,30640,32274,26978,27443,-4565,-1808,-436,1130,-1268,3542,295,419,-163,1,0,18,0,600,1,53298,1
2,31427,30588,32196,26979,27428,-5190,-1479,-197,659,-1876,4561,288,424,-166,1,0,18,0,640,1,53298,1
2,31379,30632,32133,26980,27412,-5981,-1560,449,-132,-2886,4725,286,422,-156,1,0,18,0,680,1,53298,1
2,31363,30556,32044,26981,27397,-6541,-2624,2596,108,-4887,3964,290,420,-140,1,0,18,0,720,1,53298,1
2,31355,30663,31969,26982,27382,-5870,-3686,3641,-2346,-8690,1510,282,420,-140,1,0,18,0,760,1,53298,1
2,31375,30665,31928,26983,27366,-4624,-3255,1689,-4475,-13086,-992,296,402,-118,1,0,18,0,800,1,53298,1
2,31446,30641,31919,26984,27351,-3055,-693,-658,1189,-14606,-3984,300,390,-106,1,0,18,0,840,1,53298,1
2,31463,30658,31919,26985,27335,-2462,876,-3066,-955,-12158,-3467,293,373,-91,1,0,18,0,880,1,53298,1
2,31468,30560,32042,26986,27318,-2914,1611,-3948,-2125,-4116,200,301,369,-87,1,0,18,0,920,1,53298,1
2,31467,30604,31852,26987,27300,-3551,929,-2228,-699,4281,4519,290,382,-102,1,0,18,0,960,1,53298,1
1,31440,30630,31848,26988,0,-3846,-68,-1734,-1944,9693,7870,285,397,-125,1,0,18,1,0,1,53298,1
2,31333,30625,31843,26989,27049,-4187,741,-2417,2304,13722,8865,270,408,-138,1,0,18,1,40,1,53298,1
2,31303,30640,31886,26990,27032,-4294,1503,-2636,11677,18601,10062,252,434,-156,1,0,18,1,80,1,53298,1
2,41144,31888,36665,26991,27016,-4699,1850,-2829,11587,26046,12762,230,442,-192,1,0,18,1,120,1,53298,1
2,31580,30857,32147,26992,26999,-4897,1361,-3159,4803,29673,15191,202,456,-238,1,0,18,1,160,1,53298,1
2,33127,31666,41865,26993,26984,-5837,1506,-2698,-2393,32532,17301,191,469,-273,1,0,18,1,200,1,53298,1
2,31806,31729,33395,26994,26968,-8972,1838,-1269,-8442,32767,22451,137,445,-313,1,0,18,1,240,1,53298,1
2,31240,30810,31853,26995,26953,-11568,-4142,1077,-19668,32767,27972,95,437,-363,1,0,18,1,280,1,53298,1
2,31126,30666,31831,26996,26938,-4737,-6225,1668,-22253,28278,16054,75,407,-375,1,0,18,1,320,1,53298,1
2,31127,30672,31855,26997,26923,-5817,525,478,5737,2405,-3020,87,417,-375,1,0,18,1,360,1,53298,1
2,34288,31519,32296,26998,26907,-5216,1372,-2564,16733,-20166,-10380,117,427,-365,1,0,18,1,400,1,53298,1
2,31179,30671,31840,26999,26891,-4522,1803,-4019,4406,-22575,-10856,131,449,-325,1,0,18,1,440,1,53298,1
2,31206,30677,31886,27000,26875,-3377,78,-2688,24,-15466,-10844,138,450,-310,1,0,18,1,480,1,53298,1
2,31177,30682,31833,27001,26858,-3773,77,-1313,2417,-8735,-10520,156,450,-310,1,0,18,1,520,1,53298,1
2,31235,30693,31873,27002,26842,-5289,254,-1420,7437,-9877,-8675,177,459,-287,1,0,18,1,560,1,53298,1
2,31214,30680,31855,27003,26825,-5391,250,-817,12768,-14076,-9150,190,460,-258,1,0,18,1,600,1,53298,1
2,31175,30674,31870,27004,26809,-5462,160,-1208,7165,-18343,-7888,198,458,-236,1,0,18,1,640,1,53298,1
2,31154,30675,31886,27005,26793,-5248,-233,-775,-917,-19292,-6811,208,454,-208,1,0,18,1,680,1,53298,1
2,31157,30674,31867,27006,26777,-4561,-228,-1458,-5979,-18509,-7923,219,439,-191,1,0,18,1,720,1,53298,1
2,31208,30682,31873,27007,26761,-4010,-778,-303,-6061,-16953,-8471,230,430,-174,1,0,18,1,760,1,53298,1
2,31250,30690,31886,27008,26743,-3581,-450,-1364,-5672,-15221,-8638,254,424,-148,1,0,18,1,800,1,53298,1
2,31365,30724,31991,27009,26726,-3782,342,-1554,-2631,-14324,-9987,262,404,-134,1,0,18,1,840,1,53298,1
2,31725,30849,32258,27010,26710,-3600,1109,-2271,-2499,-12375,-8308,276,406,-120,1,0,18,1,880,1,53298,1
2,31460,30695,31903,27011,26695,-3968,689,-2168,-4027,-7702,-6081,275,391,-117,1,0,18,1,920,1,53298,1
2,31471,30683,31856,27012,26679,-3795,110,-1167,-945,-1670,-2647,289,399,-119,1,0,18,1,960,1,53298,1
1,31431,30678,31850,27013,0,-4234,-912,129,-122,3815,9,286,400,-112,1,0,18,2,0,0,53298,1
2,31358,30677,31850,27014,26476,-4612,-1094,1009,2558,7742,1688,277,411,-133,1,0,18,2,40,0,53298,1
2,31314,30677,31874,27015,26459,-5224,-942,1030,1216,6578,2538,272,410,-134,1,0,18,2,80,0,53298,1
2,31277,30674,31890,27016,26444,-4575,-700,671,2825,1393,1185,264,410,-124,1,0,18,2,120,0,53298,1
2,31250,30668,31874,27017,26428,-4124,-2080,1060,891,-586,763,269,413,-129,1,0,18,2,160,0,53298,1
2,31275,30668,31852,27018,26413,-4385,-1913,532,-43,-693,-701,271,415,-131,1,0,18,2,200,0,53298,1
2,31294,30668,31836,27019,26397,-4568,-1032,219,65,-940,-2890,276,412,-126,1,0,18,2,240,0,53298,1
2,31320,30667,31829,27020,26380,-4567,-810,483,-33,-1039,-2045,283,403,-129,1,0,18,2,280,0,53298,1
2,31350,30671,31827,27021,26363,-4564,-1123,182,-595,-952,-927,284,410,-130,1,0,18,2,320,0,53298,1
2,31355,30673,31839,27022,26345,-4362,-1325,143,-157,-717,-155,275,405,-133,1,0,18,2,360,0,53298,1
2,31347,30676,31853,27023,26328,-4443,-1047,-2,450,109,351,285,405,-129,1,0,18,2,400,0,53298,1
2,31355,30687,31871,27024,26311,-4403,-1021,238,487,1105,699,272,400,-134,1,0,18,2,440,0,53298,1
2,31394,30704,31929,27025,26294,-4374,-1500,462,-931,1813,1388,289,409,-139,1,0,18,2,480,0,53298,1
2,31519,30739,32029,27026,26276,-4488,-1466,1099,-262,1901,651,275,415,-135,1,0,18,2,520,0,53298,1
2,31690,30812,32191,27027,26260,-4582,-1421,878,-1075,667,-83,275,407,-131,1,0,18,2,560,0,53298,1
2,31759,30841,32266,27028,26243,-4520,-637,-120,26,-1822,-1240,275,409,-131,1,0,18,2,600,0,53298,1
2,32018,30948,32486,27029,26227,-4289,-474,-125,149,-1948,-195,278,404,-128,1,0,18,2,640,0,53298,1
2,32714,31294,33547,27030,26210,-4713,-93,-1559,-882,-937,1293,276,412,-134,1,0,18,2,680,0,53298,1
2,33083,31283,33440,27031,26194,-5075,772,-3795,121,1317,2597,270,408,-124,1,0,18,2,720,0,53298,1
2,31368,30699,32007,27032,26179,-3539,1732,-4167,5482,6486,4156,259,417,-147,1,0,18,2,760,0,53298,1
2,31237,30680,31945,27033,26163,-3217,1294,-4518,-141,18687,10186,252,434,-174,1,0,18,2,800,0,53298,1
2,31415,30690,31968,27034,26149,-4327,2075,-3853,963,30873,15899,222,452,-224,1,0,18,2,840,0,53298,1
2,33284,31589,33704,27035,26133,-4194,1586,-3043,-727,32767,21695,196,464,-274,1,0,18,2,880,0,53298,1
2,31695,30881,32341,27036,26117,-8477,1468,-1124,-2698,32767,25032,158,450,-336,1,0,18,2,920,0,53298,1
2,31251,30753,32037,27037,26102,-15972,-3053,455,-11262,32767,32767,103,421,-389,1,0,18,2,960,0,53298,1
1,31018,30601,31780,27038,0,-3267,-6890,2730,-11035,32767,21733,79,385,-427,1,0,18,3,0,0,53298,1
2,31025,30601,31811,27039,25904,-4633,-463,1105,1278,5176,-56,92,384,-436,1,0,18,3,40,0,53298,1
2,31042,30619,31842,27040,25888,-5655,3410,-3890,14151,-23908,-14088,112,414,-408,1,0,18,3,80,0,53298,1
2,31056,30605,31861,27041,25871,-3094,2225,-7938,-11372,-27692,-10521,119,433,-365,1,0,18,3,120,0,53298,1
2,31078,30596,31852,27042,25855,-3345,267,-3718,-8711,-8264,-10949,141,439,-363,1,0,18,3,160,0,53298,1
2,31077,30591,31835,27043,25839,-3698,1116,-1802,4620,-2888,-8527,155,441,-351,1,0,18,3,200,0,53298,1
2,31117,30604,31839,27044,25823,-4550,694,-1717,17449,-8279,-7655,165,449,-349,1,0,18,3,240,0,53298,1
2,31130,30605,31867,27045,25807,-4706,764,-2305,17021,-12682,-8552,176,450,-324,1,0,18,3,280,0,53298,1
2,31210,30667,32058,27046,25791,-4831,445,-1857,7219,-16254,-8171,197,463,-305,1,0,18,3,320,0,53298,1
2,31181,30684,31988,27047,25774,-4868,-337,-1711,-192,-14981,-8340,213,461,-283,1,0,18,3,360,0,53298,1
2,31141,30642,31910,27048,25758,-5003,-1210,31,-568,-15779,-7510,212,460,-252,1,0,18,3,400,0,53298,1
2,31150,30643,31953,27049,25741,-4985,-1256,-1115,544,-17459,-5930,223,451,-231,1,0,18,3,440,0,53298,1
2,31190,30660,31997,27050,25725,-4179,-779,-1043,2836,-17562,-7233,228,446,-210,1,0,18,3,480,0,53298,1
2,31251,30682,32044,27051,25709,-4037,-466,-1077,-3869,-15659,-6829,242,442,-190,1,0,18,3,520,0,53298,1
2,31317,30704,32092,27052,25693,-3518,-19,-1450,-6154,-14147,-9584,257,427,-173,1,0,18,3,560,0,53298,1
2,31430,30719,32110,27053,25676,-3327,210,-1796,-4947,-13044,-10188,276,432,-156,1,0,18,3,600,0,53298,1
2,31495,30712,32117,27054,25659,-3811,170,-3304,-1033,-11375,-7467,284,408,-140,1,0,18,3,640,0,53298,1
2,31560,30708,32125,27055,25642,-4061,1344,-2642,1589,-7700,-6229,287,413,-135,1,0,18,3,680,0,53298,1
2,31566,30702,32101,27056,25624,-4246,-441,-1326,-758,-2619,-1607,288,408,-138,1,0,18,3,720,0,53298,1
2,31528,30690,32062,27057,25606,-4839,-1287,-553,1110,1525,20,289,407,-135,1,0,18,3,760,0,53298,1
2,31487,30687,32072,27058,25590,-4901,-1482,257,133,2936,1173,283,415,-145,1,0,18,3,800,0,53298,1
2,31466,30684,32057,27059,25573,-4836,-1431,1084,-151,3005,1133,284,408,-148,1,0,18,3,840,0,53298,1
2,31439,30672,32031,27060,25557,-4555,-1531,841,-1008,1360,689,291,413,-135,1,0,18,3,880,0,53298,1
2,31416,30664,32013,27061,25541,-4197,-2034,1007,-303,198,15,291,409,-149,1,0,18,3,920,0,53298,1
2,31419,30661,32011,27062,25524,-4489,-1344,465,1081,-930,-780,287,401,-143,1,0,18,3,960,0,53298,1
1,31429,30660,31999,27063,0,-4369,-1288,126,287,-1808,-1241,284,410,-146,1,0,18,4,0,1,53298,1
2,31432,30660,31995,27064,25331,-4637,-950,-297,1034,-1956,-1272,290,408,-144,1,0,18,4,40,1,53298,1
2,31426,30659,31989,27065,25316,-4339,-1119,-448,50,-1218,-191,284,408,-138,1,0,18,4,80,1,53298,1
2,31402,30657,31987,27066,25300,-4248,-1154,-657,-133,679,469,283,413,-143,1,0,18,4,120,1,53298,1
2,31365,30655,31982,27067,25284,-4322,-625,-1736,-206,2245,708,288,412,-144,1,0,18,4,160,1,53298,1
2,31356,30684,32070,27068,25268,-4647,703,-2253,1017,2810,2179,289,421,-145,1,0,18,4,200,1,53298,1
2,31380,30678,32084,27069,25252,-4404,779,-3148,-1537,5493,5795,275,427,-143,1,0,18,4,240,1,53298,1
2,31352,30692,32037,27070,25236,-4377,1548,-3597,579,11912,8555,257,433,-177,1,0,18,4,280,1,53298,1
2,31211,30666,31882,27071,25221,-3972,1852,-3668,1349,19716,14171,238,452,-210,1,0,18,4,320,1,53298,1
2,31118,30650,31832,27072,25205,-3875,1538,-3878,-2125,29145,20899,203,463,-253,1,0,18,4,360,1,53298,1
2,31118,30659,31882,27073,25190,-5989,1951,-2144,-1758,32767,26010,163,463,-309,1,0,18,4,400,1,53298,1
2,31068,30660,31937,27074,25174,-13260,-2703,-664,-12150,32767,32767,121,437,-357,1,0,18,4,440,1,53298,1
2,31083,30593,31931,27075,25161,-8396,-4578,1843,-11089,32767,30849,82,402,-408,1,0,18,4,480,1,53298,1
2,31030,30596,31852,27076,25148,-2983,-3740,2562,-5925,15681,8492,75,397,-399,1,0,18,4,520,1,53298,1
2,31048,30652,31846,27077,25134,-4393,1208,-500,4733,-10509,-10127,97,421,-395,1,0,18,4,560,1,53298,1
2,31029,30651,31847,27078,25119,-4654,3853,-5442,-229,-26360,-11562,115,423,-357,1,0,18,4,600,1,53298,1
2,31078,30629,31814,27079,25105,-2505,2197,-5612,-8170,-14830,-9064,120,434,-332,1,0,18,4,640,1,53298,1
2,31088,30632,31814,27080,25091,-1929,339,-2150,-2829,-605,-5023,131,441,-337,1,0,18,4,680,1,53298,1
2,31093,30590,31823,27081,25076,-4417,1392,-2216,2834,5878,-2850,131,441,-355,1,0,18,4,720,1,53298,1
2,31092,30598,31867,27082,25061,-3965,802,-1708,16135,-2683,-5391,147,445,-345,1,0,18,4,760,1,53298,1
2,31096,30621,31901,27083,25046,-4539,238,-1406,13774,-9796,-6681,156,456,-328,1,0,18,4,800,1,53298,1
2,31100,30651,31931,27084,25032,-5509,55,-1793,3364,-13220,-9360,174,456,-312,1,0,18,4,840,1,53298,1
2,31118,30660,31948,27085,25019,-5535,-890,-1299,1086,-17168,-11107,191,459,-287,1,0,18,4,880,1,53298,1
2,31136,30665,31965,27086,25004,-5332,-873,-422,4038,-18553,-11378,208,464,-260,1,0,18,4,920,1,53298,1
2,31136,30656,31970,27087,24989,-5569,313,-1102,4265,-19400,-10040,221,453,-233,1,0,18,4,960,1,53298,1
1,31133,30664,31961,27088,0,-3738,312,-987,1261,-19710,-8596,240,458,-208,1,0,18,5,0,0,53298,1
2,31148,30665,31942,27089,24761,-3534,-519,-1126,-6565,-15611,-8456,252,440,-194,1,0,18,5,40,0,53298,1
2,31191,30674,31962,27090,24746,-3633,141,-1357,-4814,-12372,-11000,271,433,-167,1,0,18,5,80,0,53298,1
2,31267,30692,32001,27091,24730,-3229,217,-2045,-398,-14816,-9792,271,419,-155,1,0,18,5,120,0,53298,1
2,31361,30713,32091,27092,24715,-3698,864,-3023,1581,-12222,-8782,275,421,-137,1,0,18,5,160,0,53298,1
2,31454,30727,32124,27093,24701,-3853,484,-2757,114,-7799,-6531,287,415,-131,1,0,18,5,200,0,53298,1
2,31443,30728,32126,27094,24686,-4628,161,-2035,650,-2503,-3511,294,404,-128,1,0,18,5,240,0,53298,1
2,31402,30723,32111,27095,24672,-5018,-714,-1285,94,2206,758,289,411,-137,1,0,18,5,280,0,53298,1
2,31356,30728,32108,27096,24657,-4333,-1987,806,2125,8164,3272,282,424,-152,1,0,18,5,320,0,53298,1
2,31351,30726,32151,27097,24642,-5301,-1965,970,-1625,10702,5237,264,420,-156,1,0,18,5,360,0,53298,1
2,31300,30712,32124,27098,24627,-4827,-1192,1367,1967,3481,2386,269,429,-157,1,0,18,5,400,0,53298,1
2,31309,30713,32120,27099,24612,-4012,-1831,849,447,-1057,-644,272,426,-162,1,0,18,5,440,0,53298,1
2,31335,30716,32135,27100,24597,-4184,-1896,686,168,-1890,-1750,272,418,-154,1,0,18,5,480,0,53298,1
2,31368,30725,32150,27101,24582,-4568,-1058,-194,1339,-2317,-2731,274,424,-156,1,0,18,5,520,0,53298,1
2,31365,30721,32152,27102,24566,-4190,-504,-425,2629,-1718,-2701,280,416,-158,1,0,18,5,560,0,53298,1
2,31355,30698,32160,27103,24551,-4761,-782,-2963,-1097,3682,1427,275,421,-161,1,0,18,5,600,0,53298,1
2,31305,30685,32171,27104,24536,-4452,699,-3446,2081,8856,3527,275,429,-171,1,0,18,5,640,0,53298,1
2,31301,30641,32188,27105,24520,-3379,1624,-3981,769,14463,8844,258,440,-200,1,0,18,5,680,0,53298,1
2,31287,30550,32208,27106,24505,-2949,1460,-6198,-6649,23953,15333,233,457,-223,1,0,18,5,720,0,53298,1
2,31278,30493,32187,27107,24490,-3314,4222,-5536,3968,28653,17334,211,467,-265,1,0,18,5,760,0,53298,1
2,31287,30489,32187,27108,24476,-4538,2443,-5320,-6710,32767,22413,179,465,-321,1,0,18,5,800,0,53298,1
2,31260,30714,32183,27109,24462,-9458,1717,-3073,-12595,32767,27842,129,433,-379,1,0,18,5,840,0,53298,1
2,31290,30629,32106,27110,24447,-13679,-3003,-762,-18299,32767,30976,76,396,-418,1,0,18,5,880,0,53298,1
2,31239,30622,32004,27111,24434,-6071,-5373,2418,-25936,32767,22657,37,357,-415,1,0,18,5,920,0,53298,1
2,31235,30620,32024,27112,24420,-2800,-1071,4179,-6023,6271,1322,55,363,-413,1,0,18,5,960,0,53298,1
1,31258,30583,32080,27113,0,-4639,380,-2186,11695,-20455,-11548,72,392,-388,1,0,18,6,0,1,53298,1
2,31283,30490,32107,27114,24190,-2868,5025,-6157,4642,-22780,-13651,84,414,-370,1,0,18,6,40,1,53298,1
2,31288,30563,32122,27115,24176,-2402,1876,-4871,-6773,-11235,-8356,87,423,-361,1,0,18,6,80,1,53298,1
2,31282,30512,32126,27116,24162,-2085,1885,-2930,2374,-5071,-5461,108,428,-374,1,0,18,6,120,1,53298,1
2,31336,30600,32161,27117,24149,-4282,139,-370,13399,-4383,-4983,113,433,-371,1,0,18,6,160,1,53298,1
2,31358,30603,32183,27118,24136,-5151,611,-1763,15052,-11108,-8217,136,434,-360,1,0,18,6,200,1,53298,1
2,31381,30436,32224,27119,24124,-5150,372,-3099,4183,-17213,-9843,148,454,-328,1,0,18,6,240,1,53298,1
2,31518,30538,32342,27120,24113,-5421,141,-2624,-641,-17078,-11737,163,457,-303,1,0,18,6,280,1,53298,1
2,31541,30645,32346,27121,24103,-4812,-331,-2995,905,-16629,-12600,188,462,-282,1,0,18,6,320,1,53298,1
2,31587,30747,32345,27122,24093,-4888,360,-1313,4146,-14587,-12726,203,459,-259,1,0,18,6,360,1,53298,1
2,31615,30785,32427,27123,24082,-4740,-145,-943,922,-14682,-13365,226,454,-248,1,0,18,6,400,1,53298,1
2,31612,30739,32441,27124,24072,-4285,-408,-698,-1620,-14901,-13213,249,447,-213,1,0,18,6,440,1,53298,1
2,32835,30688,32689,27125,24064,-3910,56,-1208,-1211,-15270,-12973,261,441,-197,1,0,18,6,480,1,53298,1
2,42397,32917,36221,27126,24055,-3137,1334,-2608,-1446,-14341,-12407,268,428,-186,1,0,18,6,520,1,53298,1
2,43163,36683,45459,27127,24045,-3210,1960,-3439,-540,-10879,-9267,279,423,-173,1,0,18,6,560,1,53298,1
2,43707,35486,36835,27128,24036,-3487,1458,-3323,1144,-6187,-4366,285,425,-155,1,0,18,6,600,1,53298,1
2,45315,37299,45458,27129,24028,-4350,-96,-2062,1575,-1431,595,283,425,-159,1,0,18,6,640,1,53298,1
2,44243,37027,45791,27130,24020,-4678,-1807,-902,1333,1619,2831,277,425,-157,1,0,18,6,680,1,53298,1
2,46262,37972,45622,27131,24012,-5388,-1584,318,4246,3351,2402,278,434,-170,1,0,18,6,720,1,53298,1
2,45815,37796,46348,27132,24003,-4957,-725,372,1534,2216,1157,275,433,-165,1,0,18,6,760,1,53298,1
2,46181,38867,46724,27133,23995,-4649,-1951,434,-3483,1511,-130,279,435,-169,1,0,18,6,800,1,53298,1
2,47095,38818,47392,27134,23986,-4484,-735,84,634,992,283,281,433,-175,1,0,18,6,840,1,53298,1
2,46717,38531,46908,27135,23976,-4416,-986,-979,-975,1139,315,274,424,-170,1,0,18,6,880,1,53298,1
2,46678,38522,47048,27136,23967,-4093,-169,-2252,1094,3218,1314,260,436,-172,1,0,18,6,920,1,53298,1
2,46887,38912,47100,27137,23958,-3638,1423,-3821,2034,7121,3569,256,444,-186,1,0,18,6,960,1,53298,1
1,45181,37561,45984,27138,0,-3121,1927,-5040,-94,13761,7897,250,450,-224,1,0,18,7,0,1,53298,1
2,44583,37118,45334,27139,23623,-2768,2381,-5500,482,21566,13823,235,459,-253,1,0,18,7,40,1,53298,1
2,44900,37383,45803,27140,23612,-3505,3585,-5577,464,28772,18809,198,462,-296,1,0,18,7,80,1,53298,1
2,43319,36542,44183,27141,23602,-4257,3265,-6471,-4997,32767,24994,158,452,-346,1,0,18,7,120,1,53298,1
2,43658,36516,44446,27142,23591,-8653,2739,-6029,-9516,32767,30489,114,420,-410,1,0,18,7,160,1,53298,1
2,44591,37125,45207,27143,23580,-18095,-3466,-34,-20098,32767,32767,62,356,-434,1,0,18,7,200,1,53298,1
2,43120,36360,43667,27144,23569,-5054,-7205,6562,-32768,25662,11821,34,346,-422,1,0,18,7,240,1,53298,1
2,43297,36700,44459,27145,23556,-4548,-3883,882,-11742,-9739,-9018,43,363,-413,1,0,18,7,280,1,53298,1
2,41449,36539,43871,27146,23543,-2330,5317,-6362,24961,-20428,-13183,73,395,-401,1,0,18,7,320,1,53298,1
2,42067,36229,42978,27147,23529,-964,5374,-7352,6960,-12248,-9581,73,401,-387,1,0,18,7,360,1,53298,1
2,37371,32940,40769,27148,23516,-1262,2738,-4347,-6257,-2434,-1379,78,402,-390,1,0,18,7,400,1,53298,1
2,42895,36253,43609,27149,23503,-2083,1240,-2064,-1800,1940,2030,76,404,-400,1,0,18,7,440,1,53298,1
2,41841,35746,42672,27150,23489,-3191,393,-1038,6180,-530,-177,92,400,-402,1,0,18,7,480,1,53298,1
2,42174,36041,43091,27151,23477,-3023,934,-2471,11169,-8269,-3922,102,410,-396,1,0,18,7,520,1,53298,1
2,42273,36119,43253,27152,23464,-3645,630,-3148,5811,-12044,-6726,106,414,-378,1,0,18,7,560,1,53298,1
2,41971,35790,42958,27153,23452,-4340,59,-2421,2993,-12587,-8714,125,431,-365,1,0,18,7,600,1,53298,1
2,41770,35828,42823,27154,23440,-4777,1,-1848,6832,-14725,-9866,132,442,-342,1,0,18,7,640,1,53298,1
2,42520,36096,43329,27155,23429,-5960,-236,-486,7558,-17479,-11153,166,454,-312,1,0,18,7,680,1,53298,1
2,41251,35496,41978,27156,23418,-6347,-229,-332,5533,-22941,-11797,173,457,-283,1,0,18,7,720,1,53298,1
2,40972,35377,41775,27157,23407,-5295,542,-1980,2309,-26715,-12891,191,459,-249,1,0,18,7,760,1,53298,1
2,41192,35433,42130,27158,23397,-4837,288,-2539,-2808,-25821,-14673,217,441,-215,1,0,18,7,800,1,53298,1
2,41282,35486,42204,27159,23385,-4016,1381,-3157,-4214,-22370,-15964,234,442,-182,1,0,18,7,840,1,53298,1
2,41964,33566,39601,27160,23373,-3477,1196,-3017,-3791,-17636,-14558,246,428,-154,1,0,18,7,880,1,53298,1
2,42374,35840,42921,27161,23363,-3340,1590,-3230,-2275,-12548,-12085,268,428,-148,1,0,18,7,920,1,53298,1
2,41956,35580,42428,27162,23352,-3469,1796,-3253,-1375,-7222,-6892,276,416,-136,1,0,18,7,960,1,53298,1
1,41631,35469,42038,27163,0,-4108,447,-2100,-1047,-1491,-1340,277,411,-153,1,0,18,8,0,0,53298,1
2,41750,35502,42299,27164,23053,-4647,-737,-712,-401,2032,1986,279,419,-149,1,0,18,8,40,0,53298,1
2,42504,35889,43034,27165,23043,-4838,-1708,-302,-1098,3589,3060,274,428,-160,1,0,18,8,80,0,53298,1
2,42338,35863,42720,27166,23034,-4936,-1538,966,-1863,4126,1605,270,424,-164,1,0,18,8,120,0,53298,1
2,42230,35740,42739,27167,23024,-4580,-1479,775,-1998,2926,580,265,425,-157,1,0,18,8,160,0,53298,1
2,42458,35959,43092,27168,23014,-4616,-1352,932,-406,1756,-25,277,435,-169,1,0,18,8,200,0,53298,1
2,42436,35925,42971,27169,23004,-4207,-959,-263,-213,486,-526,277,421,-169,1,0,18,8,240,0,53298,1
2,42574,35980,43130,27170,22993,-4180,-565,-1330,1283,1403,-355,264,436,-162,1,0,18,8,280,0,53298,1
2,42555,36016,43175,27171,22983,-3951,451,-2161,3192,3718,1193,273,435,-173,1,0,18,8,320,0,53298,1
2,42564,36075,43310,27172,22973,-3462,1322,-3639,1790,7418,4008,261,445,-187,1,0,18,8,360,0,53298,1
2,44052,37003,44685,27173,22961,-3428,1886,-5043,4071,14683,9554,252,446,-212,1,0,18,8,400,0,53298,1
2,43066,36344,43643,27174,22950,-3725,2964,-5642,9826,23087,15956,218,456,-250,1,0,18,8,440,0,53298,1
2,43737,36718,44504,27175,22939,-4015,3193,-5772,5591,30896,19513,187,451,-289,1,0,18,8,480,0,53298,1
2,43315,36370,43869,27176,22928,-4983,2403,-5621,-5886,32767,21657,154,450,-356,1,0,18,8,520,0,53298,1
2,43565,36629,44452,27177,22916,-8449,2428,-4142,-14844,32767,24970,99,417,-399,1,0,18,8,560,0,53298,1
2,43980,36827,44671,27178,22905,-13466,-2545,-282,-25507,32767,28641,56,362,-416,1,0,18,8,600,0,53298,1
2,43535,36798,44458,27179,22894,-6221,-8206,3159,-31668,24157,14234,41,357,-405,1,0,18,8,640,0,53298,1
2,43794,36820,44502,27180,22882,-4148,-4748,2139,-13875,-2230,-6085,47,379,-397,1,0,18,8,680,0,53298,1
2,43061,36436,43871,27181,22870,-3850,2912,-3663,23879,-16884,-12395,79,393,-401,1,0,18,8,720,0,53298,1
2,42984,36349,43776,27182,22857,-735,5378,-7208,16830,-15340,-11584,98,404,-402,1,0,18,8,760,0,53298,1
2,42898,36330,43627,27183,22844,-1038,4214,-4646,77,-4800,-4298,92,406,-392,1,0,18,8,800,0,53298,1
2,42939,36412,43759,27184,22831,-1208,2578,-3425,-2849,791,1689,88,406,-392,1,0,18,8,840,0,53298,1
2,42722,36244,43440,27185,22818,-2666,1359,-2096,-1141,2350,2431,74,412,-394,1,0,18,8,880,0,53298,1
2,41848,35432,41034,27186,22805,-2454,1244,-2621,2615,-1761,835,85,399,-391,1,0,18,8,920,0,53298,1
2,37187,33559,38183,27187,22793,-2031,1596,-4035,1604,-4496,-1454,86,408,-386,1,0,18,8,960,0,53298,1
1,36421,33031,36994,27188,0,-2108,1629,-3941,816,-2759,-1750,87,427,-379,1,0,18,9,0,0,53298,1
2,36154,33248,40274,27189,22483,-3070,1024,-2578,3932,-443,-746,93,405,-395,1,0,18,9,40,0,53298,1
2,42723,36213,43495,27190,22469,-3722,23,-1273,7416,-2900,-2028,102,418,-394,1,0,18,9,80,0,53298,1
2,42083,35894,42962,27191,22456,-4101,-76,-1305,7770,-7689,-4773,117,425,-383,1,0,18,9,120,0,53298,1
2,42864,36161,43374,27192,22443,-4793,-343,-1165,6734,-12734,-7873,127,437,-355,1,0,18,9,160,0,53298,1
2,43259,36455,44006,27193,22430,-5271,-344,-1574,7770,-17891,-10335,147,449,-333,1,0,18,9,200,0,53298,1
2,43239,36474,43965,27194,22418,-5661,-42,-1533,9216,-21725,-11383,171,453,-301,1,0,18,9,240,0,53298,1
2,43455,36563,44171,27195,22406,-5645,97,-1700,6384,-24663,-12281,188,460,-278,1,0,18,9,280,0,53298,1
2,43922,36805,44606,27196,22395,-5446,393,-1572,2013,-25887,-13337,215,457,-243,1,0,18,9,320,0,53298,1
2,43790,36720,44487,27197,22384,-4470,1273,-2403,-2403,-26029,-13989,224,448,-200,1,0,18,9,360,0,53298,1
2,43733,36661,44398,27198,22373,-3697,962,-3416,-5591,-22979,-13385,242,436,-180,1,0,18,9,400,0,53298,1
2,43680,36634,44305,27199,22361,-3088,1505,-4247,-3309,-17709,-11317,257,413,-155,1,0,18,9,440,0,53298,1
2,43628,36619,44289,27200,22350,-3423,1899,-4596,1106,-9387,-5939,255,421,-145,1,0,18,9,480,0,53298,1
2,43344,36448,43938,27201,22338,-4093,839,-2960,2626,-1038,337,256,430,-140,1,0,18,9,520,0,53298,1
2,43355,36469,44022,27202,22328,-4986,-793,-482,344,3610,3481,252,424,-152,1,0,18,9,560,0,53298,1
2,43382,36522,44062,27203,22317,-5033,-2418,825,-3309,3492,3146,248,434,-168,1,0,18,9,600,0,53298,1
2,43400,36510,44037,27204,22306,-4844,-1756,1381,-1623,1495,1465,254,428,-160,1,0,18,9,640,0,53298,1
2,43277,36434,43920,27205,22295,-4178,-1382,459,-1968,-657,-612,253,425,-159,1,0,18,9,680,0,53298,1
2,43201,36415,43847,27206,22285,-3863,-615,-681,-414,-483,-1063,250,426,-164,1,0,18,9,720,0,53298,1
2,43114,36384,43733,27207,22274,-3701,355,-2086,1648,1867,249,250,434,-164,1,0,18,9,760,0,53298,1
2,43067,36355,43734,27208,22262,-3425,1301,-3821,1709,6566,3088,246,434,-170,1,0,18,9,800,0,53298,1
2,42850,36291,43674,27209,22249,-3679,2048,-4731,3809,13569,7568,227,439,-197,1,0,18,9,840,0,53298,1
2,42460,36060,43221,27210,22237,-3533,2722,-6144,4861,21220,12210,209,457,-225,1,0,18,9,880,0,53298,1
2,42335,35964,43039,27211,22225,-3099,3240,-7666,1044,30841,15665,189,463,-277,1,0,18,9,920,0,53298,1
2,42213,35985,43004,27212,22212,-5120,2806,-6656,-5379,32767,19079,157,461,-343,1,0,18,9,960,0,53298,1
1,42321,35969,43093,27213,0,-11472,1525,-3817,-12429,32767,24603,110,424,-400,1,0,18,10,0,0,53298,1
2,42579,36172,43338,27214,21915,-15761,-6493,849,-22725,32767,28531,71,367,-431,1,0,18,10,40,0,53298,1
2,42216,36203,43771,27215,21902,-3588,-8413,4459,-30001,22761,8316,38,358,-414,1,0,18,10,80,0,53298,1
2,43517,36365,43953,27216,21890,-4902,-3810,901,-12959,-8873,-11472,65,385,-407,1,0,18,10,120,0,53298,1
2,42683,36171,43216,27217,21877,-3119,5647,-5746,21004,-20995,-15106,84,408,-408,1,0,18,10,160,0,53298,1
2,43116,36417,43691,27218,21863,-636,5865,-6703,10104,-12989,-9698,101,413,-385,1,0,18,10,200,0,53298,1
2,43014,36185,43517,27219,21849,-999,3177,-4652,-7247,-2407,-541,94,422,-388,1,0,18,10,240,0,53298,1
2,43030,36350,43698,27220,21836,-2291,1996,-2162,-4617,2867,3872,88,412,-384,1,0,18,10,280,0,53298,1
2,42854,36410,43843,27221,21823,-2848,1414,-1591,962,953,2452,84,412,-382,1,0,18,10,320,0,53298,1
2,38938,35916,42538,27222,21809,-2430,1572,-3184,3925,-4321,16,87,405,-375,1,0,18,10,360,0,53298,1
2,41508,35562,42107,27223,21795,-2839,1593,-3747,1760,-5634,-1928,82,422,-374,1,0,18,10,400,0,53298,1
2,43073,36335,43645,27224,21782,-3844,-26,-2619,2768,-4489,-2914,98,424,-380,1,0,18,10,440,0,53298,1
2,42338,35894,43132,27225,21769,-4569,-120,-1682,9620,-7164,-5651,119,431,-369,1,0,18,10,480,0,53298,1
2,34231,35511,43005,27226,21757,-5277,-221,-1068,9385,-12738,-8407,126,442,-346,1,0,18,10,520,0,53298,1
2,35771,35853,42770,27227,21745,-5262,216,-1440,3477,-18433,-12022,145,447,-325,1,0,18,10,560,0,53298,1
2,41625,35988,37460,27228,21733,-4964,306,-1715,-2276,-21372,-14645,168,454,-296,1,0,18,10,600,0,53298,1
2,32351,31166,33503,27229,21720,-4829,53,-1239,-2605,-20706,-15870,193,451,-259,1,0,18,10,640,0,53298,1
2,31897,30853,32695,27230,21708,-4570,336,-1394,331,-20639,-16110,218,448,-226,1,0,18,10,680,0,53298,1
2,31898,30841,32670,27231,21695,-4431,527,-1685,577,-19541,-16027,234,450,-204,1,0,18,10,720,0,53298,1
2,31848,30797,32581,27232,21683,-4338,280,-1684,-1250,-17746,-15896,261,433,-183,1,0,18,10,760,0,53298,1
2,31929,30784,32553,27233,21671,-3886,648,-1628,-2242,-15930,-15368,276,422,-166,1,0,18,10,800,0,53298,1
2,32090,30789,32561,27234,21659,-3802,1441,-2172,-4099,-14276,-14089,297,411,-143,1,0,18,10,840,0,53298,1
2,32187,30789,32567,27235,21648,-3639,2275,-3430,-4396,-10126,-9501,303,401,-133,1,0,18,10,880,0,53298,1
2,32150,30809,32579,27236,21637,-4100,1398,-2713,-2602,-3035,-2140,307,407,-141,1,0,18,10,920,0,53298,1
2,32096,30812,32595,27237,21626,-4788,-988,-693,-754,2575,3505,301,409,-147,1,0,18,10,960,0,53298,1
1,32069,30814,32604,27238,0,-5031,-3271,1200,-1149,3901,3969,299,413,-153,1,0,18,11,0,0,53298,1
2,32078,30805,32610,27239,21346,-4798,-2659,1646,725,1656,1175,305,425,-153,1,0,18,11,40,0,53298,1
2,32084,30792,32584,27240,21335,-4115,-1198,588,-613,-1048,-1492,303,409,-151,1,0,18,11,80,0,53298,1
2,32078,30789,32592,27241,21325,-3558,-232,-1272,-226,-736,-1141,309,409,-147,1,0,18,11,120,0,53298,1
2,32046,30799,32649,27242,21314,-3242,1183,-3527,6660,4201,3246,281,427,-153,1,0,18,11,160,0,53298,1
2,32214,30919,32985,27243,21301,-3951,2651,-3950,10526,13072,9260,263,441,-177,1,0,18,11,200,0,53298,1
2,31725,30745,32588,27244,21290,-4344,1940,-4055,6045,20142,12869,240,446,-216,1,0,18,11,240,0,53298,1
2,42222,36052,43138,27245,21277,-5484,1418,-3168,1362,25170,16106,223,459,-245,1,0,18,11,280,0,53298,1
2,42315,35993,43135,27246,21266,-5542,591,-2368,-2069,27113,18072,200,466,-284,1,0,18,11,320,0,53298,1
2,42521,36163,43280,27247,21254,-4415,416,-3132,-1984,27147,18850,177,465,-327,1,0,18,11,360,0,53298,1
2,42526,36120,43155,27248,21241,-4052,2636,-4923,399,30173,20204,137,451,-367,1,0,18,11,400,0,53298,1
2,36348,33349,37633,27249,21229,-7316,2077,-3739,-4086,32767,23584,107,409,-417,1,0,18,11,440,0,53298,1
2,37786,33680,38398,27250,21217,-11208,-2642,261,-16435,32767,24964,66,372,-436,1,0,18,11,480,0,53298,1
2,44808,37610,45633,27251,21204,-4594,-5290,4121,-25296,19067,9703,50,366,-420,1,0,18,11,520,0,53298,1
2,45487,37767,46026,27252,21189,-4052,-3667,728,-9961,-7134,-6988,52,372,-398,1,0,18,11,560,0,53298,1
2,45231,37631,45916,27253,21175,-3118,3724,-4636,18150,-18495,-13684,85,403,-389,1,0,18,11,600,0,53298,1
2,45467,37726,46070,27254,21161,-1239,4745,-6464,9207,-14337,-11366,100,420,-392,1,0,18,11,640,0,53298,1
2,45958,37959,46654,27255,21146,-2147,2133,-3487,193,-6079,-4070,100,420,-380,1,0,18,11,680,0,53298,1
2,45172,37662,45975,27256,21133,-1919,1887,-3214,3057,-3184,-1094,107,413,-379,1,0,18,11,720,0,53298,1
2,32839,31320,33643,27257,21119,-3399,723,-1804,5571,-2335,-1775,121,425,-383,1,0,18,11,760,0,53298,1
2,33499,31996,39963,27258,21106,-3918,866,-2151,6954,-7390,-3666,127,437,-369,1,0,18,11,800,0,53298,1
2,32757,31195,33535,27259,21092,-3583,628,-3131,2364,-11606,-6305,138,440,-358,1,0,18,11,840,0,53298,1
2,33112,31208,34396,27260,21079,-4112,311,-2627,1419,-12107,-7435,141,451,-341,1,0,18,11,880,0,53298,1
2,32537,31045,33266,27261,21067,-4283,666,-2615,4298,-12115,-7802,156,458,-316,1,0,18,11,920,0,53298,1
2,32498,31048,33260,27262,21054,-4192,219,-2559,3557,-11971,-8226,162,458,-300,1,0,18,11,960,0,53298,1
1,32553,31051,33304,27263,0,-4793,-295,-1529,1668,-11882,-9125,187,455,-291,1,0,18,12,0,1,53298,1
2,32596,31065,33356,27264,20778,-4969,-50,-1228,2687,-13509,-10040,192,462,-264,1,0,18,12,40,1,53298,1
2,32610,31083,33352,27265,20766,-5417,-395,-739,2009,-15433,-10712,212,462,-246,1,0,18,12,80,1,53298,1
2,32600,31061,33326,27266,20754,-5131,-321,-851,198,-17434,-11732,234,456,-222,1,0,18,12,120,1,53298,1
2,32590,31070,33306,27267,20743,-4175,394,-1737,-969,-18068,-12122,237,445,-207,1,0,18,12,160,1,53298,1
2,32631,31097,33303,27268,20731,-3608,184,-1734,-3984,-16042,-12179,264,432,-176,1,0,18,12,200,1,53298,1
2,32686,31095,33297,27269,20718,-3628,922,-1924,-2640,-13373,-11159,272,428,-172,1,0,18,12,240,1,53298,1
2,32765,31100,33295,27270,20705,-3575,854,-2057,-3016,-10861,-8065,288,414,-156,1,0,18,12,280,1,53298,1
2,32809,31176,33286,27271,20693,-3939,-457,-1587,-4636,-7681,-5178,289,411,-149,1,0,18,12,320,1,53298,1
2,32856,31199,33291,27272,20682,-4274,-450,-1290,-568,-5142,-2586,296,408,-134,1,0,18,12,360,1,53298,1
2,32877,31215,33301,27273,20670,-4560,-864,-799,-354,-2545,-718,282,406,-140,1,0,18,12,400,1,53298,1
2,32860,31210,33308,27274,20659,-4700,-781,-363,148,-155,605,294,404,-140,1,0,18,12,440,1,53298,1
2,32827,31209,33305,27275,20648,-4506,-960,-533,-1001,1760,1635,295,411,-145,1,0,18,12,480,1,53298,1
2,32764,31202,33300,27276,20637,-4107,-709,-1213,-195,4621,2671,285,413,-157,1,0,18,12,520,1,53298,1
2,32676,31196,33288,27277,20625,-3694,785,-2207,4323,8401,5440,279,425,-163,1,0,18,12,560,1,53298,1
2,32583,31188,33303,27278,20612,-3732,1870,-3450,4710,13696,9238,260,440,-180,1,0,18,12,600,1,53298,1
2,31725,30770,32550,27279,20599,-3845,2727,-4526,4404,20062,13824,238,446,-208,1,0,18,12,640,1,53298,1
2,31651,30754,32485,27280,20587,-4342,3352,-4951,3252,26898,18684,210,464,-248,1,0,18,12,680,1,53298,1
2,31645,30750,32475,27281,20575,-5611,3005,-3977,-1562,32293,23147,177,461,-295,1,0,18,12,720,1,53298,1
2,31890,30861,32661,27282,20563,-6575,2184,-4074,-8765,32767,27527,125,435,-363,1,0,18,12,760,1,53298,1
2,32563,31254,33372,27283,20551,-9442,958,-4476,-12762,32767,31967,79,403,-393,1,0,18,12,800,1,53298,1
2,32521,31238,33274,27284,20541,-11648,-6043,74,-22263,32767,28005,39,365,-397,1,0,18,12,840,1,53298,1
2,32495,31275,33239,27285,20529,-4884,-5529,4508,-25101,18194,7416,32,366,-382,1,0,18,12,880,1,53298,1
2,32600,31290,33320,27286,20516,-4144,-1839,518,6104,-6686,-7489,53,389,-399,1,0,18,12,920,1,53298,1
2,32638,31315,33353,27287,20503,-3006,3312,-3878,24019,-16385,-12158,78,394,-402,1,0,18,12,960,1,53298,1
1,32617,31297,33355,27288,0,-1805,3435,-5133,6432,-14204,-11284,82,414,-388,1,0,18,13,0,1,53298,1
2,32625,31290,33371,27289,20210,-1755,2503,-3356,1771,-8564,-6191,95,421,-381,1,0,18,13,40,1,53298,1
2,32626,31275,33360,27290,20198,-2616,1223,-2454,5822,-5519,-3723,104,418,-372,1,0,18,13,80,1,53298,1
2,32650,31289,33381,27291,20186,-3765,1336,-1989,9771,-7080,-4730,115,433,-367,1,0,18,13,120,1,53298,1
2,32675,31288,33395,27292,20174,-4418,1483,-2017,7115,-12044,-5677,132,442,-346,1,0,18,13,160,1,53298,1
2,32682,31268,33390,27293,20162,-4670,766,-2851,-1896,-16028,-7696,142,448,-328,1,0,18,13,200,1,53298,1
2,32688,31270,33390,27294,20150,-4917,-112,-2314,-2142,-16402,-8652,155,453,-297,1,0,18,13,240,1,53298,1
2,32683,31253,33392,27295,20138,-5725,-544,-1134,2369,-16769,-10188,170,450,-274,1,0,18,13,280,1,53298,1
2,32695,31251,33406,27296,20127,-5571,-718,-972,2629,-18757,-12012,185,451,-237,1,0,18,13,320,1,53298,1
2,32683,31254,33395,27297,20116,-5285,-665,-1325,643,-19778,-14199,219,449,-219,1,0,18,13,360,1,53298,1
2,32680,31240,33393,27298,20106,-4878,52,-1442,-274,-19446,-15499,233,443,-201,1,0,18,13,400,1,53298,1
2,32703,31238,33392,27299,20095,-4211,749,-1674,-2188,-18384,-15783,256,430,-168,1,0,18,13,440,1,53298,1
2,32781,31238,33385,27300,20085,-3727,927,-2313,-4985,-16287,-15023,269,423,-155,1,0,18,13,480,1,53298,1
2,32898,31245,33398,27301,20075,-3427,965,-2809,-4041,-12705,-12085,288,416,-136,1,0,18,13,520,1,53298,1
2,33012,31255,33407,27302,20065,-3627,1675,-2498,242,-7715,-7406,293,411,-135,1,0,18,13,560,1,53298,1
2,33009,31258,33409,27303,20056,-3973,790,-1902,507,-2840,-1658,289,411,-149,1,0,18,13,600,1,53298,1
2,32958,31254,33415,27304,20046,-4442,-160,-694,127,1186,2441,282,418,-136,1,0,18,13,640,1,53298,1
2,32882,31253,33408,27305,20037,-4774,-1597,585,-995,3477,3685,291,415,-143,1,0,18,13,680,1,53298,1
2,32862,31237,33398,27306,20027,-5015,-2334,1474,-798,3095,2839,273,417,-133,1,0,18,13,720,1,53298,1
2,32849,31230,33396,27307,20017,-4845,-2148,1470,-560,1028,481,272,418,-142,1,0,18,13,760,1,53298,1
2,32857,31215,33380,27308,20007,-4535,-1322,438,-156,-427,-1333,286,420,-142,1,0,18,13,800,1,53298,1
2,32859,31222,33386,27309,19997,-4156,-227,-929,466,16,-1196,275,415,-151,1,0,18,13,840,1,53298,1
2,32800,31224,33378,27310,19986,-3954,461,-2094,799,3014,954,277,421,-159,1,0,18,13,880,1,53298,1
2,31724,30702,32440,27311,19974,-3457,1120,-3283,2518,7803,4916,266,428,-176,1,0,18,13,920,1,53298,1
2,31588,30676,32347,27312,19963,-3534,1822,-3543,4988,14503,9736,251,443,-183,1,0,18,13,960,1,53298,1
1,31526,30687,32334,27313,0,-4047,2552,-3424,5055,19355,14212,230,452,-218,1,0,18,14,0,0,53298,1
2,31512,30679,32323,27314,19644,-4362,2278,-3378,567,22849,18052,209,461,-247,1,0,18,14,40,0,53298,1
2,31501,30679,32322,27315,19633,-5085,1695,-4149,-1246,26951,22423,165,447,-287,1,0,18,14,80,0,53298,1
2,31487,30680,32301,27316,19622,-5590,2878,-5123,-479,32506,25964,132,450,-340,1,0,18,14,120,0,53298,1
2,31599,30758,32592,27317,19610,-8320,2158,-5985,-8889,32767,25779,93,411,-385,1,0,18,14,160,0,53298,1
2,32009,30885,32800,27318,19599,-13010,-2858,-1157,-21782,32767,25387,47,379,-397,1,0,18,14,200,0,53298,1
2,31612,30767,32440,27319,19588,-4926,-5280,4226,-29788,25279,12000,25,357,-387,1,0,18,14,240,0,53298,1
2,31818,30848,32609,27320,19577,-3412,-2409,2195,34,626,-1614,47,363,-403,1,0,18,14,280,0,53298,1
2,32386,31175,33118,27321,19564,-3036,3202,-2804,23889,-13243,-8432,67,387,-409,1,0,18,14,320,0,53298,1
2,32146,30925,32937,27322,19552,-1466,4449,-4569,4707,-12818,-9035,74,408,-398,1,0,18,14,360,0,53298,1
2,32088,30925,32882,27323,19539,-1157,2787,-3737,-10582,-7326,-4319,67,393,-375,1,0,18,14,400,0,53298,1
2,32048,30903,32816,27324,19526,-2338,554,-2102,-3947,-3467,-378,70,406,-372,1,0,18,14,440,0,53298,1
2,32062,30894,32819,27325,19513,-3876,-441,-1195,8508,-5096,-3540,86,414,-376,1,0,18,14,480,0,53298,1
2,31988,30846,32755,27326,19501,-5114,266,-1830,14761,-13125,-8495,103,427,-369,1,0,18,14,520,0,53298,1
2,32002,30834,32767,27327,19489,-5372,530,-3234,10450,-18926,-12374,121,439,-341,1,0,18,14,560,0,53298,1
2,32011,30829,32795,27328,19477,-6802,432,-1767,8538,-20766,-14169,148,444,-320,1,0,18,14,600,0,53298,1
2,31890,30790,32683,27329,19465,-6281,-146,-2195,7240,-23762,-15063,169,463,-275,1,0,18,14,640,0,53298,1
2,31859,30763,32627,27330,19453,-5948,356,-1678,5049,-24121,-15902,192,452,-248,1,0,18,14,680,0,53298,1
2,31830,30750,32598,27331,19441,-4539,317,-3272,-477,-22438,-17466,223,449,-223,1,0,18,14,720,0,53298,1
2,31832,30752,32594,27332,19428,-3753,1347,-3583,-11,-17585,-16854,244,446,-202,1,0,18,14,760,0,53298,1
2,31865,30743,32560,27333,19416,-2901,1551,-3132,-270,-11881,-15124,264,434,-184,1,0,18,14,800,0,53298,1
2,31958,30745,32563,27334,19402,-2794,1997,-2887,-1428,-7702,-11651,276,424,-174,1,0,18,14,840,0,53298,1
2,32010,30751,32562,27335,19390,-2801,1189,-2497,-2440,-4290,-5807,278,430,-184,1,0,18,14,880,0,53298,1
2,32000,30730,32575,27336,19378,-3554,-347,-1378,-112,-1643,-988,278,434,-164,1,0,18,14,920,0,53298,1
2,31985,30710,32590,27337,19367,-4236,-1156,-87,1937,-1244,1351,277,427,-173,1,0,18,14,960,0,53298,1
1,31982,30717,32595,27338,0,-4624,-2026,-75,-683,-1817,664,279,431,-171,1,0,18,15,0,1,53298,1
2,31983,30720,32594,27339,19077,-4581,-1734,1,-390,-1619,-917,286,426,-164,1,0,18,15,40,1,53298,1
2,32001,30729,32591,27340,19066,-4591,-1081,-107,1018,-1571,-1206,283,427,-167,1,0,18,15,80,1,53298,1
2,32022,30723,32610,27341,19055,-4700,-1063,-173,245,-1021,-1207,275,421,-157,1,0,18,15,120,1,53298,1
2,32048,30737,32622,27342,19045,-4945,-1505,-111,-143,-543,-1018,277,429,-157,1,0,18,15,160,1,53298,1
2,32035,30729,32603,27343,19035,-4633,-768,-538,350,-377,-846,282,418,-156,1,0,18,15,200,1,53298,1
2,32005,30728,32600,27344,19024,-4130,-408,-1655,250,595,437,280,418,-154,1,0,18,15,240,1,53298,1
2,31931,30735,32601,27345,19012,-3694,737,-3098,454,3623,2757,273,435,-173,1,0,18,15,280,1,53298,1
2,31842,30722,32580,27346,19001,-3176,1202,-5122,-1192,9906,6459,266,448,-202,1,0,18,15,320,1,53298,1
2,31797,30732,32580,27347,18989,-3386,2004,-5809,3267,19759,11878,240,454,-224,1,0,18,15,360,1,53298,1
2,31783,30739,32586,27348,18977,-4106,2948,-5581,7352,29112,16842,214,460,-268,1,0,18,15,400,1,53298,1
2,31749,30717,32550,27349,18965,-4636,2831,-5164,2085,32767,20096,180,458,-340,1,0,18,15,440,1,53298,1
2,31754,30715,32554,27350,18952,-7114,3294,-4195,-6521,32767,23800,145,431,-397,1,0,18,15,480,1,53298,1
2,31792,30744,32590,27351,18941,-12152,815,-2142,-20364,32767,29435,84,388,-418,1,0,18,15,520,1,53298,1
2,31627,30652,32373,27352,18930,-10848,-7081,1629,-32768,32300,26606,34,358,-404,1,0,18,15,560,1,53298,1
2,31566,30666,32341,27353,18918,-3086,-7681,2488,-32768,10151,3820,40,366,-388,1,0,18,15,600,1,53298,1
2,31629,30688,32409,27354,18905,-5342,-1789,374,1185,-12290,-14373,69,391,-387,1,0,18,15,640,1,53298,1
2,31673,30714,32468,27355,18892,-5081,3438,-4118,30127,-21626,-16003,93,413,-385,1,0,18,15,680,1,53298,1
2,31660,30708,32459,27356,18878,-2446,3023,-5787,21542,-19834,-12539,112,434,-368,1,0,18,15,720,1,53298,1
2,31689,30713,32493,27357,18866,-2623,2223,-3642,6878,-13699,-9005,127,437,-361,1,0,18,15,760,1,53298,1
2,31688,30706,32477,27358,18853,-3173,983,-2965,410,-11540,-7680,137,447,-345,1,0,18,15,800,1,53298,1
2,31701,30698,32477,27359,18841,-4769,383,-2604,3078,-11501,-8717,152,452,-316,1,0,18,15,840,1,53298,1
2,31743,30709,32517,27360,18829,-6006,949,-1819,9616,-14866,-8358,167,463,-299,1,0,18,15,880,1,53298,1
2,31735,30702,32529,27361,18818,-5692,-530,-2232,3269,-19198,-8577,177,465,-275,1,0,18,15,920,1,53298,1
2,31720,30692,32515,27362,18806,-5433,-1325,-1717,-827,-19500,-10738,198,468,-244,1,0,18,15,960,1,53298,1
1,31714,30681,32506,27363,0,-4754,-602,-1616,2131,-18177,-12807,208,450,-216,1,0,18,16,0,1,53298,1
2,31728,30687,32509,27364,18511,-4082,450,-1678,4894,-16379,-12561,236,444,-198,1,0,18,16,40,1,53298,1
2,31742,30701,32504,27365,18500,-3616,910,-1838,2393,-13982,-11549,246,436,-184,1,0,18,16,80,1,53298,1
2,31791,30689,32504,27366,18489,-3977,470,-787,-682,-12312,-9941,253,427,-171,1,0,18,16,120,1,53298,1
2,31891,30693,32511,27367,18477,-3556,546,-1823,-669,-12050,-7896,261,423,-151,1,0,18,16,160,1,53298,1
2,31952,30694,32529,27368,18467,-3787,1030,-2243,2678,-9651,-4060,265,415,-139,1,0,18,16,200,1,53298,1
2,31965,30702,32552,27369,18456,-3975,481,-1876,1109,-6084,-271,267,413,-137,1,0,18,16,240,1,53298,1
2,31950,30698,32572,27370,18446,-4476,-1718,-978,-1908,-2073,1444,257,409,-131,1,0,18,16,280,1,53298,1
2,31985,30723,32633,27371,18437,-4843,-2374,364,-269,208,976,263,411,-129,1,0,18,16,320,1,53298,1
2,32184,30757,32791,27372,18427,-4814,-1633,519,-453,581,-891,258,416,-142,1,0,18,16,360,1,53298,1
2,32832,31162,33386,27373,18417,-4465,-970,212,-689,552,-1510,269,413,-139,1,0,18,16,400,1,53298,1
2,32794,31140,33363,27374,18406,-4293,-638,275,-854,785,-884,274,420,-138,1,0,18,16,440,1,53298,1
2,32792,31146,33361,27375,18396,-4404,-987,537,-453,767,331,267,421,-143,1,0,18,16,480,1,53298,1
2,32726,31108,33308,27376,18386,-4465,-1343,383,-209,-51,851,268,418,-146,1,0,18,16,520,1,53298,1
2,32738,31113,33329,27377,18376,-4221,-1195,-838,-761,-302,537,271,417,-135,1,0,18,16,560,1,53298,1
2,32698,31120,33310,27378,18366,-4073,-253,-2032,150,2016,1192,262,422,-148,1,0,18,16,600,1,53298,1
2,32627,31110,33305,27379,18356,-3714,1146,-3417,-498,6659,3081,257,421,-159,1,0,18,16,640,1,53298,1
2,32577,31089,33300,27380,18344,-3671,1447,-4399,-2309,13951,6623,247,445,-177,1,0,18,16,680,1,53298,1
2,32525,31060,33270,27381,18332,-4000,1912,-5041,1192,22378,11845,231,451,-215,1,0,18,16,720,1,53298,1
2,32489,31057,33235,27382,18320,-4480,2243,-5022,4272,30452,16191,201,459,-267,1,0,18,16,760,1,53298,1
2,32489,31061,33237,27383,18308,-5025,1987,-4813,72,32767,18762,183,463,-321,1,0,18,16,800,1,53298,1
2,32505,31076,33255,27384,18296,-7938,2204,-3871,-7066,32767,22159,142,434,-376,1,0,18,16,840,1,53298,1
2,32585,31155,33306,27385,18285,-11637,-902,-2012,-15041,32767,24536,108,406,-420,1,0,18,16,880,1,53298,1
2,32360,31078,33104,27386,18274,-9103,-5576,1129,-21852,32767,21032,62,370,-424,1,0,18,16,920,1,53298,1
2,32364,31075,33105,27387,18262,-3881,-3514,3696,-15552,13543,5091,63,373,-421,1,0,18,16,960,1,53298,1
1,32348,31048,33089,27388,0,-3829,207,-1047,6558,-9045,-7251,82,386,-430,1,0,18,17,0,1,53298,1
2,32415,31090,33135,27389,17945,-2137,3562,-4848,9523,-14958,-10784,89,407,-407,1,0,18,17,40,1,53298,1
2,32417,31097,33155,27390,17932,-1581,2515,-4600,-3979,-10200,-8055,100,418,-394,1,0,18,17,80,1,53298,1
2,32428,31086,33171,27391,17918,-2416,-32,-2313,-2008,-6291,-4269,103,415,-383,1,0,18,17,120,1,53298,1
2,32449,31093,33173,27392,17904,-2987,408,-1950,8934,-7270,-5828,120,430,-390,1,0,18,17,160,1,53298,1
2,32488,31101,33215,27393,17891,-5244,144,-725,14156,-11750,-7691,132,436,-358,1,0,18,17,200,1,53298,1
2,32504,31083,33220,27394,17879,-6418,1125,-858,13223,-19797,-9170,163,443,-343,1,0,18,17,240,1,53298,1
2,32530,31088,33257,27395,17866,-6373,179,-1845,4459,-26648,-9879,178,458,-302,1,0,18,17,280,1,53298,1
2,32563,31107,33287,27396,17853,-6465,211,-1911,866,-28206,-10558,186,458,-262,1,0,18,17,320,1,53298,1
2,32556,31114,33289,27397,17842,-5853,168,-1737,240,-27816,-11256,213,461,-221,1,0,18,17,360,1,53298,1
2,32559,31087,33279,27398,17829,-5600,435,-1518,-1857,-26734,-12017,215,443,-193,1,0,18,17,400,1,53298,1
2,32565,31079,33269,27399,17817,-4578,44,-2082,-5482,-25308,-13151,236,432,-156,1,0,18,17,440,1,53298,1
2,32595,31061,33259,27400,17805,-3450,613,-3080,-2825,-21926,-12511,254,408,-134,1,0,18,17,480,1,53298,1
2,32638,31053,33255,27401,17793,-2961,1392,-3751,550,-16861,-9821,268,394,-112,1,0,18,17,520,1,53298,1
2,32709,31067,33286,27402,17782,-3056,1151,-3872,-434,-9920,-5614,270,394,-106,1,0,18,17,560,1,53298,1
2,32716,31070,33318,27403,17771,-4079,266,-2345,204,-1805,78,266,400,-104,1,0,18,17,600,1,53298,1
2,32400,30904,33020,27404,17760,-5005,-941,49,-717,3498,2914,263,401,-117,1,0,18,17,640,1,53298,1
2,31917,30644,32670,27405,17750,-5561,-2874,2240,-3414,4218,2718,263,403,-117,1,0,18,17,680,1,53298,1
2,31931,30643,32598,27406,17740,-5029,-2128,2237,-1753,670,312,253,399,-113,1,0,18,17,720,1,53298,1
2,31907,30633,32534,27407,17729,-4170,-1138,1022,-1257,-1942,-1583,264,408,-106,1,0,18,17,760,1,53298,1
2,31922,30621,32563,27408,17717,-3757,-296,125,-733,-1611,-1807,272,396,-108,1,0,18,17,800,1,53298,1
2,31956,30620,32578,27409,17706,-4164,-690,59,-1083,281,-1028,267,401,-119,1,0,18,17,840,1,53298,1
2,31944,30609,32558,27410,17696,-4547,-603,281,163,1952,-181,275,397,-123,1,0,18,17,880,1,53298,1
2,31800,30581,32439,27411,17684,-5028,-869,380,287,2836,781,272,406,-124,1,0,18,17,920,1,53298,1
2,31749,30565,32429,27412,17673,-4958,-785,-546,-203,3339,1666,268,404,-130,1,0,18,17,960,1,53298,1
1,31697,30571,32411,27413,0,-4449,776,-2280,982,5474,3326,263,421,-143,1,0,18,18,0,0,53298,1
2,31670,30587,32419,27414,17380,-4064,1704,-3399,-605,11123,7135,254,428,-154,1,0,18,18,40,0,53298,1
2,31691,30599,32473,27415,17369,-4110,1988,-4107,303,18740,12220,230,446,-172,1,0,18,18,80,0,53298,1
2,31757,30616,32525,27416,17357,-4465,2471,-3560,4054,25570,17335,198,456,-236,1,0,18,18,120,0,53298,1
2,32609,31160,33753,27417,17344,-4707,2617,-2954,1347,29134,20244,166,456,-272,1,0,18,18,160,0,53298,1
2,43697,32603,36657,27418,17331,-5129,1861,-4055,-5321,32767,24098,127,441,-321,1,0,18,18,200,0,53298,1
2,34122,36484,33321,27419,17317,-8343,2496,-3687,-10722,32767,28390,89,415,-363,1,0,18,18,240,0,53298,1
2,32418,31033,33158,27420,17304,-14005,-4395,-1326,-21544,32767,32767,42,374,-376,1,0,18,18,280,0,53298,1
2,31644,30681,32462,27421,17291,-3446,-6301,1797,-23814,25761,17398,34,362,-364,1,0,18,18,320,0,53298,1
2,31605,30677,32456,27422,17277,-3212,-1979,1932,-12837,1460,-3169,36,370,-366,1,0,18,18,360,0,53298,1
2,32305,31946,37984,27423,17263,-3570,2643,-2800,11151,-13707,-11483,53,401,-373,1,0,18,18,400,0,53298,1
2,31874,30871,32593,27424,17249,-2063,4412,-4142,11996,-12282,-11252,71,421,-365,1,0,18,18,440,0,53298,1
2,31683,30694,32470,27425,17235,-2009,3069,-3527,-1834,-7668,-7264,71,421,-349,1,0,18,18,480,0,53298,1
2,31689,30708,32484,27426,17220,-1867,2534,-3091,-3045,-2791,-3464,75,417,-349,1,0,18,18,520,0,53298,1
2,31635,30669,32403,27427,17206,-3050,2007,-1496,5351,1028,-2180,82,414,-362,1,0,18,18,560,0,53298,1
2,31674,30664,32409,27428,17193,-2731,1618,-1673,12093,-628,-2801,94,418,-356,1,0,18,18,600,0,53298,1
2,31646,30620,32410,27429,17180,-3634,1345,-703,12210,-4097,-3678,111,421,-351,1,0,18,18,640,0,53298,1
2,31572,30591,32361,27430,17167,-4472,392,-448,6265,-10086,-6062,115,435,-345,1,0,18,18,680,0,53298,1
2,31580,30594,32380,27431,17154,-5565,-705,-653,4741,-17233,-8812,127,445,-319,1,0,18,18,720,0,53298,1
2,31648,30615,32408,27432,17141,-6075,-137,-1211,9957,-23383,-10422,147,447,-291,1,0,18,18,760,0,53298,1
2,31670,30610,32401,27433,17129,-6219,-149,-1321,9854,-26382,-10782,158,452,-250,1,0,18,18,800,0,53298,1
2,31645,30597,32412,27434,17117,-5606,392,-1658,5436,-27618,-11832,184,442,-214,1,0,18,18,840,0,53298,1
2,31612,30579,32357,27435,17104,-5414,871,-1398,-229,-27002,-12548,198,440,-176,1,0,18,18,880,0,53298,1
2,31604,30573,32324,27436,17092,-5187,661,-1613,-5021,-26060,-13348,226,420,-144,1,0,18,18,920,0,53298,1
2,31589,30576,32294,27437,17079,-4938,668,-1780,-5240,-23895,-12969,238,402,-118,1,0,18,18,960,0,53298,1
1,31602,30587,32319,27438,0,-4128,1323,-2602,-1888,-20802,-11699,250,388,-96,1,0,18,19,0,1,53298,1
2,31594,30594,32315,27439,16814,-3806,1790,-3432,-2803,-14283,-8586,260,384,-84,1,0,18,19,40,1,53298,1
2,31590,30579,32319,27440,16801,-3798,1115,-3127,-1953,-5435,-4048,266,384,-88,1,0,18,19,80,1,53298,1
2,31604,30581,32301,27441,16789,-4346,361,-1489,412,2926,1195,263,393,-95,1,0,18,19,120,1,53298,1
2,31607,30563,32314,27442,16778,-4711,-797,225,192,7561,4471,244,394,-96,1,0,18,19,160,1,53298,1
2,31576,30585,32301,27443,16767,-4709,-1084,849,1250,9441,5011,243,411,-115,1,0,18,19,200,1,53298,1
2,31608,30591,32346,27444,16755,-4284,-10,-114,4337,9991,5210,234,418,-126,1,0,18,19,240,1,53298,1
2,31626,30608,32366,27445,16742,-4350,1331,-1297,5499,12050,6548,216,436,-144,1,0,18,19,280,1,53298,1
2,31610,30601,32362,27446,16729,-4382,1595,-2342,3559,15417,9048,201,431,-163,1,0,18,19,320,1,53298,1
2,31583,30601,32362,27447,16715,-4645,1678,-3095,2494,19972,12172,187,449,-203,1,0,18,19,360,1,53298,1
2,31577,30608,32360,27448,16702,-5024,1781,-3267,1955,24770,14675,159,445,-243,1,0,18,19,400,1,53298,1
2,31535,30592,32321,27449,16689,-5051,1525,-3497,-544,28939,15857,133,449,-277,1,0,18,19,440,1,53298,1
2,31480,30584,32271,27450,16676,-5010,1660,-4050,-4977,32008,15752,124,440,-316,1,0,18,19,480,1,53298,1
2,31526,30622,32318,27451,16663,-7363,1142,-3633,-11143,32767,17299,94,424,-360,1,0,18,19,520,1,53298,1
2,31552,30648,32284,27452,16650,-9773,-695,-735,-15501,32767,19609,57,389,-385,1,0,18,19,560,1,53298,1
2,31630,30664,32372,27453,16637,-4561,-4638,696,-19657,26750,16442,37,363,-379,1,0,18,19,600,1,53298,1
2,31769,30729,32479,27454,16623,-2801,-1741,3052,-8206,12038,4079,40,372,-384,1,0,18,19,640,1,53298,1
2,31963,30851,32610,27455,16609,-3334,228,-261,7774,-7606,-5667,53,379,-391,1,0,18,19,680,1,53298,1
2,31705,30796,32430,27456,16595,-2562,3962,-3733,12798,-14242,-9533,62,392,-382,1,0,18,19,720,1,53298,1
2,31707,30775,32435,27457,16580,-999,4037,-5067,-2845,-9566,-6366,65,403,-371,1,0,18,19,760,1,53298,1
2,31705,30750,32500,27458,16567,-1412,2560,-3868,-10758,-2352,-1318,66,396,-366,1,0,18,19,800,1,53298,1
2,31635,30750,32380,27459,16553,-2523,1078,-2159,-3320,909,937,66,404,-364,1,0,18,19,840,1,53298,1
2,31577,30694,32305,27460,16539,-2362,1587,-2536,7548,-779,-1355,73,407,-371,1,0,18,19,880,1,53298,1
2,31649,30736,32379,27461,16525,-2720,2130,-2544,9339,-3701,-3304,90,420,-366,1,0,18,19,920,1,53298,1
2,31617,30741,32370,27462,16512,-3447,1957,-1863,4901,-6415,-4820,84,416,-360,1,0,18,19,960,1,53298,1
1,31682,30730,32400,27463,0,-3181,1075,-2506,169,-8887,-6031,96,414,-350,1,0,18,20,0,1,53298,1
2,31709,30784,32397,27464,16249,-4195,-269,-1616,2565,-8830,-7115,112,426,-340,1,0,18,20,40,1,53298,1
2,31732,30773,32717,27465,16235,-5176,-996,-1187,11290,-12350,-9516,122,440,-328,1,0,18,20,80,1,53298,1
2,32295,32668,32837,27466,16220,-5533,-257,-1569,14964,-18082,-11631,142,452,-300,1,0,18,20,120,1,53298,1
2,31779,30809,32638,27467,16205,-6901,76,-759,13519,-22410,-12395,167,447,-267,1,0,18,20,160,1,53298,1
2,31628,30726,32349,27468,16191,-6179,283,-1292,5457,-26368,-13316,188,458,-234,1,0,18,20,200,1,53298,1
2,31783,30786,32487,27469,16178,-5736,734,-1766,-1962,-26652,-13693,211,447,-197,1,0,18,20,240,1,53298,1
2,31801,30785,32498,27470,16164,-4753,987,-2676,-5855,-23729,-14170,226,434,-174,1,0,18,20,280,1,53298,1
2,31867,30809,32560,27471,16150,-4137,1497,-2745,-4977,-17660,-12674,244,420,-156,1,0,18,20,320,1,53298,1
2,31950,30864,32623,27472,16137,-3946,1295,-1577,-3831,-12715,-10877,260,416,-146,1,0,18,20,360,1,53298,1
2,32012,30890,32696,27473,16124,-3378,-131,-1604,-4206,-9713,-8512,271,405,-127,1,0,18,20,400,1,53298,1
2,31995,30886,32695,27474,16111,-3292,848,-2315,-2253,-7038,-5784,275,395,-123,1,0,18,20,440,1,53298,1
2,32012,30871,32682,27475,16098,-3584,836,-1892,-2940,-3343,-2480,283,397,-119,1,0,18,20,480,1,53298,1
2,32025,30865,32694,27476,16086,-3991,-349,-889,-1308,376,1529,274,406,-132,1,0,18,20,520,1,53298,1
2,32001,30869,32689,27477,16073,-4451,-1113,-30,95,2529,3945,267,403,-133,1,0,18,20,560,1,53298,1
2,31985,30856,32677,27478,16061,-4499,-1501,327,433,3645,3520,271,419,-141,1,0,18,20,600,1,53298,1
2,31948,30826,32640,27479,16049,-4458,-858,-73,1620,4403,2656,261,425,-133,1,0,18,20,640,1,53298,1
2,31955,30812,32640,27480,16037,-4400,-262,-885,3059,5947,3112,256,418,-140,1,0,18,20,680,1,53298,1
2,31935,30823,32637,27481,16025,-4190,1417,-2805,5401,9343,5247,248,434,-156,1,0,18,20,720,1,53298,1
2,31870,30802,32601,27482,16013,-4019,2406,-5077,4480,15634,9412,237,449,-181,1,0,18,20,760,1,53298,1
2,31836,30785,32584,27483,16000,-4202,3541,-6739,1419,24916,13354,197,461,-235,1,0,18,20,800,1,53298,1
2,31824,30778,32536,27484,15986,-5486,4033,-6641,-1800,32767,17673,175,449,-299,1,0,18,20,840,1,53298,1
2,31690,30744,32456,27485,15972,-7708,3339,-5196,-5520,32767,23732,129,437,-359,1,0,18,20,880,1,53298,1
2,32002,31003,32738,27486,15959,-13119,1593,-3169,-13314,32767,30600,82,390,-406,1,0,18,20,920,1,53298,1
2,31307,30670,31969,27487,15948,-14064,-5332,681,-24100,32767,32767,33,337,-407,1,0,18,20,960,1,53298,1
1,31205,30642,31920,27488,0,-749,-6894,3475,-20155,28657,16752,29,337,-421,1,0,18,21,0,1,53298,1
2,31267,30583,31946,27489,15685,-2908,-2019,2014,-630,-2349,-4969,32,348,-418,1,0,18,21,40,1,53298,1
2,31275,30657,31985,27490,15672,-3449,2190,-3018,10273,-17017,-12034,54,378,-412,1,0,18,21,80,1,53298,1
2,31287,30651,31991,27491,15659,-1649,5575,-5284,5490,-16846,-10269,59,393,-399,1,0,18,21,120,1,53298,1
2,31270,30652,31985,27492,15645,-646,2859,-4670,-11447,-7311,-4238,62,392,-382,1,0,18,21,160,1,53298,1
2,31278,30647,32027,27493,15631,-1750,690,-2834,-10073,-2065,-573,55,395,-369,1,0,18,21,200,1,53298,1
2,31595,30779,32271,27494,15618,-2117,1578,-2177,6334,-1055,-1478,64,394,-384,1,0,18,21,240,1,53298,1
2,32323,31146,32976,27495,15605,-2806,241,-1807,16390,-3866,-3570,87,397,-387,1,0,18,21,280,1,53298,1
2,32263,31085,32938,27496,15591,-3740,2177,-2125,15485,-10124,-7097,96,416,-372,1,0,18,21,320,1,53298,1
2,32300,31150,32982,27497,15578,-3991,1304,-2268,1652,-15084,-8612,106,426,-356,1,0,18,21,360,1,53298,1
2,32321,31165,32976,27498,15565,-5089,153,-1217,-3787,-17085,-10535,126,434,-334,1,0,18,21,400,1,53298,1
2,32332,31162,33010,27499,15552,-6181,-1341,-1259,1263,-20840,-12357,147,455,-299,1,0,18,21,440,1,53298,1
2,32338,31155,33016,27500,15539,-6599,-736,-999,9848,-25459,-14085,169,455,-267,1,0,18,21,480,1,53298,1
2,32315,31126,33010,27501,15526,-6184,785,-1267,7949,-28018,-15567,191,445,-231,1,0,18,21,520,1,53298,1
2,32358,31130,33057,27502,15512,-6128,504,-1379,-203,-27485,-16519,213,445,-191,1,0,18,21,560,1,53298,1
2,32416,31153,33085,27503,15498,-5995,949,-1876,-3190,-25698,-17037,242,426,-152,1,0,18,21,600,1,53298,1
2,32392,31146,33070,27504,15485,-5004,1507,-2486,-4104,-21943,-15945,256,410,-132,1,0,18,21,640,1,53298,1
2,32434,31158,33081,27505,15472,-4129,2296,-3377,-3943,-16484,-13554,272,402,-122,1,0,18,21,680,1,53298,1
2,32372,31106,33041,27506,15459,-3319,2273,-4296,-2626,-9064,-7673,273,399,-119,1,0,18,21,720,1,53298,1
2,32437,31149,33076,27507,15447,-3631,1726,-3003,-474,326,-99,265,397,-131,1,0,18,21,760,1,53298,1
2,32517,31162,33163,27508,15435,-4113,-537,-375,-1106,6407,5221,266,406,-124,1,0,18,21,800,1,53298,1
2,32525,31148,33179,27509,15423,-4346,-2328,1788,-571,6380,6267,258,414,-138,1,0,18,21,840,1,53298,1
2,32490,31072,33147,27510,15411,-4428,-2679,2527,-91,2856,3359,263,415,-139,1,0,18,21,880,1,53298,1
2,32506,31065,33164,27511,15399,-4213,-1946,1442,-975,-1768,-268,269,417,-135,1,0,18,21,920,1,53298,1
2,32506,31071,33152,27512,15387,-4176,-775,156,-648,-3061,-2598,260,408,-134,1,0,18,21,960,1,53298,1
1,32470,30986,33110,27513,0,-4195,92,-766,1187,-1604,-2116,262,410,-130,1,0,18,22,0,1,53298,1
2,32420,30970,33094,27514,15122,-4280,407,-1603,1841,1881,98,258,412,-136,1,0,18,22,40,1,53298,1
2,32448,31156,33108,27515,15109,-4196,1014,-2639,2745,6773,3314,243,423,-137,1,0,18,22,80,1,53298,1
2,32451,31177,33127,27516,15096,-4351,1768,-3335,4028,12530,6986,240,434,-164,1,0,18,22,120,1,53298,1
2,32421,31175,33126,27517,15083,-4679,2483,-3983,3701,18844,11370,224,446,-194,1,0,18,22,160,1,53298,1
2,32401,31169,33112,27518,15070,-4747,2213,-4214,810,24954,15397,199,459,-233,1,0,18,22,200,1,53298,1
2,32346,31143,33069,27519,15057,-5148,2400,-4621,-1782,30777,18803,169,453,-277,1,0,18,22,240,1,53298,1
2,32348,31170,33073,27520,15043,-6020,2747,-4344,-4569,32767,22730,128,446,-328,1,0,18,22,280,1,53298,1
2,32428,31222,33134,27521,15030,-10488,1989,-2926,-10488,32767,26936,89,417,-373,1,0,18,22,320,1,53298,1
2,31227,30635,31992,27522,15018,-11789,-4604,-316,-21422,32767,28790,35,367,-395,1,0,18,22,360,1,53298,1
2,31171,30625,31943,27523,15003,-2982,-4767,1020,-21379,22595,15025,27,361,-389,1,0,18,22,400,1,53298,1
2,31210,30614,31937,27524,14988,-3665,373,2560,-6830,4132,-2901,44,376,-398,1,0,18,22,440,1,53298,1
2,31173,30599,31900,27525,14973,-3306,168,-1302,11442,-10585,-8246,57,387,-393,1,0,18,22,480,1,53298,1
2,31180,30578,31913,27526,14957,-2224,4039,-2495,14870,-12752,-9846,79,405,-375,1,0,18,22,520,1,53298,1
2,31185,30589,31924,27527,14942,-951,3446,-3302,-1496,-9488,-5871,75,399,-365,1,0,18,22,560,1,53298,1
2,31183,30571,31940,27528,14927,-1816,1477,-2355,-8264,-5276,-2338,77,409,-363,1,0,18,22,600,1,53298,1
2,31204,30566,31941,27529,14913,-2558,1344,-1856,-1279,-4303,-2651,79,417,-355,1,0,18,22,640,1,53298,1
2,31244,30582,31955,27530,14899,-3562,1157,-1359,6861,-7021,-4078,88,416,-346,1,0,18,22,680,1,53298,1
2,31246,30585,31975,27531,14885,-5203,459,-855,7105,-12669,-7264,108,432,-344,1,0,18,22,720,1,53298,1
2,31256,30569,32004,27532,14872,-5632,1018,-1355,3633,-18442,-10857,122,438,-310,1,0,18,22,760,1,53298,1
2,31301,30575,32039,27533,14859,-5713,5,-1814,3881,-21940,-12231,144,438,-278,1,0,18,22,800,1,53298,1
2,31320,30588,32076,27534,14846,-6093,-306,-600,8179,-23033,-12962,152,446,-236,1,0,18,22,840,1,53298,1
2,31353,30566,32116,27535,14833,-6198,-918,-279,7125,-26033,-13916,170,450,-208,1,0,18,22,880,1,53298,1
2,31324,30644,32113,27536,14821,-5695,-104,-1114,4161,-27140,-15281,200,438,-156,1,0,18,22,920,1,53298,1
2,31348,30464,32130,27537,14807,-5346,924,-2509,-276,-25606,-16542,222,418,-140,1,0,18,22,960,1,53298,1
1,31353,30605,32136,27538,0,-5041,2255,-3901,-1643,-21237,-15650,235,401,-129,1,0,18,23,0,0,53298,1
2,31350,30595,32107,27539,14557,-4324,3178,-4345,-500,-14256,-11195,240,398,-114,1,0,18,23,40,0,53298,1
2,31352,30571,32106,27540,14543,-3596,2380,-3919,-221,-4492,-4042,238,398,-108,1,0,18,23,80,0,53298,1
2,31373,30595,32113,27541,14528,-4369,1002,-1176,-22,4486,1998,240,410,-124,1,0,18,23,120,0,53298,1
2,31377,30516,32117,27542,14515,-4596,-1127,812,-647,6834,5203,227,409,-127,1,0,18,23,160,0,53298,1
2,31376,30600,32112,27543,14503,-4263,-2050,2003,-715,5126,4741,228,408,-126,1,0,18,23,200,0,53298,1
2,31378,30597,32106,27544,14491,-3940,-1784,1880,-219,1581,1988,239,409,-121,1,0,18,23,240,0,53298,1
2,31380,30557,32113,27545,14480,-3942,-1146,1311,262,-1691,-544,227,421,-127,1,0,18,23,280,0,53298,1
2,31374,30431,32119,27546,14469,-4073,-495,174,84,-2667,-2165,235,405,-119,1,0,18,23,320,0,53298,1
2,31379,30485,32122,27547,14457,-4164,36,-724,1358,-1450,-2270,223,413,-109,1,0,18,23,360,0,53298,1
2,31379,30547,32115,27548,14444,-4362,528,-1492,1846,1788,-1366,236,412,-122,1,0,18,23,400,0,53298,1
2,31371,30534,32110,27549,14431,-4496,1452,-2130,2816,5945,828,231,425,-131,1,0,18,23,440,0,53298,1
2,31352,30532,32093,27550,14418,-4740,1730,-2907,3214,10390,4576,225,433,-163,1,0,18,23,480,0,53298,1
2,31325,30528,32078,27551,14405,-4720,2161,-4054,2725,16092,8622,194,428,-190,1,0,18,23,520,0,53298,1
2,31265,30544,32044,27552,14393,-4390,2489,-5650,190,24036,12452,182,450,-224,1,0,18,23,560,0,53298,1
2,31209,30533,31988,27553,14380,-4094,2565,-6681,-2745,32767,15077,156,458,-286,1,0,18,23,600,0,53298,1
2,31175,30535,31984,27554,14367,-5737,2241,-6070,-2968,32767,18618,136,444,-356,1,0,18,23,640,0,53298,1
2,31188,30555,31959,27555,14354,-13628,2344,-2001,-5070,32767,23307,87,393,-409,1,0,18,23,680,0,53298,1
2,31160,30464,31858,27556,14342,-13613,-4623,928,-21673,32767,28119,47,353,-423,1,0,18,23,720,0,53298,1
2,31093,30479,31811,27557,14329,-2178,-8030,2706,-22070,30362,18091,30,324,-424,1,0,18,23,760,0,53298,1
2,31147,30491,31852,27558,14316,-2791,-1681,4367,-2469,2317,-2419,42,352,-414,1,0,18,23,800,0,53298,1
2,31181,30465,31924,27559,14303,-5723,752,-64,7464,-23000,-13757,59,377,-397,1,0,18,23,840,0,53298,1
2,31178,30463,31945,27560,14289,-3834,4190,-4040,8300,-27529,-15664,86,408,-372,1,0,18,23,880,0,53298,1
2,31198,30471,31957,27561,14275,-2602,1416,-4990,-2847,-19382,-11363,90,424,-358,1,0,18,23,920,0,53298,1
2,31200,30463,31961,27562,14260,-3002,1524,-3308,2787,-12771,-9643,108,438,-350,1,0,18,23,960,0,53298,1
1,31250,30482,31980,27563,0,-4614,910,-2011,9062,-12287,-8954,124,438,-324,1,0,18,24,0,1,53298,1
2,31254,30416,31991,27564,13994,-5045,618,-2596,11233,-16581,-10407,149,451,-303,1,0,18,24,40,1,53298,1
2,31288,30473,32031,27565,13981,-5461,994,-2073,8794,-18888,-10872,163,449,-279,1,0,18,24,80,1,53298,1
2,31344,30567,32116,27566,13968,-6073,248,-1172,3529,-20952,-10952,169,453,-247,1,0,18,24,120,1,53298,1
2,31308,30530,32097,27567,13956,-5483,-21,-1547,392,-22024,-12324,195,449,-227,1,0,18,24,160,1,53298,1
2,31320,30516,32066,27568,13942,-5096,236,-1391,1007,-21660,-12249,213,439,-191,1,0,18,24,200,1,53298,1
2,31341,30492,32071,27569,13930,-4430,278,-1741,582,-19004,-11648,222,434,-166,1,0,18,24,240,1,53298,1
2,31345,30482,32090,27570,13918,-3655,629,-2137,-1462,-15140,-11029,232,428,-148,1,0,18,24,280,1,53298,1
2,31378,30497,32115,27571,13906,-3631,1039,-1466,-3067,-12282,-9885,251,425,-143,1,0,18,24,320,1,53298,1
2,31429,30521,32206,27572,13895,-3966,698,-1824,-1630,-9574,-7223,255,413,-129,1,0,18,24,360,1,53298,1
2,31681,30586,32412,27573,13883,-4221,976,-1959,1931,-6094,-3723,263,407,-119,1,0,18,24,400,1,53298,1
2,31995,30697,32705,27574,13872,-4486,395,-1413,1979,-1668,-368,257,409,-127,1,0,18,24,440,1,53298,1
2,32449,30934,33174,27575,13861,-4843,-713,-233,133,1611,1500,248,424,-122,1,0,18,24,480,1,53298,1
2,32480,30936,33186,27576,13850,-4790,-1442,712,-752,2843,1790,258,418,-134,1,0,18,24,520,1,53298,1
2,32431,30900,33146,27577,13839,-4634,-1552,1049,15,2265,1091,248,408,-134,1,0,18,24,560,1,53298,1
2,32408,30890,33134,27578,13828,-4237,-1215,770,-157,1010,-224,248,410,-130,1,0,18,24,600,1,53298,1
2,32410,30882,33116,27579,13817,-4156,-919,525,-339,311,-793,249,425,-145,1,0,18,24,640,1,53298,1
2,32402,30861,33078,27580,13805,-4294,-801,362,440,190,-693,262,418,-140,1,0,18,24,680,1,53298,1
2,32365,30870,33079,27581,13794,-4500,-713,87,801,-123,-174,247,419,-135,1,0,18,24,720,1,53298,1
2,32358,30842,33075,27582,13783,-4429,-780,-514,24,261,-243,247,417,-137,1,0,18,24,760,1,53298,1
2,32354,30851,33064,27583,13772,-4375,-292,-1278,973,1787,571,247,415,-141,1,0,18,24,800,1,53298,1
2,32348,30862,33054,27584,13761,-4168,617,-2415,1629,5079,2375,243,417,-147,1,0,18,24,840,1,53298,1
2,32323,30855,33046,27585,13749,-4078,1302,-3539,863,10421,5190,228,438,-164,1,0,18,24,880,1,53298,1
2,32321,30867,33057,27586,13736,-4460,1771,-4399,785,17947,8799,219,451,-191,1,0,18,24,920,1,53298,1
2,32283,30869,33043,27587,13725,-4760,2163,-4768,1036,25340,12969,203,457,-237,1,0,18,24,960,1,53298,1
1,32262,30860,33016,27588,0,-5092,2296,-5005,-600,31976,16251,171,463,-283,1,0,18,25,0,1,53298,1
2,32270,30870,33026,27589,13432,-5648,2540,-4879,-3067,32767,19088,144,450,-340,1,0,18,25,40,1,53298,1
2,32341,30936,33089,27590,13419,-9045,1574,-3600,-8684,32767,22231,104,412,-398,1,0,18,25,80,1,53298,1
2,34509,31172,33239,27591,13406,-13271,-1362,-44,-18354,32767,26363,59,363,-417,1,0,18,25,120,1,53298,1
2,32239,30883,32958,27592,13393,-3835,-7406,1156,-27676,28503,20212,37,343,-415,1,0,18,25,160,1,53298,1
2,32282,30842,32964,27593,13381,-2585,-564,4489,-14888,8667,293,33,359,-403,1,0,18,25,200,1,53298,1
2,32288,30833,32980,27594,13367,-3882,-999,-480,5347,-14165,-8781,59,381,-407,1,0,18,25,240,1,53298,1
2,32156,30839,32944,27595,13352,-2802,3398,-3510,15563,-19237,-12251,74,392,-390,1,0,18,25,280,1,53298,1
2,32233,30776,32982,27596,13338,-2352,1908,-2788,4092,-15514,-8216,75,411,-377,1,0,18,25,320,1,53298,1
2,32222,30752,32961,27597,13325,-2978,619,-2310,-1636,-14093,-7902,94,412,-356,1,0,18,25,360,1,53298,1
2,32220,30707,32939,27598,13312,-4154,-320,-1648,2673,-14304,-10160,113,429,-343,1,0,18,25,400,1,53298,1
2,32244,30722,32972,27599,13299,-5296,-140,-1898,14395,-17971,-12195,134,454,-316,1,0,18,25,440,1,53298,1
2,32402,30770,33103,27600,13286,-6003,1149,-1911,18388,-23200,-11994,146,442,-288,1,0,18,25,480,1,53298,1
2,32463,30911,33212,27601,13274,-5962,1264,-2364,9126,-26096,-10736,162,452,-256,1,0,18,25,520,1,53298,1
2,32505,30929,33237,27602,13261,-5444,704,-2637,-682,-24777,-10819,179,445,-215,1,0,18,25,560,1,53298,1
2,32200,30722,32942,27603,13249,-4863,374,-2407,-1677,-22205,-10720,204,446,-202,1,0,18,25,600,1,53298,1
2,32181,30733,32927,27604,13236,-4892,328,-1468,853,-19139,-10583,210,432,-160,1,0,18,25,640,1,53298,1
2,32195,30748,32931,27605,13223,-4401,-71,-1220,158,-17753,-10297,223,427,-139,1,0,18,25,680,1,53298,1
2,32330,30922,32963,27606,13210,-4356,111,-1208,-1430,-15995,-10040,242,416,-134,1,0,18,25,720,1,53298,1
2,32531,31023,33259,27607,13199,-4051,257,-1726,-2198,-13114,-9057,244,398,-112,1,0,18,25,760,1,53298,1
2,32572,31036,33281,27608,13189,-4041,692,-2069,24,-8810,-6442,255,403,-115,1,0,18,25,800,1,53298,1
2,32491,30990,33233,27609,13177,-4220,671,-1698,1187,-4108,-2788,252,400,-116,1,0,18,25,840,1,53298,1
2,32505,30613,32364,27610,13166,-4430,-46,-1078,784,708,753,246,406,-116,1,0,18,25,880,1,53298,1
2,31540,30525,32274,27611,13154,-4714,-674,252,1141,3548,2853,245,403,-123,1,0,18,25,920,1,53298,1
2,32545,30980,33259,27612,13143,-4701,-1667,927,-63,4334,2914,242,410,-128,1,0,18,25,960,1,53298,1
1,32537,30980,33225,27613,0,-4553,-1639,1398,699,3422,1680,238,412,-128,1,0,18,26,0,1,53298,1
2,31680,30578,32425,27614,12869,-4420,-1305,1412,224,1793,-130,241,411,-125,1,0,18,26,40,1,53298,1
2,31790,30607,32570,27615,12857,-4410,-1146,1228,-249,76,-1460,244,412,-126,1,0,18,26,80,1,53298,1
2,31844,30608,32585,27616,12845,-4447,-878,827,236,-1180,-1795,246,402,-118,1,0,18,26,120,1,53298,1
2,31843,30603,32552,27617,12833,-4398,-722,40,465,-1789,-1645,240,414,-114,1,0,18,26,160,1,53298,1
2,31799,30581,32535,27618,12821,-4314,-484,-1035,487,-641,-1031,238,408,-124,1,0,18,26,200,1,53298,1
2,31816,30591,32544,27619,12810,-4308,22,-1710,611,2603,121,239,411,-131,1,0,18,26,240,1,53298,1
2,31773,30575,32517,27620,12799,-4249,785,-2379,-382,7031,2137,247,427,-143,1,0,18,26,280,1,53298,1
2,31768,30571,32517,27621,12787,-4278,953,-2958,-2268,12242,4857,233,431,-161,1,0,18,26,320,1,53298,1
2,31727,30621,32485,27622,12776,-4494,926,-3045,-1581,18019,8566,226,444,-188,1,0,18,26,360,1,53298,1
2,31704,30625,32476,27623,12764,-4801,1034,-2778,808,22862,12066,198,452,-226,1,0,18,26,400,1,53298,1
2,31685,30613,32455,27624,12754,-5203,901,-2566,1287,26350,14260,178,462,-268,1,0,18,26,440,1,53298,1
2,31588,30602,32396,27625,12743,-5117,883,-3104,-730,28750,15038,161,449,-297,1,0,18,26,480,1,53298,1
2,31368,30567,32147,27626,12731,-4353,1147,-5402,-6332,31893,14665,129,441,-345,1,0,18,26,520,1,53298,1
2,31344,30564,32134,27627,12720,-7135,1965,-5666,-9720,32767,16077,100,416,-404,1,0,18,26,560,1,53298,1
2,31363,30530,32256,27628,12709,-12502,328,67,-15964,32767,20903,66,376,-426,1,0,18,26,600,1,53298,1
2,31203,30510,31938,27629,12697,-4091,-6536,2303,-17503,28303,18439,55,351,-437,1,0,18,26,640,1,53298,1
2,31255,30515,31989,27630,12685,-2610,-1502,3776,2018,5560,2133,62,360,-432,1,0,18,26,680,1,53298,1
2,31249,30507,31990,27631,12673,-4332,305,-1109,4570,-17947,-9311,73,385,-421,1,0,18,26,720,1,53298,1
2,31253,30488,32003,27632,12659,-2929,2837,-3472,-757,-21710,-11950,80,406,-380,1,0,18,26,760,1,53298,1
2,31260,30480,32013,27633,12646,-2716,526,-3024,-6805,-17155,-9634,94,420,-362,1,0,18,26,800,1,53298,1
2,31278,30488,32029,27634,12633,-4003,-576,-1799,2178,-15286,-9578,103,429,-345,1,0,18,26,840,1,53298,1
2,31318,30476,32064,27635,12620,-4608,-94,-2677,14179,-17921,-10528,130,436,-332,1,0,18,26,880,1,53298,1
2,31361,30507,32104,27636,12608,-5315,736,-2964,18601,-19606,-10814,150,450,-308,1,0,18,26,920,1,53298,1
2,31375,30517,32125,27637,12595,-5045,1107,-3324,12186,-19997,-10639,178,450,-284,1,0,18,26,960,1,53298,1
1,31403,30541,32144,27638,0,-5160,913,-2584,4136,-19469,-9967,184,460,-260,1,0,18,27,0,0,53298,1
2,31423,30563,32170,27639,12307,-5085,362,-1886,386,-19232,-8904,191,455,-227,1,0,18,27,40,0,53298,1
2,31813,30725,32557,27640,12296,-5284,118,-1323,126,-19360,-8455,208,438,-208,1,0,18,27,80,0,53298,1
2,32598,31105,33285,27641,12284,-5329,-255,-358,-1003,-19106,-8366,217,433,-177,1,0,18,27,120,0,53298,1
2,31615,30664,33033,27642,12272,-5385,-859,460,-3945,-19741,-9377,243,421,-149,1,0,18,27,160,0,53298,1
2,32625,31108,33302,27643,12261,-4913,-1685,-318,-6053,-21262,-11274,257,409,-123,1,0,18,27,200,0,53298,1
2,32664,31191,33335,27644,12250,-4299,-303,-2069,-2077,-20069,-12729,262,394,-104,1,0,18,27,240,0,53298,1
2,32465,31091,33152,27645,12239,-3644,1836,-3644,1470,-14981,-10845,276,382,-100,1,0,18,27,280,0,53298,1
2,32667,31185,33360,27646,12228,-3248,1609,-4169,-49,-5360,-5646,278,380,-94,1,0,18,27,320,0,53298,1
2,32701,31215,33378,27647,12218,-4129,857,-2115,3398,4617,1512,260,392,-102,1,0,18,27,360,0,53298,1
2,31761,30736,32520,27648,12207,-5105,-1053,819,2087,9456,6027,259,405,-117,1,0,18,27,400,0,53298,1
2,31701,30710,32456,27649,12196,-5325,-2405,2473,-421,8284,5615,247,409,-117,1,0,18,27,440,0,53298,1
2,31682,30705,32433,27650,12186,-4958,-1872,2709,839,4032,3459,245,409,-123,1,0,18,27,480,0,53298,1
2,31653,30699,32405,27651,12175,-4444,-1506,1877,-131,177,1035,246,412,-124,1,0,18,27,520,0,53298,1
2,31642,30718,32400,27652,12165,-4158,-982,1202,-7,-1831,-467,251,403,-121,1,0,18,27,560,0,53298,1
2,31631,30718,32390,27653,12155,-4155,-903,650,823,-2112,-659,249,397,-111,1,0,18,27,600,0,53298,1
2,31628,30727,32389,27654,12145,-4400,-1013,474,937,-1854,-720,254,396,-110,1,0,18,27,640,0,53298,1
2,31627,30730,32387,27655,12135,-4874,-1334,625,77,-1554,-919,263,397,-113,1,0,18,27,680,0,53298,1
2,31619,30728,32375,27656,12125,-4969,-1575,602,-754,-1770,-1730,258,398,-112,1,0,18,27,720,0,53298,1
2,31620,30731,32375,27657,12115,-4405,-61,-874,-366,-1257,-1734,260,396,-114,1,0,18,27,760,0,53298,1
2,31617,30735,32377,27658,12104,-3993,319,-1899,-942,2380,424,252,404,-112,1,0,18,27,800,0,53298,1
2,31626,30740,32382,27659,12093,-3909,897,-2667,-372,7600,4475,247,425,-125,1,0,18,27,840,0,53298,1
2,31665,30776,32404,27660,12082,-3672,893,-4365,-1773,14068,8116,227,431,-165,1,0,18,27,880,0,53298,1
2,31691,30797,32438,27661,12070,-4140,1733,-5582,745,23322,12037,217,451,-205,1,0,18,27,920,0,53298,1
2,31711,30831,32498,27662,12058,-4994,2651,-5905,2810,32767,15608,186,456,-248,1,0,18,27,960,0,53298,1
1,31900,30898,32624,27663,0,-6238,2240,-5799,-291,32767,18560,168,460,-328,1,0,18,28,0,1,53298,1
2,32329,30870,32540,27664,11745,-9330,1769,-4014,-4765,32767,21007,120,436,-388,1,0,18,28,40,1,53298,1
2,31434,30681,32201,27665,11734,-15018,142,-1070,-15595,32767,24412,82,390,-420,1,0,18,28,80,1,53298,1
2,31297,30635,32041,27666,11723,-7322,-5833,448,-28687,32767,22326,50,356,-414,1,0,18,28,120,1,53298,1
2,31303,30618,32018,27667,11711,-2977,-3454,4072,-21203,16549,5227,48,360,-408,1,0,18,28,160,1,53298,1
2,31344,30499,32057,27668,11698,-4069,-2377,657,5111,-7441,-6964,67,377,-403,1,0,18,28,200,1,53298,1
2,31363,30477,32121,27669,11685,-4441,1343,-1896,21340,-17828,-13095,95,407,-411,1,0,18,28,240,1,53298,1
2,31361,30494,32129,27670,11672,-3804,1702,-3124,16961,-20738,-11895,112,422,-382,1,0,18,28,280,1,53298,1
2,31350,30464,32115,27671,11659,-3904,706,-2620,4610,-19400,-11263,126,430,-354,1,0,18,28,320,1,53298,1
2,31357,30439,32109,27672,11646,-4107,-183,-2836,1010,-19026,-12565,155,443,-333,1,0,18,28,360,1,53298,1
2,31395,30444,32139,27673,11634,-5361,414,-2905,9381,-19776,-13069,165,457,-311,1,0,18,28,400,1,53298,1
2,31417,30429,32172,27674,11622,-5470,536,-2666,12819,-21298,-11259,195,453,-273,1,0,18,28,440,1,53298,1
2,31441,30477,32195,27675,11610,-5156,-5,-2135,7192,-22692,-10061,214,456,-240,1,0,18,28,480,1,53298,1
2,31473,30445,32199,27676,11597,-5284,-17,-1671,-1391,-22847,-11213,227,449,-203,1,0,18,28,520,1,53298,1
2,31512,30419,32208,27677,11585,-5133,-43,-1796,-4834,-21560,-12695,244,450,-192,1,0,18,28,560,1,53298,1
2,31551,30382,32216,27678,11573,-4264,650,-2676,-406,-18249,-11504,252,428,-164,1,0,18,28,600,1,53298,1
2,31544,30386,32218,27679,11561,-3711,1106,-3115,1533,-13446,-9028,263,419,-153,1,0,18,28,640,1,53298,1
2,31548,30389,32218,27680,11549,-3478,650,-3023,-1251,-7622,-6374,267,421,-149,1,0,18,28,680,1,53298,1
2,31575,30396,32225,27681,11536,-3859,-681,-2125,-1932,-2521,-3788,271,421,-155,1,0,18,28,720,1,53298,1
2,31603,30393,32251,27682,11524,-4377,-699,-462,-37,1002,-1948,276,428,-152,1,0,18,28,760,1,53298,1
2,31753,30405,32362,27683,11512,-4793,-1376,666,-282,1814,-1331,279,421,-155,1,0,18,28,800,1,53298,1
2,32012,30502,32735,27684,11500,-4611,-1048,458,435,450,-823,277,419,-155,1,0,18,28,840,1,53298,1
2,32087,30534,32703,27685,11489,-4521,-1032,162,667,-483,-197,274,420,-152,1,0,18,28,880,1,53298,1
2,32052,30532,32701,27686,11477,-4486,-1119,-69,997,-861,777,274,414,-158,1,0,18,28,920,1,53298,1
2,32013,30531,32696,27687,11466,-4340,-1457,-159,555,-493,1374,267,419,-147,1,0,18,28,960,1,53298,1
1,31950,30551,32657,27688,0,-4481,-1738,73,482,-274,1099,265,419,-151,1,0,18,29,0,1,53298,1
2,31955,30527,32607,27689,11185,-4408,-1373,45,814,-529,63,269,415,-145,1,0,18,29,40,1,53298,1
2,31991,30548,32635,27690,11174,-4421,-972,-224,388,-608,-456,266,422,-140,1,0,18,29,80,1,53298,1
2,31943,30532,32632,27691,11163,-4287,-445,-687,649,-140,803,263,423,-149,1,0,18,29,120,1,53298,1
2,31944,30515,32643,27692,11152,-4115,-78,-1522,1098,1298,2937,258,428,-150,1,0,18,29,160,1,53298,1
2,31885,30495,32586,27693,11141,-3890,906,-2306,2227,4125,6018,245,433,-155,1,0,18,29,200,1,53298,1
2,31837,30500,32564,27694,11129,-3821,1345,-3076,601,8486,9367,229,447,-177,1,0,18,29,240,1,53298,1
2,31917,30483,32678,27695,11118,-3850,1473,-4366,-1528,14543,12711,219,457,-201,1,0,18,29,280,1,53298,1
2,31678,30420,32451,27696,11107,-4129,1905,-5534,-967,22679,16073,187,461,-241,1,0,18,29,320,1,53298,1
2,31617,30399,32405,27697,11096,-4668,2246,-6363,-1353,31987,18236,173,461,-297,1,0,18,29,360,1,53298,1
2,31835,30499,32711,27698,11085,-6912,2447,-6352,-4870,32767,20556,132,440,-356,1,0,18,29,400,1,53298,1
2,31808,30457,32575,27699,11074,-14621,2180,-2252,-10675,32767,24435,83,403,-395,1,0,18,29,440,1,53298,1
2,31669,30405,32411,27700,11064,-8934,-4882,280,-27658,32767,25115,43,365,-403,1,0,18,29,480,1,53298,1
2,31572,30391,32318,27701,11053,-3135,-4447,2567,-27995,17578,10170,39,359,-393,1,0,18,29,520,1,53298,1
2,31653,30402,32368,27702,11041,-3454,-2314,481,-7773,-5649,-4112,50,376,-382,1,0,18,29,560,1,53298,1
2,31591,30406,32313,27703,11029,-3304,1634,-2342,15474,-14658,-9615,66,396,-388,1,0,18,29,600,1,53298,1
2,31589,30409,32311,27704,11016,-1813,2609,-3471,12666,-13983,-7739,75,401,-383,1,0,18,29,640,1,53298,1
2,31559,30408,32269,27705,11004,-3228,-1525,-2035,3803,-9697,-6996,89,413,-369,1,0,18,29,680,1,53298,1
2,31583,30394,32305,27706,10991,-3629,-2380,-1875,11980,-11631,-10166,117,429,-363,1,0,18,29,720,1,53298,1
2,31588,30396,32329,27707,10979,-5430,-103,-1975,21317,-17054,-14461,142,446,-350,1,0,18,29,760,1,53298,1
2,31620,30405,32338,27708,10967,-6126,951,-2211,18204,-22903,-14349,174,458,-306,1,0,18,29,800,1,53298,1
2,31642,30415,32379,27709,10954,-5738,1481,-2375,7835,-26457,-12964,189,453,-279,1,0,18,29,840,1,53298,1
2,31685,30398,32383,27710,10942,-5663,957,-1834,-2115,-26598,-11980,205,451,-229,1,0,18,29,880,1,53298,1
2,31718,30420,32418,27711,10931,-5392,378,-1799,-3143,-25465,-11305,213,441,-197,1,0,18,29,920,1,53298,1
2,31795,30424,32506,27712,10919,-4801,810,-2624,780,-23765,-9939,231,441,-175,1,0,18,29,960,1,53298,1
1,31830,30450,32551,27713,0,-4046,869,-3217,2303,-19238,-8367,238,422,-152,1,0,18,30,0,1,53298,1
2,31912,30500,32634,27714,10623,-3906,1391,-2387,1146,-13516,-6488,242,412,-144,1,0,18,30,40,1,53298,1
2,32031,30552,32754,27715,10611,-3857,113,-1716,-3619,-9193,-4171,251,417,-115,1,0,18,30,80,1,53298,1
2,31977,30480,32693,27716,10599,-4076,-1090,-981,-3297,-6144,-2634,256,398,-126,1,0,18,30,120,1,53298,1
2,31959,30481,32639,27717,10587,-3981,-134,-1406,1205,-3668,-1279,253,407,-125,1,0,18,30,160,1,53298,1
2,31937,30492,32659,27718,10576,-4054,-675,-1093,1234,219,28,246,412,-120,1,0,18,30,200,1,53298,1
2,31909,30480,32648,27719,10564,-4630,-806,72,2142,3348,1221,248,416,-130,1,0,18,30,240,1,53298,1
2,31860,30447,32580,27720,10553,-4736,-1568,814,706,3879,1369,250,418,-132,1,0,18,30,280,1,53298,1
2,31887,30449,32603,27721,10542,-4792,-1583,1361,194,2512,717,255,419,-135,1,0,18,30,320,1,53298,1
2,31918,30447,32631,27722,10531,-4637,-1343,1032,556,496,-41,240,420,-128,1,0,18,30,360,1,53298,1
2,31909,30454,32640,27723,10520,-4546,-1088,735,1396,-884,-640,250,418,-128,1,0,18,30,400,1,53298,1
2,31872,30434,32591,27724,10508,-4530,-409,342,1561,-1666,-650,251,407,-131,1,0,18,30,440,1,53298,1
2,31906,30446,32617,27725,10496,-4184,-756,-693,-1329,-1717,-344,256,420,-124,1,0,18,30,480,1,53298,1
2,31925,30462,32642,27726,10484,-4158,-489,-1159,-789,622,508,244,418,-124,1,0,18,30,520,1,53298,1
2,31847,30436,32574,27727,10472,-4139,329,-1853,298,3585,2191,239,423,-153,1,0,18,30,560,1,53298,1
2,31793,30424,32517,27728,10459,-3922,730,-2858,-2604,7816,4112,229,427,-151,1,0,18,30,600,1,53298,1
2,31813,30438,32523,27729,10447,-4019,886,-3496,-3453,13787,7138,225,445,-181,1,0,18,30,640,1,53298,1
2,31810,30460,32561,27730,10434,-4532,1323,-3885,-163,20363,10830,216,448,-216,1,0,18,30,680,1,53298,1
2,31788,30460,32598,27731,10421,-5231,1413,-3688,537,26098,13783,184,458,-262,1,0,18,30,720,1,53298,1
2,32373,30738,33055,27732,10409,-5577,1031,-3519,-1528,30429,15839,163,459,-299,1,0,18,30,760,1,53298,1
2,32303,30689,32990,27733,10396,-5783,1437,-4002,-4430,32767,17449,134,440,-346,1,0,18,30,800,1,53298,1
2,32335,30741,33013,27734,10382,-7109,724,-3705,-10658,32767,18385,104,414,-392,1,0,18,30,840,1,53298,1
2,32265,30731,32948,27735,10370,-10299,-180,-740,-17121,32767,19577,65,383,-403,1,0,18,30,880,1,53298,1
2,32087,30579,32767,27736,10357,-4383,-5013,470,-22614,24863,17158,46,368,-402,1,0,18,30,920,1,53298,1
2,32099,30523,32762,27737,10344,-2849,-1665,3034,-10412,9330,3375,49,381,-405,1,0,18,30,960,1,53298,1
1,32114,30547,32802,27738,0,-3888,-539,23,4210,-10275,-6674,61,379,-389,1,0,18,31,0,1,53298,1
2,32099,30537,32783,27739,10062,-3825,2282,-2575,10521,-18363,-11298,76,416,-384,1,0,18,31,40,1,53298,1
2,32143,30580,32844,27740,10049,-2432,2454,-3907,2133,-17723,-9995,90,418,-358,1,0,18,31,80,1,53298,1
2,32192,30595,32880,27741,10036,-4386,331,-1628,213,-13801,-8314,105,435,-341,1,0,18,31,120,1,53298,1
2,32244,30595,32924,27742,10023,-4230,-198,-2626,6681,-16125,-10389,128,442,-326,1,0,18,31,160,1,53298,1
2,32279,30605,32963,27743,10010,-4976,799,-2365,14176,-18183,-10935,147,457,-305,1,0,18,31,200,1,53298,1
2,32297,30595,32978,27744,9997,-5050,1513,-2463,13320,-20357,-10174,163,461,-277,1,0,18,31,240,1,53298,1
2,32295,30667,32989,27745,9984,-5082,1219,-1910,6479,-20846,-8861,169,453,-245,1,0,18,31,280,1,53298,1
2,32314,30677,33002,27746,9971,-5083,507,-1338,1088,-21322,-7880,185,447,-209,1,0,18,31,320,1,53298,1
2,32313,30719,32994,27747,9959,-5049,-337,-1119,-3979,-20734,-8222,191,435,-191,1,0,18,31,360,1,53298,1
2,32308,30712,32987,27748,9945,-4678,-616,-1016,-2875,-20573,-9921,213,429,-165,1,0,18,31,400,1,53298,1
2,32306,30712,32979,27749,9932,-4090,465,-1609,47,-18412,-10146,219,417,-149,1,0,18,31,440,1,53298,1
2,32301,30711,32975,27750,9918,-3639,613,-2331,-827,-15665,-9889,235,401,-123,1,0,18,31,480,1,53298,1
2,32314,30779,32986,27751,9903,-3575,951,-2094,-1176,-11179,-8690,238,412,-118,1,0,18,31,520,1,53298,1
2,32333,30814,33011,27752,9889,-4031,605,-1519,-356,-6502,-5304,240,402,-116,1,0,18,31,560,1,53298,1
2,32335,30828,33009,27753,9876,-4527,-242,-649,259,-2595,-2299,246,394,-124,1,0,18,31,600,1,53298,1
2,32343,30842,33016,27754,9863,-4774,-495,237,1685,-344,-771,252,402,-112,1,0,18,31,640,1,53298,1
2,32347,30840,33022,27755,9849,-4849,-650,377,1460,1089,369,238,402,-114,1,0,18,31,680,1,53298,1
2,32345,30851,33015,27756,9837,-4607,-985,472,126,1480,441,248,400,-118,1,0,18,31,720,1,53298,1
2,32349,30859,33020,27757,9824,-4351,-1364,535,-551,1890,117,240,408,-110,1,0,18,31,760,1,53298,1
2,32345,30833,33016,27758,9813,-4265,-1029,833,506,1931,9,234,410,-118,1,0,18,31,800,1,53298,1
2,32347,30845,33020,27759,9800,-4381,-1302,1171,-338,1359,-620,253,407,-119,1,0,18,31,840,1,53298,1
2,32340,30927,33008,27760,9788,-4529,-1350,1339,-257,-91,-1316,248,408,-110,1,0,18,31,880,1,53298,1
2,32333,31048,33000,27761,9775,-4654,-1001,1142,457,-2128,-2041,253,403,-119,1,0,18,31,920,1,53298,1
2,32319,31046,32995,27762,9763,-4243,-570,-141,-1018,-3229,-2261,249,407,-111,1,0,18,31,960,1,53298,1
1,32322,31045,32991,27763,0,-4077,-201,-1134,-321,-1055,-1183,244,402,-114,1,0,18,32,0,1,53298,1
2,32329,31047,33003,27764,9502,-4123,16,-1469,1892,2579,1350,248,408,-124,1,0,18,32,40,1,53298,1
2,32310,31010,32989,27765,9491,-3998,167,-2673,1782,7314,3524,231,415,-123,1,0,18,32,80,1,53298,1
2,32316,30948,32997,27766,9479,-3871,1795,-4112,2511,12976,6060,219,437,-177,1,0,18,32,120,1,53298,1
2,32302,30814,32998,27767,9467,-3828,2417,-6585,-1886,21753,9679,210,450,-214,1,0,18,32,160,1,53298,1
2,32275,30801,32980,27768,9455,-5008,2439,-6909,-2769,32767,14151,200,466,-270,1,0,18,32,200,1,53298,1
2,32325,30839,33033,27769,9443,-7296,2068,-5578,-565,32767,18433,162,454,-340,1,0,18,32,240,1,53298,1
2,32350,30885,33049,27770,9431,-11144,2298,-3905,-3208,32767,22130,115,425,-395,1,0,18,32,280,1,53298,1
2,32262,30847,32943,27771,9420,-14794,-1162,-1032,-17298,32767,25024,77,379,-421,1,0,18,32,320,1,53298,1
2,32107,30777,32819,27772,9408,-6168,-5286,960,-28600,32767,21051,41,353,-415,1,0,18,32,360,1,53298,1
2,31380,30374,32687,27773,9396,-2627,-2361,4177,-18348,13823,5379,47,357,-415,1,0,18,32,400,1,53298,1
2,31263,30377,31974,27774,9383,-3854,-1135,126,5953,-8779,-5710,67,381,-417,1,0,18,32,440,1,53298,1
2,31390,30534,32107,27775,9369,-3030,2500,-2541,14161,-16070,-9880,74,396,-406,1,0,18,32,480,1,53298,1
2,31293,30474,32004,27776,9356,-1858,1776,-3192,1742,-14575,-7877,85,403,-381,1,0,18,32,520,1,53298,1
2,31227,30457,31946,27777,9342,-2499,278,-2176,-4308,-11632,-7088,92,416,-376,1,0,18,32,560,1,53298,1
2,31288,30461,31974,27778,9330,-4389,-1118,-912,1384,-12028,-9267,117,433,-359,1,0,18,32,600,1,53298,1
2,31395,30536,32130,27779,9316,-5535,-1237,-1984,13772,-18634,-12327,143,441,-335,1,0,18,32,640,1,53298,1
2,32259,30585,32770,27780,9304,-6292,63,-2160,18765,-24779,-13858,165,455,-293,1,0,18,32,680,1,53298,1
2,32290,30985,33004,27781,9291,-5821,1261,-2325,13955,-27884,-13203,178,454,-258,1,0,18,32,720,1,53298,1
2,32342,31004,33070,27782,9279,-5645,1068,-2276,3401,-27353,-12676,201,451,-221,1,0,18,32,760,1,53298,1
2,32408,31019,33092,27783,9266,-5317,639,-2499,-2856,-25155,-12458,214,438,-188,1,0,18,32,800,1,53298,1
2,32428,31009,33101,27784,9253,-4520,762,-2577,-3165,-21140,-12010,235,439,-163,1,0,18,32,840,1,53298,1
2,32456,31012,33099,27785,9240,-4438,914,-1778,-2469,-17169,-9951,243,427,-149,1,0,18,32,880,1,53298,1
2,32498,30894,33187,27786,9229,-4515,644,-1172,-2931,-13944,-8212,259,415,-139,1,0,18,32,920,1,53298,1
2,32487,30885,33131,27787,9218,-4057,303,-1892,-3138,-11332,-5339,266,406,-124,1,0,18,32,960,1,53298,1
1,32434,30856,33084,27788,0,-3911,290,-2051,303,-8088,-2336,252,402,-118,1,0,18,33,0,0,53298,1
2,32399,30818,33056,27789,8943,-3921,-548,-1908,1681,-3251,30,260,406,-124,1,0,18,33,40,0,53298,1
2,32391,30816,33058,27790,8932,-4210,-898,-713,2345,1165,1209,259,413,-117,1,0,18,33,80,0,53298,1
2,32372,30789,33034,27791,8922,-4534,-1507,433,1245,3512,1286,254,410,-130,1,0,18,33,120,0,53298,1
2,32387,30808,33042,27792,8912,-4563,-1481,1069,113,3301,423,244,406,-126,1,0,18,33,160,0,53298,1
2,32376,30775,33007,27793,8901,-4697,-1361,1256,-570,2254,-199,251,417,-133,1,0,18,33,200,0,53298,1
2,32425,30829,33081,27794,8890,-4574,-847,1005,336,740,-445,249,417,-119,1,0,18,33,240,0,53298,1
2,32428,30832,33079,27795,8880,-4528,-872,653,71,-171,-310,258,412,-126,1,0,18,33,280,0,53298,1
2,32412,30817,33073,27796,8870,-4503,-1000,437,169,-768,-462,259,413,-123,1,0,18,33,320,0,53298,1
2,32415,30817,33073,27797,8860,-4436,-909,178,450,-864,-374,251,407,-123,1,0,18,33,360,0,53298,1
2,32409,30810,33056,27798,8851,-4377,-819,-53,512,-467,-268,260,404,-130,1,0,18,33,400,0,53298,1
2,32395,30805,33054,27799,8840,-4363,-813,-385,226,590,249,247,415,-117,1,0,18,33,440,0,53298,1
2,32384,30809,33037,27800,8830,-4195,-560,-999,936,2313,1040,249,419,-133,1,0,18,33,480,0,53298,1
2,32382,30803,33038,27801,8819,-4015,386,-1755,1993,5013,2461,244,420,-142,1,0,18,33,520,0,53298,1
2,32383,30812,33048,27802,8808,-3987,734,-2362,165,8720,4460,236,428,-164,1,0,18,33,560,0,53298,1
2,32378,30804,33039,27803,8798,-4213,762,-2749,-1935,13642,7148,231,445,-179,1,0,18,33,600,0,53298,1
2,32347,30793,33031,27804,8788,-4470,877,-2910,-954,18204,10157,215,449,-203,1,0,18,33,640,0,53298,1
2,32314,30780,33004,27805,8777,-4178,1822,-4416,605,22740,13088,179,455,-245,1,0,18,33,680,0,53298,1
2,32291,30799,32983,27806,8766,-4416,2152,-5556,-443,30151,15544,163,451,-315,1,0,18,33,720,0,53298,1
2,32291,30814,32980,27807,8753,-6252,2309,-5207,-3782,32767,17692,137,439,-361,1,0,18,33,760,0,53298,1
2,32250,30798,32910,27808,8742,-11896,706,-2868,-11927,32767,21391,83,399,-403,1,0,18,33,800,0,53298,1
2,32092,30696,32771,27809,8730,-8951,-3504,3,-23106,32767,22105,61,377,-399,1,0,18,33,840,0,53298,1
2,32116,30750,32799,27810,8717,-3268,-5064,810,-19624,18410,11048,61,379,-411,1,0,18,33,880,0,53298,1
2,32180,30778,32828,27811,8704,-3692,-51,1579,1043,1658,-3899,73,383,-407,1,0,18,33,920,0,53298,1
2,32170,30775,32818,27812,8691,-3658,263,-1150,11562,-11192,-8584,94,404,-404,1,0,18,33,960,0,53298,1
1,32167,30792,32851,27813,0,-4017,1385,-1478,13804,-14933,-9597,114,420,-380,1,0,18,34,0,0,53298,1
2,32202,30786,32878,27814,8382,-3764,122,-1807,4481,-17256,-9564,118,434,-366,1,0,18,34,40,0,53298,1
2,32214,30781,32893,27815,8369,-4702,-655,-1578,2252,-19649,-11765,138,438,-334,1,0,18,34,80,0,53298,1
2,32210,30755,32903,27816,8357,-5804,-218,-1880,8853,-23617,-12985,169,453,-315,1,0,18,34,120,0,53298,1
2,32262,30795,32945,27817,8344,-6252,1277,-1771,14409,-27136,-11859,184,462,-264,1,0,18,34,160,0,53298,1
2,32263,30774,32934,27818,8332,-5812,1690,-2353,8592,-28924,-9520,189,447,-229,1,0,18,34,200,0,53298,1
2,32252,30767,32930,27819,8320,-4960,990,-3011,-1736,-27055,-9073,205,441,-199,1,0,18,34,240,0,53298,1
2,32261,30789,32933,27820,8308,-4445,852,-3152,-5049,-22097,-9352,219,429,-165,1,0,18,34,280,0,53298,1
2,32267,30818,32933,27821,8296,-4028,459,-3080,-2204,-16583,-8444,221,427,-141,1,0,18,34,320,0,53298,1
2,32268,30915,32936,27822,8283,-3617,229,-2455,2014,-11645,-6413,222,424,-134,1,0,18,34,360,0,53298,1
2,32279,30927,32940,27823,8269,-3657,138,-2007,1255,-6492,-4004,236,414,-136,1,0,18,34,400,0,53298,1
2,32290,30917,32949,27824,8255,-3989,-74,-1257,160,-2458,-2126,234,414,-136,1,0,18,34,440,0,53298,1
2,32296,30911,32948,27825,8243,-4195,-491,-499,-316,-51,-673,235,421,-133,1,0,18,34,480,0,53298,1
2,32303,30917,32961,27826,8230,-4591,-608,344,525,1579,180,238,420,-132,1,0,18,34,520,0,53298,1
2,32310,30929,32969,27827,8218,-4761,-1232,720,7,1403,358,232,420,-136,1,0,18,34,560,0,53298,1
2,32320,30913,32980,27828,8206,-4726,-1074,876,249,-208,-376,239,417,-139,1,0,18,34,600,0,53298,1
2,32334,30930,32985,27829,8194,-4813,-1073,804,109,-1457,-790,239,413,-145,1,0,18,34,640,0,53298,1
2,32315,30932,32973,27830,8182,-4610,-675,364,-32,-2172,-1077,234,410,-128,1,0,18,34,680,0,53298,1
2,32311,30932,32967,27831,8170,-4760,-269,211,168,-2361,-706,235,405,-117,1,0,18,34,720,0,53298,1
2,32308,30964,32960,27832,8157,-4535,-490,-71,-94,-1842,266,231,415,-115,1,0,18,34,760,0,53298,1
2,32295,30957,32954,27833,8146,-4224,-505,-287,624,-830,503,232,414,-134,1,0,18,34,800,0,53298,1
2,32299,30975,32956,27834,8134,-4100,-769,-617,722,921,1194,238,418,-132,1,0,18,34,840,0,53298,1
2,32297,30969,32950,27835,8121,-4074,-629,-891,874,2781,1370,232,422,-134,1,0,18,34,880,0,53298,1
2,32294,30966,32955,27836,8108,-3970,218,-1435,158,4671,1597,222,430,-138,1,0,18,34,920,0,53298,1
2,32287,30974,32949,27837,8095,-3777,741,-2362,-1987,7666,3342,224,438,-146,1,0,18,34,960,0,53298,1
1,32263,30970,32935,27838,0,-3504,1323,-3457,-2631,12457,5660,213,439,-179,1,0,18,35,0,0,53298,1
2,32236,30946,32923,27839,7824,-3614,1843,-4205,-178,19136,9050,210,446,-220,1,0,18,35,40,0,53298,1
2,32189,30935,32880,27840,7811,-4023,1943,-4666,2354,26987,12336,184,458,-266,1,0,18,35,80,0,53298,1
2,32172,30940,32885,27841,7798,-4630,1877,-5106,1735,32767,14625,160,454,-324,1,0,18,35,120,0,53298,1
2,31535,30686,32267,27842,7785,-8996,1512,-3548,-324,32767,15859,126,434,-378,1,0,18,35,160,0,53298,1
2,32288,31091,32961,27843,7772,-12930,1159,-382,-9823,32767,18232,95,403,-403,1,0,18,35,200,0,53298,1
2,31260,31029,32768,27844,7760,-5959,-3815,458,-26829,29335,19222,65,381,-401,1,0,18,35,240,0,53298,1
2,31186,30579,31872,27845,7746,-3256,-3271,2378,-17514,10088,6406,66,388,-398,1,0,18,35,280,0,53298,1
2,31209,30571,31887,27846,7732,-4740,243,-438,4473,-12919,-7641,86,422,-366,1,0,18,35,320,0,53298,1
2,31167,30578,31869,27847,7718,-3403,1981,-3824,5212,-19391,-10534,100,422,-352,1,0,18,35,360,0,53298,1
2,31124,30577,31841,27848,7704,-1976,2114,-4293,936,-14033,-7289,97,433,-349,1,0,18,35,400,0,53298,1
2,31120,30627,31799,27849,7689,-2935,985,-2140,386,-8687,-4897,105,429,-341,1,0,18,35,440,0,53298,1
2,31224,30726,31882,27850,7674,-3089,3,-2399,1866,-9249,-5834,116,438,-322,1,0,18,35,480,0,53298,1
2,33547,31090,32016,27851,7660,-3867,188,-2201,8373,-11597,-7136,133,443,-311,1,0,18,35,520,0,53298,1
2,31166,30661,31766,27852,7631,-4800,886,-2265,13644,-14490,-8771,153,451,-295,1,0,18,35,560,0,53298,1
2,31119,30565,31742,27853,7631,-4871,572,-1913,11455,-17311,-9482,163,455,-269,1,0,18,35,600,0,53298,1
2,31130,30607,31785,27854,7603,-4825,232,-1806,6666,-19054,-8364,176,454,-234,1,0,18,35,640,0,53298,1
2,31149,30604,31784,27855,7589,-4860,-194,-1203,872,-17733,-7593,193,453,-217,1,0,18,35,680,0,53298,1
2,31145,30588,31771,27856,7574,-4699,-481,-1202,-2478,-15820,-7706,201,443,-205,1,0,18,35,720,0,53298,1
2,31182,30576,31819,27857,7560,-4810,-176,-137,-1164,-14543,-8706,201,431,-175,1,0,18,35,760,0,53298,1
2,31221,30610,31863,27858,7547,-4832,-1,657,-2228,-13991,-6502,218,430,-160,1,0,18,35,800,0,53298,1
2,31232,30667,31871,27859,7533,-4787,-694,-95,-7512,-13061,-7197,229,429,-149,1,0,18,35,840,0,53298,1
2,31236,30668,31903,27860,7520,-4597,5,-218,-1710,-12970,-10323,248,412,-134,1,0,18,35,880,0,53298,1
2,31235,30673,31924,27861,7507,-3692,633,-1673,-3491,-13093,-9404,264,402,-114,1,0,18,35,920,0,53298,1
2,31258,30664,31959,27862,7507,-3609,1027,-1879,-725,-10575,-8206,265,399,-111,1,0,18,35,960,0,53298,1
1,31278,30667,31979,27863,7265,-3960,600,-2132,362,-5358,-3891,264,390,-106,1,0,18,36,0,1,53298,1
2,31315,30723,32017,27864,7252,-4249,-762,-1330,2722,-543,-770,264,406,-112,1,0,18,36,40,1,53298,1
2,31548,30702,32201,27865,7240,-4887,-1136,178,4516,3109,1941,263,401,-117,1,0,18,36,80,1,53298,1
2,31466,30688,32209,27866,7228,-5187,-1416,1243,2676,3630,2054,260,400,-122,1,0,18,36,120,1,53298,1
2,31450,30650,32179,27867,7216,-4718,-1426,1036,-833,1385,415,261,405,-117,1,0,18,36,160,1,53298,1
2,31422,30689,32155,27868,7204,-4361,-1050,913,-916,338,-492,257,407,-103,1,0,18,36,200,1,53298,1
2,31409,30683,32143,27869,7192,-4055,-670,266,-298,253,-116,257,409,-117,1,0,18,36,240,1,53298,1
2,31400,30669,32137,27870,7180,-3899,-263,-907,743,1488,1311,254,412,-116,1,0,18,36,280,1,53298,1
2,31375,30670,32124,27871,7169,-3762,530,-1649,1555,3856,3253,242,410,-122,1,0,18,36,320,1,53298,1
2,31353,30672,32101,27872,7156,-3763,892,-2329,-482,7655,5643,236,422,-148,1,0,18,36,360,1,53298,1
2,31317,30661,32062,27873,7144,-3928,887,-3025,-812,12810,8686,216,436,-174,1,0,18,36,400,1,53298,1
2,31272,30659,32048,27874,7131,-4208,1120,-3764,1511,19334,11796,200,446,-214,1,0,18,36,440,1,53298,1
2,31207,30674,32001,27875,7118,-4721,1731,-4907,3342,25891,13795,184,454,-242,1,0,18,36,480,1,53298,1
2,31074,30670,31878,27876,7104,-6246,1803,-5695,2817,32660,13308,165,459,-303,1,0,18,36,520,1,53298,1
2,31056,30670,31814,27877,7091,-10244,552,-3558,2695,32767,9617,147,451,-351,1,0,18,36,560,1,53298,1
2,31137,30663,31778,27878,7078,-12296,98,681,-8276,32767,13882,106,426,-390,1,0,18,36,600,1,53298,1
2,31503,30742,32054,27879,7066,-5794,-3795,-102,-32768,32767,24239,60,384,-400,1,0,18,36,640,1,53298,1
2,32104,31222,32641,27880,7052,-2380,-5519,1474,-21816,19793,16771,63,389,-411,1,0,18,36,680,1,53298,1
2,31951,31095,32628,27881,7038,-4714,885,1006,21394,-2333,-6288,96,384,-416,1,0,18,36,720,1,53298,1
2,31726,30984,32493,27882,7025,-3543,1845,-439,15594,-18671,-7285,91,419,-377,1,0,18,36,760,1,53298,1
2,32192,31204,32919,27883,7010,-2760,461,-4265,-12160,-18038,-4239,99,431,-353,1,0,18,36,800,1,53298,1
2,31283,30685,32262,27884,6997,-2679,846,-1608,-9916,-9830,-7730,106,436,-336,1,0,18,36,840,1,53298,1
2,31211,30610,31934,27885,6985,-3451,187,-2404,-8516,-8616,-6020,115,437,-327,1,0,18,36,880,1,53298,1
2,31310,30682,32053,27886,6973,-4254,-734,-2287,8676,-10532,-8583,137,449,-329,1,0,18,36,920,1,53298,1
2,31312,30707,32106,27887,6973,-4716,238,-2379,20865,-13222,-8935,159,451,-301,1,0,18,36,960,1,53298,1
1,31301,30729,32129,27888,6706,-4710,1419,-2417,17956,-15724,-8064,173,459,-287,1,0,18,37,0,1,53298,1
2,31296,30710,32074,27889,6694,-4387,1367,-2105,5696,-16833,-7733,172,448,-272,1,0,18,37,40,1,53298,1
2,31298,30609,32074,27890,6683,-4474,428,-1965,-4309,-15207,-7123,189,457,-233,1,0,18,37,80,1,53298,1
2,31276,30614,32098,27891,6673,-4454,-371,-1457,-4160,-14430,-7515,200,444,-226,1,0,18,37,120,1,53298,1
2,32312,31185,33203,27892,6664,-4854,-202,-863,1668,-13634,-6785,213,443,-199,1,0,18,37,160,1,53298,1
2,32095,30920,32955,27893,6656,-4940,-318,-395,1740,-14095,-7411,220,438,-182,1,0,18,37,200,1,53298,1
2,32074,31193,33520,27894,6648,-4821,-110,-769,-1689,-13931,-8599,228,438,-176,1,0,18,37,240,1,53298,1
2,32818,31386,33486,27895,6642,-4183,120,-1313,-2015,-12275,-7870,227,431,-151,1,0,18,37,280,1,53298,1
2,38996,31603,43281,27896,6635,-3890,575,-1886,627,-10393,-6594,236,426,-138,1,0,18,37,320,1,53298,1
2,43105,35969,45269,27897,6630,-3739,705,-2085,1369,-7559,-4186,239,419,-133,1,0,18,37,360,1,53298,1
2,44224,36678,44947,27898,6625,-3753,380,-2216,704,-3990,-1439,239,421,-145,1,0,18,37,400,1,53298,1
2,43886,36361,44205,27899,6619,-4096,-336,-1664,305,-11,856,240,416,-150,1,0,18,37,440,1,53298,1
2,43955,36599,44630,27900,6613,-4858,-711,-452,54,3269,2304,243,431,-143,1,0,18,37,480,1,53298,1
2,44016,36651,44671,27901,6606,-4968,-1608,486,-1478,3973,2123,248,426,-152,1,0,18,37,520,1,53298,1
2,41891,35449,42627,27902,6599,-5314,-1514,1664,-1420,3127,1364,247,433,-145,1,0,18,37,560,1,53298,1
2,40967,35118,41913,27903,6593,-5061,-1605,1557,-1897,104,-321,242,422,-156,1,0,18,37,600,1,53298,1
2,40161,34669,41100,27904,6587,-5040,-1222,1326,-1250,-2784,-1320,241,423,-139,1,0,18,37,640,1,53298,1
2,40538,34821,41318,27905,6580,-4584,-394,311,-1805,-4597,-1996,246,412,-132,1,0,18,37,680,1,53298,1
2,40858,35005,41726,27906,6573,-4188,-509,-634,-2309,-4284,-1610,246,412,-134,1,0,18,37,720,1,53298,1
2,40883,34947,41553,27907,6566,-3529,489,-2037,-1966,-2121,-481,249,413,-137,1,0,18,37,760,1,53298,1
2,40366,34759,41141,27908,6559,-3306,1120,-3350,-876,3072,2444,246,426,-146,1,0,18,37,800,1,53298,1
2,41281,35202,42094,27909,6551,-3148,1483,-4041,-14,10057,6997,225,433,-159,1,0,18,37,840,1,53298,1
2,41432,35369,42150,27910,6543,-3437,1578,-4260,387,18025,11233,213,447,-199,1,0,18,37,880,1,53298,1
2,41301,35334,42139,27911,6533,-3968,2397,-4534,2390,24979,14798,199,449,-233,1,0,18,37,920,1,53298,1
2,41548,35402,42452,27912,6533,-4293,2979,-4949,958,30752,17643,155,457,-297,1,0,18,37,960,1,53298,1
1,31584,30834,40887,27913,6149,-5312,2722,-5169,-5426,32767,20789,123,445,-353,1,0,18,38,0,1,53298,1
2,32078,34850,40854,27914,6139,-9278,1874,-3318,-12617,32767,22988,70,404,-382,1,0,18,38,40,1,53298,1
2,31491,30807,32348,27915,6128,-13502,-2276,-723,-25044,32767,26817,45,381,-375,1,0,18,38,80,1,53298,1
2,31800,31018,32560,27916,6116,-4079,-7426,1921,-32768,23782,13582,24,372,-364,1,0,18,38,120,1,53298,1
2,31318,30803,32167,27917,6103,-3089,-3068,1503,-18075,3285,-1925,40,378,-376,1,0,18,38,160,1,53298,1
2,31273,30744,32028,27918,6090,-2843,2073,-3003,21895,-9956,-7997,65,403,-397,1,0,18,38,200,1,53298,1
2,31337,30819,32103,27919,6077,-1429,4944,-3867,24132,-8881,-7024,65,407,-383,1,0,18,38,240,1,53298,1
2,31287,30800,32122,27920,6064,-1278,2779,-3685,-5455,-2030,-2395,57,401,-363,1,0,18,38,280,1,53298,1
2,31258,30800,32091,27921,6050,-2606,743,-1281,-16654,1216,1111,58,398,-366,1,0,18,38,320,1,53298,1
2,31274,30785,32060,27922,6037,-2535,-206,-1185,-2654,-1138,-1274,65,403,-361,1,0,18,38,360,1,53298,1
2,31317,30812,32082,27923,6023,-2172,1191,-2641,11350,-8316,-7260,83,411,-351,1,0,18,38,400,1,53298,1
2,31144,30729,31917,27924,6009,-2832,3386,-4501,6802,-10311,-8624,90,426,-336,1,0,18,38,440,1,53298,1
2,31173,30727,31931,27925,5995,-2467,3838,-4388,-2438,-7325,-7098,90,432,-338,1,0,18,38,480,1,53298,1
2,31267,30734,31916,27926,5981,-2537,2855,-3639,-2889,-4207,-3770,103,433,-335,1,0,18,38,520,1,53298,1
2,31138,30740,31908,27927,5967,-3227,1593,-2675,3023,-1517,-1154,105,429,-337,1,0,18,38,560,1,53298,1
2,31228,30744,32008,27928,5954,-3367,1933,-2039,7461,-782,-645,106,436,-340,1,0,18,38,600,1,53298,1
2,31182,30703,31864,27929,5939,-3747,383,-1154,7135,-2198,-1920,115,437,-339,1,0,18,38,640,1,53298,1
2,31319,30732,32009,27930,5925,-4118,-520,-250,4913,-4662,-4769,130,438,-336,1,0,18,38,680,1,53298,1
2,31343,30737,32061,27931,5910,-5446,-974,-762,5919,-11046,-9380,149,447,-303,1,0,18,38,720,1,53298,1
2,31290,30705,32034,27932,5897,-6190,38,-1487,12694,-15568,-12524,165,453,-285,1,0,18,38,760,1,53298,1
2,31239,30688,32010,27933,5884,-5548,-642,-1007,12123,-19392,-11906,180,448,-260,1,0,18,38,800,1,53298,1
2,31239,30684,32035,27934,5872,-5270,-224,-1088,11097,-21570,-12433,197,457,-233,1,0,18,38,840,1,53298,1
2,31249,30672,32036,27935,5859,-5056,-78,-807,2902,-21172,-11818,216,444,-196,1,0,18,38,880,1,53298,1
2,31274,30685,32030,27936,5847,-4539,673,-1550,-1642,-20457,-12331,239,439,-181,1,0,18,38,920,1,53298,1
2,31301,30673,32022,27937,5847,-4228,783,-2261,-5974,-18267,-12168,254,432,-160,1,0,18,38,960,1,53298,1
1,31342,30678,32039,27938,5590,-4102,1214,-2900,-5101,-13731,-10330,265,419,-145,1,0,18,39,0,1,53298,1
2,31338,30664,32041,27939,5578,-4213,1139,-2410,-1085,-10034,-8279,274,418,-136,1,0,18,39,40,1,53298,1
2,31333,30663,32035,27940,5565,-3716,887,-2095,-1764,-6175,-5113,275,411,-133,1,0,18,39,80,1,53298,1
2,31336,30660,32023,27941,5552,-4257,-389,-612,-1485,-3786,-2178,280,410,-136,1,0,18,39,120,1,53298,1
2,31331,30645,32013,27942,5539,-4170,-823,20,-1736,-2840,-1403,286,404,-112,1,0,18,39,160,1,53298,1
2,31332,30639,32021,27943,5527,-3802,-1416,139,-1236,-2996,-1277,278,406,-128,1,0,18,39,200,1,53298,1
2,31326,30656,32020,27944,5515,-4008,-1002,-317,1417,-654,-715,283,403,-125,1,0,18,39,240,1,53298,1
2,31333,30659,32036,27945,5504,-3809,-132,-1320,3738,1632,-306,275,411,-135,1,0,18,39,280,1,53298,1
2,31335,30650,32044,27946,5491,-4012,93,-2050,4597,5931,2766,263,419,-143,1,0,18,39,320,1,53298,1
2,31328,30647,32042,27947,5478,-4351,843,-2197,5459,10179,5744,250,428,-164,1,0,18,39,360,1,53298,1
2,31315,30654,32052,27948,5466,-4514,1140,-2387,2431,13616,8319,238,438,-176,1,0,18,39,400,1,53298,1
2,31271,30654,32046,27949,5454,-4807,966,-3180,-2278,18433,12635,226,448,-208,1,0,18,39,440,1,53298,1
2,31238,30625,32028,27950,5441,-4802,1352,-3428,-208,22648,15400,197,461,-251,1,0,18,39,480,1,53298,1
2,31201,30500,32009,27951,5429,-4478,1561,-4559,-2121,27324,17885,161,463,-295,1,0,18,39,520,1,53298,1
2,31182,30646,31994,27952,5417,-5551,1881,-4236,-4053,32767,19624,134,444,-346,1,0,18,39,560,1,53298,1
2,31193,30664,31942,27953,5405,-10791,928,-1608,-8904,32767,22351,90,408,-386,1,0,18,39,600,1,53298,1
2,31138,30645,31882,27954,5392,-9478,-3099,73,-23477,32767,23247,58,394,-390,1,0,18,39,640,1,53298,1
2,31117,30630,31852,27955,5379,-3212,-5437,439,-23193,19177,14820,70,382,-390,1,0,18,39,680,1,53298,1
2,31160,30640,31877,27956,5367,-3450,798,1693,-941,3001,-2218,72,404,-392,1,0,18,39,720,1,53298,1
2,31162,30630,31908,27957,5354,-3729,1354,-2868,9767,-15052,-8141,83,409,-373,1,0,18,39,760,1,53298,1
2,31161,30629,31915,27958,5341,-1895,3439,-4383,5203,-11623,-7250,81,413,-373,1,0,18,39,800,1,53298,1
2,31159,30631,31922,27959,5328,-2068,2900,-3180,-4529,-2954,-2438,72,406,-346,1,0,18,39,840,1,53298,1
2,31162,30620,31894,27960,5315,-2742,934,-2126,-7678,-1223,-275,83,423,-349,1,0,18,39,880,1,53298,1
2,31185,30633,31896,27961,5302,-2623,718,-2408,606,-2795,-2152,95,425,-359,1,0,18,39,920,1,53298,1
2,31171,30629,31904,27962,5302,-3266,377,-2563,10616,-5087,-4870,110,434,-356,1,0,18,39,960,1,53298,1
1,31160,30623,31925,27963,5032,-3317,1869,-3001,13051,-8188,-6862,107,437,-349,1,0,18,40,0,1,53298,1
2,31166,30630,31923,27964,5019,-3824,667,-1863,7882,-9885,-7275,145,435,-337,1,0,18,40,40,1,53298,1
2,31174,30628,31939,27965,5006,-3741,587,-2324,5484,-9760,-8265,148,444,-322,1,0,18,40,80,1,53298,1
2,31210,30647,31980,27966,4993,-4669,30,-828,6505,-11401,-7819,155,455,-313,1,0,18,40,120,1,53298,1
2,31230,30655,32026,27967,4981,-5196,-583,-1054,6762,-13918,-7678,174,458,-278,1,0,18,40,160,1,53298,1
2,31253,30660,32061,27968,4969,-5223,-476,-664,6658,-17163,-9255,184,458,-256,1,0,18,40,200,1,53298,1
2,31278,30686,32081,27969,4957,-5576,-301,-191,4412,-20219,-10140,210,454,-226,1,0,18,40,240,1,53298,1
2,31294,30659,32077,27970,4945,-4783,165,-1765,-1965,-21009,-11147,224,438,-196,1,0,18,40,280,1,53298,1
2,31326,30638,32088,27971,4933,-4167,864,-2638,-2541,-19361,-11280,229,433,-181,1,0,18,40,320,1,53298,1
2,31348,30591,32090,27972,4921,-3732,1256,-3256,-827,-15501,-10029,238,426,-160,1,0,18,40,360,1,53298,1
2,31375,30607,32112,27973,4909,-3666,1329,-2599,708,-9655,-7620,251,431,-159,1,0,18,40,400,1,53298,1
2,31382,30608,32117,27974,4897,-3895,431,-1845,426,-5650,-5177,260,428,-150,1,0,18,40,440,1,53298,1
2,31386,30612,32126,27975,4885,-3973,230,-1216,-207,-2513,-2937,255,425,-149,1,0,18,40,480,1,53298,1
2,31383,30636,32118,27976,4873,-4498,-488,-286,-631,-1282,-1156,246,422,-146,1,0,18,40,520,1,53298,1
2,31380,30645,32126,27977,4861,-4232,-577,-405,507,-926,204,252,424,-150,1,0,18,40,560,1,53298,1
2,31387,30654,32136,27978,4849,-4545,-1201,77,1196,-49,910,257,419,-149,1,0,18,40,600,1,53298,1
2,31386,30664,32140,27979,4838,-4505,-1106,263,1389,50,831,255,421,-145,1,0,18,40,640,1,53298,1
2,31395,30677,32154,27980,4826,-4329,-1318,21,297,-96,-33,251,419,-141,1,0,18,40,680,1,53298,1
2,31396,30667,32151,27981,4815,-4339,-1034,-32,988,354,64,245,421,-151,1,0,18,40,720,1,53298,1
2,31402,30715,32160,27982,4804,-4412,-993,338,765,320,-406,245,419,-151,1,0,18,40,760,1,53298,1
2,31402,30765,32156,27983,4794,-4469,-1074,144,16,86,-336,253,421,-137,1,0,18,40,800,1,53298,1
2,31411,30795,32173,27984,4783,-4435,-763,288,531,-615,-333,254,414,-144,1,0,18,40,840,1,53298,1
2,31406,30763,32172,27985,4773,-4674,-876,122,-244,-611,-74,251,415,-153,1,0,18,40,880,1,53298,1
2,31393,30739,32168,27986,4762,-4735,-702,-387,498,-126,632,247,421,-149,1,0,18,40,920,1,53298,1
2,31395,30714,32161,27987,4762,-4632,-406,-314,1008,7,600,255,423,-149,1,0,18,40,960,1,53298,1
1,31391,30710,32164,27988,4475,-4522,-992,-80,-143,464,489,244,428,-146,1,0,18,41,0,1,53298,1
2,31394,30716,32170,27989,4464,-4437,-1038,227,273,1295,715,248,416,-152,1,0,18,41,40,1,53298,1
2,31395,30720,32170,27990,4453,-4365,-1035,385,511,1298,695,247,417,-151,1,0,18,41,80,1,53298,1
2,31390,30679,32177,27991,4443,-4426,-951,282,359,1115,832,241,427,-151,1,0,18,41,120,1,53298,1
2,31402,30684,32195,27992,4433,-4248,-810,59,523,56,945,242,430,-152,1,0,18,41,160,1,53298,1
2,31410,30693,32211,27993,4424,-4258,-642,-81,-288,-81,1667,243,433,-155,1,0,18,41,200,1,53298,1
2,31420,30701,32219,27994,4416,-4074,-737,-179,-1340,-473,1729,238,428,-152,1,0,18,41,240,1,53298,1
2,31424,30741,32234,27995,4407,-4104,-834,-127,-1528,-230,1517,237,427,-143,1,0,18,41,280,1,53298,1
2,31441,30746,32248,27996,4399,-4632,-497,110,-1510,-679,636,243,433,-153,1,0,18,41,320,1,53298,1
2,31448,30738,32246,27997,4390,-4914,-677,-283,-2360,-867,-309,246,430,-146,1,0,18,41,360,1,53298,1
2,31483,30751,32279,27998,4382,-5163,-555,-268,-1159,-451,-599,249,425,-153,1,0,18,41,400,1,53298,1
2,31540,30782,32386,27999,4375,-4583,-724,228,-1582,347,-915,242,428,-148,1,0,18,41,440,1,53298,1
2,31616,30778,32403,28000,4367,-4778,-1674,654,-1970,1244,-1275,251,427,-161,1,0,18,41,480,1,53298,1
2,31724,30853,32543,28001,4360,-4777,-1198,868,689,916,-2041,250,428,-150,1,0,18,41,520,1,53298,1
2,31973,32250,33045,28002,4353,-4137,-625,362,540,68,-3061,255,429,-153,1,0,18,41,560,1,53298,1
2,40434,34816,40930,28003,4346,-4018,-700,-102,-101,-224,-3160,264,436,-154,1,0,18,41,600,1,53298,1
2,42992,36105,43221,28004,4339,-4077,-486,138,2071,-332,-2460,261,427,-145,1,0,18,41,640,1,53298,1
2,40370,34438,41218,28005,4332,-4183,-675,-3,2774,-1398,-1962,263,431,-155,1,0,18,41,680,1,53298,1
2,41832,35391,42547,28006,4325,-4230,-1370,213,1613,-2450,-2040,256,424,-140,1,0,18,41,720,1,53298,1
2,41581,35297,42140,28007,4318,-4275,-1773,-133,314,-3017,-2668,273,417,-141,1,0,18,41,760,1,53298,1
2,41677,35269,42282,28008,4312,-4461,-1785,-742,742,-2329,-3144,259,423,-141,1,0,18,41,800,1,53298,1
2,41725,35369,42902,28009,4306,-5043,-2131,-76,1934,-505,-3227,268,420,-134,1,0,18,41,840,1,53298,1
2,45080,37162,45075,28010,4300,-5473,-2022,-109,4386,363,-2980,266,410,-134,1,0,18,41,880,1,53298,1
2,45443,37147,45558,28011,4294,-5480,-1958,592,3841,877,-3713,270,418,-134,1,0,18,41,920,1,53298,1
2,45541,37026,45429,28012,4294,-5269,-2035,803,-584,692,-6733,280,416,-150,1,0,18,41,960,1,53298,1
1,45435,36934,45222,28013,3919,-5030,-231,610,1835,812,-6314,292,406,-136,1,0,18,42,0,0,53298,1
2,44601,36906,45271,28014,3912,-4556,-653,303,800,695,-3425,288,414,-140,1,0,18,42,40,0,53298,1
2,45209,36909,45157,28015,3905,-4311,-1355,170,2121,1833,-187,281,419,-143,1,0,18,42,80,0,53298,1
2,44962,36904,45023,28016,3895,-3574,-1182,-507,4299,3037,1834,283,429,-143,1,0,18,42,120,0,53298,1
2,44872,36231,44696,28017,3886,-2995,-2023,-969,-209,5802,2299,275,427,-163,1,0,18,42,160,0,53298,1
2,44870,36418,44278,28018,3877,-3152,-1731,-675,116,9217,3181,268,434,-180,1,0,18,42,200,0,53298,1
2,44494,35843,43590,28019,3868,-3440,-1523,-68,1749,11277,3986,267,435,-185,1,0,18,42,240,0,53298,1
2,46527,35669,42731,28020,3858,-3916,-1903,206,2437,11448,3959,249,443,-195,1,0,18,42,280,0,53298,1
2,46124,35456,42635,28021,3849,-4396,-371,676,7839,9690,3564,243,445,-207,1,0,18,42,320,0,53298,1
2,35235,31425,33261,28022,3839,-4418,-19,-246,11388,6410,2925,246,444,-206,1,0,18,42,360,0,53298,1
2,33025,30930,32940,28023,3829,-3891,-699,-1359,9661,3667,3230,230,450,-202,1,0,18,42,400,0,53298,1
2,32305,30903,32430,28024,3818,-3758,-1027,-3153,11405,3501,3914,224,456,-218,1,0,18,42,440,0,53298,1
2,32089,30893,32371,28025,3806,-4296,-1352,-3484,9759,6594,4377,212,454,-236,1,0,18,42,480,0,53298,1
2,31921,30876,32319,28026,3795,-4749,-2028,-2794,3333,10382,4067,212,460,-250,1,0,18,42,520,0,53298,1
2,31827,30857,32302,28027,3785,-5035,-1340,-1475,-1907,12272,3036,205,459,-269,1,0,18,42,560,0,53298,1
2,31770,30853,32297,28028,3774,-4863,-720,-741,-6209,10623,3120,197,455,-267,1,0,18,42,600,0,53298,1
2,31722,30854,32295,28029,3762,-4528,-787,-658,-9525,7135,4767,197,455,-279,1,0,18,42,640,0,53298,1
2,31773,30847,32251,28030,3751,-4378,-721,-1317,-9756,3714,5940,186,456,-290,1,0,18,42,680,0,53298,1
2,31883,30835,32251,28031,3739,-4931,-990,-2401,-7828,2993,5654,176,454,-294,1,0,18,42,720,0,53298,1
2,32043,30807,32192,28032,3727,-5418,-639,-3249,-3135,5033,3803,180,442,-312,1,0,18,42,760,0,53298,1
2,32040,30797,32233,28033,3714,-5233,-104,-3144,-509,7390,1663,190,452,-314,1,0,18,42,800,0,53298,1
2,31938,30772,32202,28034,3701,-5177,-1193,-2650,-2717,7826,877,174,448,-328,1,0,18,42,840,0,53298,1
2,31760,30744,32077,28035,3687,-4667,-1649,-2461,-559,5635,-1383,183,441,-315,1,0,18,42,880,0,53298,1
2,31986,30842,32234,28036,3674,-3664,-882,-2316,1143,2860,-3591,181,441,-317,1,0,18,42,920,0,53298,1
2,31932,30724,32080,28037,3674,-2986,-260,-1605,462,1001,-5183,193,445,-319,1,0,18,42,960,0,53298,1
1,32088,30736,32045,28038,3361,-2590,79,-1867,-3160,-988,-6500,202,456,-330,1,0,18,43,0,1,53298,1
2,31988,30734,31980,28039,3346,-1818,266,-1767,-1154,-3397,-5220,204,444,-320,1,0,18,43,40,1,53298,1
2,32753,32909,38390,28040,3332,-1197,567,-1846,1500,-3245,-2041,206,450,-314,1,0,18,43,80,1,53298,1
2,31954,30782,32136,28041,3317,-1451,647,-2532,-257,-1056,435,205,453,-317,1,0,18,43,120,1,53298,1
2,31564,30746,31992,28042,3303,-1460,582,-2233,-66,139,2749,193,451,-319,1,0,18,43,160,1,53298,1
2,31363,30695,31919,28043,3289,-3177,535,-3076,-3504,2401,6730,180,450,-322,1,0,18,43,200,1,53298,1
2,31194,30678,31855,28044,3275,-3178,1052,-3062,1272,81,7477,171,449,-321,1,0,18,43,240,1,53298,1
2,32621,30691,32030,28045,3261,-3228,1169,-3140,3292,-1175,8878,143,443,-319,1,0,18,43,280,1,53298,1
2,31177,30707,31857,28046,3246,-3822,718,-3418,267,1732,10953,138,446,-342,1,0,18,43,320,1,53298,1
2,31149,30688,31890,28047,3233,-4063,565,-2923,2491,4768,12561,120,434,-340,1,0,18,43,360,1,53298,1
2,31185,30719,31968,28048,3220,-5083,51,-3186,-2987,10705,14985,107,423,-351,1,0,18,43,400,1,53298,1
2,31190,30716,31960,28049,3209,-6092,-3,-2207,-5792,14774,13241,83,411,-367,1,0,18,43,440,1,53298,1
2,31193,30717,31931,28050,3196,-5576,-315,-1625,-5239,8702,8619,83,399,-367,1,0,18,43,480,1,53298,1
2,31201,30714,31920,28051,3182,-5280,-1714,-1395,-1919,245,2957,94,406,-368,1,0,18,43,520,1,53298,1
2,31194,30712,31920,28052,3169,-4303,-756,-2198,4966,-5767,-3537,102,410,-354,1,0,18,43,560,1,53298,1
2,31194,30710,31946,28053,3155,-3726,-210,-1859,8389,-9694,-5902,111,417,-347,1,0,18,43,600,1,53298,1
2,31185,30706,31954,28054,3140,-4145,-946,-1540,3531,-11105,-6043,123,429,-335,1,0,18,43,640,1,53298,1
2,31175,30704,31960,28055,3126,-3989,-501,-2389,2024,-12557,-6552,124,428,-306,1,0,18,43,680,1,53298,1
2,31188,30703,31972,28056,3111,-3211,-184,-2790,1025,-12971,-7122,131,437,-299,1,0,18,43,720,1,53298,1
2,31208,30671,31967,28057,3098,-2701,699,-4160,-2007,-9780,-6549,135,443,-281,1,0,18,43,760,1,53298,1
2,31242,30750,31974,28058,3084,-1563,1777,-4421,-1986,-6116,-6356,153,449,-291,1,0,18,43,800,1,53298,1
2,31205,30744,31957,28059,3070,-1263,3140,-7103,-4816,1165,-3431,152,444,-300,1,0,18,43,840,1,53298,1
2,31129,30738,31901,28060,3056,-985,4424,-6980,-1764,10943,-90,139,445,-327,1,0,18,43,880,1,53298,1
2,31101,30731,31890,28061,3042,-1873,3662,-4761,-52,18642,7469,123,423,-363,1,0,18,43,920,1,53298,1
2,31105,30723,31875,28062,3042,-1608,2863,-4177,1598,22291,18109,109,399,-387,1,0,18,43,960,1,53298,1
1,31171,30713,31996,28063,2805,-3663,1487,-2343,640,26517,20390,74,378,-412,1,0,18,44,0,1,53298,1
2,31822,31081,32608,28064,2793,-10004,-1261,-55,-2409,24981,19005,59,343,-431,1,0,18,44,40,1,53298,1
2,31599,30899,32383,28065,2781,-6674,-975,2398,-8514,28264,6881,32,314,-412,1,0,18,44,80,1,53298,1
2,31565,30878,32320,28066,2769,-4067,-2463,-575,-18889,1056,-6030,33,335,-409,1,0,18,44,120,1,53298,1
2,31571,30885,32285,28067,2756,-2549,1335,-4246,-2424,-12420,-4111,33,347,-393,1,0,18,44,160,1,53298,1
2,31630,30909,32330,28068,2744,-1702,2901,-5741,1691,-10445,-93,39,357,-391,1,0,18,44,200,1,53298,1
2,31602,30888,32307,28069,2730,-1661,1357,-5090,1464,-3999,-369,49,355,-397,1,0,18,44,240,1,53298,1
2,31560,30877,32268,28070,2716,-2139,1520,-4037,3209,-248,-288,47,359,-399,1,0,18,44,280,1,53298,1
2,31569,30875,32255,28071,2703,-1493,1613,-4580,788,-1037,-17,48,360,-404,1,0,18,44,320,1,53298,1
2,31621,30865,32307,28072,2689,-1293,1324,-4133,2316,198,458,45,351,-403,1,0,18,44,360,1,53298,1
2,31589,30824,32298,28073,2676,-1515,622,-3013,2298,318,-434,45,351,-397,1,0,18,44,400,1,53298,1
2,31587,30826,32310,28074,2662,-2252,475,-2241,-2027,-1022,-3112,41,357,-395,1,0,18,44,440,1,53298,1
2,31578,30816,32305,28075,2649,-2704,210,-2310,-2321,-4559,-6020,49,367,-377,1,0,18,44,480,1,53298,1
2,31580,30834,32280,28076,2636,-3164,314,-1950,-620,-8832,-8706,63,379,-373,1,0,18,44,520,1,53298,1
2,31550,30829,32274,28077,2623,-3673,-678,-1685,-133,-12207,-12221,69,397,-355,1,0,18,44,560,1,53298,1
2,31560,30843,32287,28078,2611,-4125,-5,-1843,3046,-16542,-13559,88,416,-330,1,0,18,44,600,1,53298,1
2,31605,30860,32345,28079,2598,-4757,-338,-1419,7468,-18713,-14128,120,430,-316,1,0,18,44,640,1,53298,1
2,31608,30858,32354,28080,2586,-4616,201,-2103,8015,-19718,-14546,127,435,-299,1,0,18,44,680,1,53298,1
2,31618,30855,32369,28081,2573,-4379,664,-2247,8542,-21332,-13230,145,449,-267,1,0,18,44,720,1,53298,1
2,31645,30853,32388,28082,2559,-4238,1567,-3113,4541,-21148,-11027,177,447,-239,1,0,18,44,760,1,53298,1
2,31750,30875,32425,28083,2545,-4056,2334,-5437,-2313,-12656,-6217,182,442,-224,1,0,18,44,800,1,53298,1
2,31764,30859,32380,28084,2532,-2644,2149,-4912,1649,-865,-1351,176,448,-224,1,0,18,44,840,1,53298,1
2,31702,30856,32360,28085,2519,-3778,245,-3347,-3284,4629,2541,183,459,-229,1,0,18,44,880,1,53298,1
2,31661,30849,32369,28086,2506,-4494,-762,-1000,-2769,6894,4220,176,446,-236,1,0,18,44,920,1,53298,1
2,31648,30850,32384,28087,2506,-5336,-693,356,536,2439,2894,166,450,-232,1,0,18,44,960,1,53298,1
1,31631,30850,32389,28088,2248,-4901,-979,4,-467,-2898,464,169,447,-229,1,0,18,45,0,1,53298,1
2,31636,30848,32395,28089,2235,-4096,-636,-932,2513,-3912,-738,175,447,-237,1,0,18,45,40,1,53298,1
2,31636,30847,32395,28090,2222,-3769,-610,-1986,875,-2165,-821,169,447,-229,1,0,18,45,80,1,53298,1
2,31475,30778,32236,28091,2209,-4181,-289,-2181,-153,-193,-1123,170,444,-230,1,0,18,45,120,1,53298,1
2,31470,30775,32212,28092,2195,-4226,-97,-2336,-853,2177,-612,174,446,-234,1,0,18,45,160,1,53298,1
2,31437,30774,32181,28093,2181,-4005,377,-2895,-611,6939,1058,170,458,-242,1,0,18,45,200,1,53298,1
2,31373,30767,32122,28094,2167,-3234,1984,-5563,-800,15235,4507,158,450,-266,1,0,18,45,240,1,53298,1
2,31315,30759,32055,28095,2153,-2237,3223,-6933,112,29248,12436,146,444,-314,1,0,18,45,280,1,53298,1
2,31302,30761,32092,28096,2140,-3936,3193,-6046,1880,32767,17817,120,430,-360,1,0,18,45,320,1,53298,1
2,31400,30808,32175,28097,2127,-7070,2277,-3312,-1447,32767,23664,83,395,-387,1,0,18,45,360,1,53298,1
