sensorStatus,cap1,cap2,cap3,counter,microseconds_since_last_tick,accX,accY,accZ,gyroX,gyroY,gyroZ,magnetX,magnetY,magnetZ,day,hour,min,sec,msec,sync,battery_fuel,crc_good
2,28225,30563,31750,78984,27101,-4470,-322,-1077,-24,70,-27,151,533,-189,1,0,52,40,840,1,53298,1
2,28225,30561,31750,78985,27123,-4463,-339,-1100,3,57,-27,136,540,-180,1,0,52,40,880,1,53298,1
2,28234,30558,31754,78986,27145,-4453,-329,-1090,55,42,-11,143,537,-191,1,0,52,40,920,1,53298,1
2,28225,30567,31750,78987,27166,-4462,-326,-1083,41,44,-7,134,540,-174,1,0,52,40,960,1,53298,1
1,28235,30560,31748,78988,0,-4463,-340,-1092,-4,42,10,146,534,-180,1,0,52,41,0,1,53298,1
2,28251,30560,31748,78989,26232,-4456,-339,-1093,25,28,33,138,528,-182,1,0,52,41,40,1,53298,1
2,28260,30561,31748,78990,26253,-4467,-333,-1086,68,23,33,146,534,-182,1,0,52,41,80,1,53298,1
2,28257,30567,31743,78991,26274,-4469,-338,-1096,18,19,23,145,531,-177,1,0,52,41,120,1,53298,1
2,28268,30564,31750,78992,26295,-4472,-344,-1080,-12,10,23,137,525,-181,1,0,52,41,160,1,53298,1
2,28274,30558,31743,78993,26316,-4454,-334,-1073,16,-14,22,147,529,-179,1,0,52,41,200,1,53298,1
2,28268,30547,31746,78994,26337,-4471,-329,-1083,10,-2,21,142,532,-178,1,0,52,41,240,1,53298,1
2,28269,30557,31745,78995,26358,-4456,-333,-1075,-6,7,13,139,543,-175,1,0,52,41,280,1,53298,1
2,28287,30562,31748,78996,26378,-4473,-341,-1090,7,15,7,143,531,-171,1,0,52,41,320,1,53298,1
2,28282,30563,31753,78997,26399,-4451,-326,-1086,25,26,7,141,535,-191,1,0,52,41,360,1,53298,1
2,28276,30559,31750,78998,26419,-4458,-337,-1094,21,29,8,146,530,-180,1,0,52,41,400,1,53298,1
2,28289,30559,31746,78999,26439,-4455,-341,-1093,13,26,13,139,545,-177,1,0,52,41,440,1,53298,1
2,28294,30559,31743,79000,26459,-4457,-332,-1074,29,24,13,137,535,-183,1,0,52,41,480,1,53298,1
2,28289,30565,31755,79001,26479,-4448,-331,-1076,9,13,29,150,536,-188,1,0,52,41,520,1,53298,1
2,28297,30565,31747,79002,26500,-4460,-334,-1084,-4,-2,28,143,539,-179,1,0,52,41,560,1,53298,1
2,28310,30561,31755,79003,26520,-4457,-334,-1100,-1,-10,24,139,533,-179,1,0,52,41,600,1,53298,1
2,28299,30575,31751,79004,26540,-4456,-327,-1078,1,-11,25,137,535,-179,1,0,52,41,640,1,53298,1
2,28307,30555,31753,79005,26560,-4458,-337,-1094,4,-11,21,143,531,-181,1,0,52,41,680,1,53298,1
2,28305,30561,31748,79006,26579,-4454,-337,-1097,6,-4,30,147,533,-175,1,0,52,41,720,1,53298,1
2,28319,30558,31746,79007,26599,-4459,-340,-1079,15,8,25,141,535,-181,1,0,52,41,760,1,53298,1
2,28325,30562,31743,79008,26620,-4445,-318,-1092,19,18,23,147,531,-185,1,0,52,41,800,1,53298,1
2,28322,30561,31744,79009,26640,-4466,-340,-1103,9,17,16,146,538,-178,1,0,52,41,840,1,53298,1
2,28319,30564,31748,79010,26660,-4460,-349,-1093,5,8,9,144,542,-172,1,0,52,41,880,1,53298,1
2,28312,30567,31746,79011,26681,-4467,-344,-1090,13,10,21,147,533,-191,1,0,52,41,920,1,53298,1
2,28301,30567,31745,79012,26701,-4465,-334,-1089,11,11,6,143,533,-181,1,0,52,41,960,1,53298,1
1,28285,30566,31741,79013,0,-4448,-328,-1077,4,9,6,140,536,-184,1,0,52,42,0,1,53298,1
2,28282,30565,31740,79014,25778,-4459,-331,-1095,2,8,12,149,537,-179,1,0,52,42,40,1,53298,1
0,28282,30565,31740,79014,25799,-4459,-331,-1095,2,8,12,149,537,-179,1,0,52,42,40,1,53298,1
2,28269,30574,31743,79064,24872,-4459,-302,-1076,45,68,4,144,526,-182,1,0,52,44,40,0,53298,1
1,28257,30574,31747,79066,24912,-4452,-326,-1089,-1,45,-62,140,530,-186,1,0,52,44,120,0,53298,1
2,28261,30564,31741,79067,24933,-4455,-333,-1093,-6,-4,-16,149,531,-187,1,0,52,44,160,0,53298,1
2,28250,30573,31745,79068,24953,-4468,-328,-1079,-13,-69,50,141,539,-181,1,0,52,44,200,0,53298,1
2,28267,30578,31744,79069,24973,-4468,-323,-1090,-41,-108,98,138,532,-188,1,0,52,44,240,0,53298,1
2,28273,30579,31740,79070,24993,-4452,-307,-1080,-48,-107,119,135,529,-173,1,0,52,44,280,0,53298,1
2,28288,30582,31739,79071,25013,-4460,-308,-1066,-22,-60,104,137,529,-177,1,0,52,44,320,0,53298,1
2,28290,30578,31734,79072,25033,-4466,-300,-1058,6,-20,56,136,538,-176,1,0,52,44,360,0,53298,1
2,28295,30576,31740,79073,25053,-4448,-299,-1077,1,27,16,146,530,-176,1,0,52,44,400,0,53298,1
2,28281,30579,31735,79074,25073,-4455,-299,-1077,22,64,-9,138,526,-174,1,0,52,44,440,0,53298,1
2,28270,30575,31738,79075,25093,-4453,-314,-1076,54,74,-2,141,533,-189,1,0,52,44,480,0,53298,1
2,28255,30578,31734,79076,25113,-4461,-309,-1087,45,69,-1,130,534,-170,1,0,52,44,520,0,53298,1
2,28250,30581,31733,79077,25133,-4457,-320,-1083,31,53,-17,140,530,-182,1,0,52,44,560,0,53298,1
2,28248,30575,31731,79078,25153,-4462,-321,-1073,6,20,-5,133,529,-173,1,0,52,44,600,0,53298,1
2,28227,30575,31735,79079,25172,-4460,-313,-1078,-4,-7,17,143,537,-183,1,0,52,44,640,0,53298,1
2,28236,30577,31739,79080,25192,-4460,-318,-1077,-4,-33,40,143,539,-183,1,0,52,44,680,0,53298,1
2,28227,30574,31730,79081,25211,-4469,-318,-1079,-23,-30,46,147,527,-179,1,0,52,44,720,0,53298,1
2,28254,30575,31728,79082,25231,-4454,-302,-1085,-15,-46,41,140,530,-188,1,0,52,44,760,0,53298,1
2,28255,30564,31732,79083,25252,-4444,-304,-1083,-15,-39,28,136,532,-174,1,0,52,44,800,0,53298,1
2,28255,30560,31732,79084,25272,-4463,-318,-1088,18,-6,29,139,527,-179,1,0,52,44,840,0,53298,1
2,28262,30560,31736,79085,25292,-4462,-312,-1072,22,30,19,139,535,-175,1,0,52,44,880,0,53298,1
2,28257,30560,31736,79086,25313,-4441,-303,-1099,4,48,4,149,537,-187,1,0,52,44,920,0,53298,1
2,28244,30560,31734,79087,25333,-4465,-317,-1090,0,30,2,135,533,-177,1,0,52,44,960,0,53298,1
1,28259,30562,31733,79088,0,-4468,-323,-1076,13,10,21,139,537,-177,1,0,52,45,0,1,53298,1
2,28257,30561,31738,79089,24418,-4461,-306,-1064,-10,-23,28,147,531,-189,1,0,52,45,40,1,53298,1
2,28258,30559,31735,79090,24438,-4462,-309,-1081,-26,-31,23,140,540,-180,1,0,52,45,80,1,53298,1
2,28253,30557,31738,79091,24458,-4457,-296,-1077,-12,-28,15,137,533,-185,1,0,52,45,120,1,53298,1
2,28261,30554,31735,79092,24479,-4458,-314,-1088,6,-14,5,143,523,-189,1,0,52,45,160,1,53298,1
2,28244,30560,31735,79093,24500,-4454,-308,-1076,0,-19,11,138,532,-176,1,0,52,45,200,1,53298,1
2,28241,30561,31735,79094,24521,-4458,-313,-1071,-5,-27,3,152,534,-184,1,0,52,45,240,1,53298,1
2,28257,30558,31735,79095,24542,-4457,-312,-1082,-18,-36,9,136,540,-176,1,0,52,45,280,1,53298,1
2,28257,30557,31736,79096,24563,-4457,-317,-1062,-20,-28,28,148,528,-178,1,0,52,45,320,1,53298,1
2,28233,30569,31734,79097,24584,-4462,-314,-1063,23,0,38,143,535,-181,1,0,52,45,360,1,53298,1
2,28259,30570,31731,79098,24605,-4458,-308,-1056,32,45,33,130,534,-186,1,0,52,45,400,1,53298,1
2,28253,30563,31737,79099,24626,-4471,-318,-1083,51,94,48,142,536,-174,1,0,52,45,440,1,53298,1
2,28242,30563,31735,79100,24646,-4462,-302,-1076,102,144,71,132,532,-190,1,0,52,45,480,1,53298,1
2,28253,30560,31734,79101,24666,-4456,-297,-1105,138,173,40,139,541,-181,1,0,52,45,520,1,53298,1
2,28261,30568,31734,79102,24686,-4452,-303,-1089,109,159,-54,129,529,-177,1,0,52,45,560,1,53298,1
2,28256,30573,31739,79103,24707,-4449,-318,-1128,40,107,-125,144,532,-186,1,0,52,45,600,1,53298,1
2,28265,30573,31737,79104,24727,-4459,-346,-1123,-9,10,-84,143,531,-185,1,0,52,45,640,1,53298,1
2,28275,30570,31735,79105,24748,-4468,-326,-1099,-32,-91,-10,141,525,-191,1,0,52,45,680,1,53298,1
2,28241,30570,31735,79106,24768,-4460,-324,-1078,-60,-153,80,146,532,-184,1,0,52,45,720,1,53298,1
2,28231,30570,31741,79107,24789,-4456,-314,-1086,-67,-152,105,137,533,-171,1,0,52,45,760,1,53298,1
2,28225,30569,31739,79108,24810,-4463,-299,-1059,-61,-124,86,146,536,-182,1,0,52,45,800,1,53298,1
2,28225,30566,31737,79109,24831,-4452,-317,-1087,-73,-79,79,144,528,-180,1,0,52,45,840,1,53298,1
2,28216,30566,31735,79110,24851,-4448,-300,-1091,-69,-65,69,143,533,-177,1,0,52,45,880,1,53298,1
2,28213,30560,31741,79111,24871,-4462,-322,-1075,-48,-69,79,140,532,-172,1,0,52,45,920,1,53298,1
2,28207,30564,31743,79112,24891,-4457,-320,-1072,-34,-61,82,145,535,-187,1,0,52,45,960,1,53298,1
1,28202,30567,31744,79113,0,-4453,-302,-1068,-3,-13,82,144,534,-184,1,0,52,46,0,1,53298,1
2,28210,30568,31747,79114,23964,-4464,-317,-1071,61,45,53,141,527,-181,1,0,52,46,40,1,53298,1
2,28216,30561,31740,79115,23985,-4443,-292,-1087,63,92,-10,139,531,-179,1,0,52,46,80,1,53298,1
2,28200,30569,31743,79116,24006,-4454,-309,-1080,53,111,-41,136,526,-170,1,0,52,46,120,1,53298,1
2,28210,30569,31749,79117,24026,-4464,-319,-1078,48,92,-29,134,536,-180,1,0,52,46,160,1,53298,1
2,28207,30562,31743,79118,24047,-4453,-314,-1103,34,44,0,142,522,-178,1,0,52,46,200,1,53298,1
2,28191,30563,31741,79119,24069,-4439,-303,-1092,3,-13,27,140,528,-186,1,0,52,46,240,1,53298,1
2,28175,30564,31743,79120,24090,-4449,-310,-1106,-32,-54,49,144,528,-184,1,0,52,46,280,1,53298,1
2,28200,30570,31740,79121,24111,-4457,-302,-1074,-22,-81,53,140,530,-174,1,0,52,46,320,1,53298,1
2,28186,30571,31741,79122,24133,-4447,-303,-1069,-36,-72,40,137,527,-179,1,0,52,46,360,1,53298,1
2,28179,30567,31739,79123,24154,-4464,-311,-1069,-13,-43,27,145,541,-191,1,0,52,46,400,1,53298,1
2,28195,30565,31741,79124,24175,-4459,-306,-1079,-1,-7,31,136,528,-178,1,0,52,46,440,1,53298,1
2,28191,30565,31748,79125,24197,-4449,-313,-1076,17,24,17,139,537,-187,1,0,52,46,480,1,53298,1
2,28186,30571,31747,79126,24217,-4446,-301,-1088,19,43,14,142,540,-184,1,0,52,46,520,1,53298,1
2,28196,30569,31739,79127,24238,-4464,-309,-1086,18,46,12,138,528,-184,1,0,52,46,560,1,53298,1
2,28188,30569,31741,79128,24259,-4451,-302,-1084,16,25,14,139,541,-181,1,0,52,46,600,1,53298,1
2,28196,30571,31740,79129,24280,-4450,-316,-1089,3,12,20,138,538,-184,1,0,52,46,640,1,53298,1
2,28185,30577,31738,79130,24300,-4454,-303,-1091,8,1,15,133,531,-181,1,0,52,46,680,1,53298,1
2,28182,30571,31746,79131,24321,-4461,-309,-1080,1,-20,18,133,537,-163,1,0,52,46,720,1,53298,1
2,28200,30570,31743,79132,24342,-4462,-307,-1073,-5,-15,33,139,539,-181,1,0,52,46,760,1,53298,1
2,28203,30572,31743,79133,24363,-4458,-306,-1087,-5,-18,36,146,536,-190,1,0,52,46,800,1,53298,1
2,28198,30570,31748,79134,24384,-4454,-305,-1098,0,-7,29,140,536,-176,1,0,52,46,840,1,53298,1
2,28185,30573,31745,79135,24405,-4466,-309,-1079,-3,1,26,138,528,-174,1,0,52,46,880,1,53298,1
2,28202,30566,31740,79136,24426,-4461,-308,-1075,5,12,33,135,527,-171,1,0,52,46,920,1,53298,1
2,28192,30565,31740,79137,24447,-4463,-317,-1074,-4,8,21,142,532,-180,1,0,52,46,960,1,53298,1
1,28176,30565,31743,79138,0,-4450,-318,-1072,2,7,3,138,536,-184,1,0,52,47,0,1,53298,1
2,28185,30567,31745,79139,23511,-4458,-315,-1079,0,4,9,137,533,-175,1,0,52,47,40,1,53298,1
2,28184,30569,31743,79140,23531,-4451,-298,-1067,11,-2,21,148,526,-182,1,0,52,47,80,1,53298,1
2,28198,30573,31744,79141,23552,-4460,-309,-1074,7,-3,27,149,537,-181,1,0,52,47,120,1,53298,1
2,28199,30572,31748,79142,23572,-4471,-320,-1079,-11,-6,29,146,534,-192,1,0,52,47,160,1,53298,1
2,28200,30570,31746,79143,23592,-4458,-298,-1087,1,-9,32,143,533,-185,1,0,52,47,200,1,53298,1
2,28187,30572,31748,79144,23612,-4469,-323,-1079,3,-12,29,143,539,-183,1,0,52,47,240,1,53298,1
2,28183,30573,31752,79145,23633,-4460,-303,-1101,-4,-3,35,140,534,-182,1,0,52,47,280,1,53298,1
2,28184,30573,31749,79146,23653,-4449,-307,-1069,15,-4,17,137,529,-175,1,0,52,47,320,1,53298,1
2,28196,30576,31748,79147,23673,-4449,-314,-1094,3,8,10,144,534,-172,1,0,52,47,360,1,53298,1
2,28186,30572,31749,79148,23693,-4459,-314,-1077,22,12,18,142,536,-184,1,0,52,47,400,1,53298,1
2,28200,30571,31752,79149,23713,-4467,-315,-1068,7,12,21,139,535,-181,1,0,52,47,440,1,53298,1
2,28189,30570,31750,79150,23734,-4460,-319,-1081,-2,4,26,140,530,-182,1,0,52,47,480,1,53298,1
2,28186,30567,31743,79151,23753,-4451,-305,-1093,7,-13,28,135,531,-185,1,0,52,47,520,1,53298,1
2,28177,30572,31746,79152,23773,-4466,-315,-1083,-5,-15,27,136,528,-172,1,0,52,47,560,1,53298,1
2,28183,30569,31750,79153,23793,-4465,-314,-1071,-26,-20,19,145,529,-183,1,0,52,47,600,1,53298,1
2,28170,30567,31740,79154,23814,-4461,-313,-1100,-31,-25,22,139,533,-189,1,0,52,47,640,1,53298,1
2,28167,30573,31751,79155,23835,-4452,-312,-1082,-9,-21,21,144,522,-178,1,0,52,47,680,1,53298,1
2,28165,30568,31742,79156,23856,-4462,-315,-1081,12,4,29,141,533,-185,1,0,52,47,720,1,53298,1
2,28187,30567,31745,79157,23876,-4460,-309,-1075,14,30,20,133,539,-173,1,0,52,47,760,1,53298,1
2,28189,30564,31746,79158,23897,-4461,-318,-1074,27,35,22,146,534,-184,1,0,52,47,800,1,53298,1
2,28160,30567,31743,79159,23917,-4463,-315,-1079,21,20,34,142,536,-188,1,0,52,47,840,1,53298,1
2,28158,30569,31747,79160,23938,-4465,-309,-1085,14,10,29,148,528,-180,1,0,52,47,880,1,53298,1
2,28161,30566,31746,79161,23958,-4463,-322,-1090,2,-1,30,138,528,-174,1,0,52,47,920,1,53298,1
2,28156,30573,31751,79162,23979,-4449,-299,-1081,2,-10,24,133,541,-183,1,0,52,47,960,1,53298,1
1,28146,30570,31743,79163,0,-4448,-305,-1066,-1,-8,9,138,532,-186,1,0,52,48,0,1,53298,1
2,28123,30566,31748,79164,23058,-4464,-316,-1078,9,-11,-2,142,534,-188,1,0,52,48,40,1,53298,1
2,28160,30565,31744,79165,23079,-4465,-328,-1076,0,-12,6,145,531,-179,1,0,52,48,80,1,53298,1
2,28152,30567,31742,79166,23100,-4452,-300,-1072,2,-7,32,134,530,-190,1,0,52,48,120,1,53298,1
2,28155,30567,31746,79167,23121,-4456,-298,-1069,4,-3,32,142,536,-180,1,0,52,48,160,1,53298,1
2,28149,30566,31741,79168,23143,-4457,-306,-1079,8,11,26,136,526,-174,1,0,52,48,200,1,53298,1
2,28144,30568,31746,79169,23164,-4457,-314,-1082,4,7,29,141,533,-183,1,0,52,48,240,1,53298,1
2,28163,30573,31742,79170,23185,-4460,-323,-1092,0,3,20,139,539,-185,1,0,52,48,280,1,53298,1
2,28169,30568,31739,79171,23205,-4450,-309,-1082,-1,-13,13,143,539,-177,1,0,52,48,320,1,53298,1
2,28172,30570,31739,79172,23226,-4456,-315,-1067,3,-12,19,138,534,-184,1,0,52,48,360,1,53298,1
2,28150,30571,31742,79173,23246,-4458,-304,-1067,9,1,26,131,537,-173,1,0,52,48,400,1,53298,1
2,28148,30564,31742,79174,23266,-4452,-312,-1092,-4,9,18,138,536,-184,1,0,52,48,440,1,53298,1
2,28141,30567,31746,79175,23286,-4462,-313,-1084,-5,7,18,141,523,-171,1,0,52,48,480,1,53298,1
2,28150,30563,31741,79176,23306,-4471,-320,-1070,3,0,21,135,541,-177,1,0,52,48,520,1,53298,1
2,28165,30560,31739,79177,23326,-4468,-327,-1088,-10,-18,16,138,540,-170,1,0,52,48,560,1,53298,1
2,28158,30570,31745,79178,23345,-4455,-304,-1092,-7,-10,30,147,533,-177,1,0,52,48,600,1,53298,1
2,28152,30565,31740,79179,23364,-4457,-304,-1081,11,-14,16,134,522,-188,1,0,52,48,640,1,53298,1
2,28162,30560,31737,79180,23384,-4459,-317,-1081,-2,18,19,133,539,-177,1,0,52,48,680,1,53298,1
2,28158,30565,31742,79181,23404,-4465,-307,-1080,18,22,25,139,541,-181,1,0,52,48,720,1,53298,1
2,28165,30565,31737,79182,23425,-4458,-308,-1093,5,12,30,138,528,-182,1,0,52,48,760,1,53298,1
2,28168,30563,31741,79183,23445,-4458,-312,-1080,5,7,30,140,536,-186,1,0,52,48,800,1,53298,1
2,28184,30566,31737,79184,23465,-4464,-298,-1092,2,4,26,137,527,-173,1,0,52,48,840,1,53298,1
2,28194,30554,31738,79185,23486,-4456,-307,-1084,5,-6,26,138,532,-184,1,0,52,48,880,1,53298,1
2,28183,30567,31738,79186,23507,-4452,-311,-1080,-2,-19,10,140,540,-178,1,0,52,48,920,1,53298,1
2,28198,30561,31736,79187,23529,-4462,-315,-1073,0,-15,7,140,524,-184,1,0,52,48,960,1,53298,1
1,28195,30574,31744,79188,0,-4455,-311,-1070,12,-6,31,139,529,-185,1,0,52,49,0,1,53298,1
2,28182,30571,31738,79189,22605,-4462,-305,-1070,15,21,31,144,526,-188,1,0,52,49,40,1,53298,1
2,28196,30569,31743,79190,22626,-4454,-310,-1087,-4,19,19,144,528,-186,1,0,52,49,80,1,53298,1
2,28165,30575,31741,79191,22646,-4470,-325,-1088,-3,4,23,146,540,-188,1,0,52,49,120,1,53298,1
2,28173,30566,31741,79192,22667,-4453,-301,-1076,-7,-28,23,149,533,-185,1,0,52,49,160,1,53298,1
2,28176,30565,31740,79193,22688,-4450,-307,-1081,-12,-30,31,141,537,-181,1,0,52,49,200,1,53298,1
2,28176,30567,31742,79194,22709,-4470,-319,-1077,-5,-12,31,135,535,-173,1,0,52,49,240,1,53298,1
2,28191,30564,31738,79195,22731,-4463,-309,-1077,10,8,18,136,534,-188,1,0,52,49,280,1,53298,1
2,28179,30571,31741,79196,22752,-4447,-311,-1084,8,15,11,147,535,-187,1,0,52,49,320,1,53298,1
2,28182,30569,31736,79197,22774,-4452,-307,-1103,16,4,14,140,538,-182,1,0,52,49,360,1,53298,1
2,28217,30571,31737,79198,22795,-4456,-311,-1089,13,-3,22,146,536,-180,1,0,52,49,400,1,53298,1
2,28210,30573,31740,79199,22816,-4452,-292,-1097,-5,-4,22,146,536,-186,1,0,52,49,440,1,53298,1
2,28203,30573,31743,79200,22836,-4450,-301,-1076,-8,-13,25,137,537,-181,1,0,52,49,480,1,53298,1
2,28191,30569,31735,79201,22856,-4463,-302,-1083,-4,-12,31,142,530,-178,1,0,52,49,520,1,53298,1
2,28185,30568,31745,79202,22877,-4439,-298,-1067,-4,-5,15,135,543,-185,1,0,52,49,560,1,53298,1
2,28192,30569,31742,79203,22899,-4451,-304,-1085,-25,-18,17,135,541,-185,1,0,52,49,600,1,53298,1
2,28190,30569,31740,79204,22920,-4453,-313,-1081,-9,-33,35,132,528,-190,1,0,52,49,640,1,53298,1
2,28181,30569,31746,79205,22941,-4464,-292,-1096,-31,-45,44,145,533,-183,1,0,52,49,680,1,53298,1
2,28186,30568,31739,79206,22961,-4466,-295,-1065,-70,-92,92,140,530,-176,1,0,52,49,720,1,53298,1
2,28177,30569,31739,79207,22981,-4478,-312,-1064,-131,-148,169,145,529,-179,1,0,52,49,760,1,53298,1
2,28192,30565,31734,79208,23002,-4431,-307,-1067,-184,-261,269,139,539,-177,1,0,52,49,800,1,53298,1
2,28167,30566,31733,79209,23023,-4423,-301,-1081,-253,-280,279,132,534,-178,1,0,52,49,840,1,53298,1
2,28187,30568,31732,79210,23044,-4471,-288,-1029,-171,-267,245,138,528,-182,1,0,52,49,880,1,53298,1
2,28171,30568,31734,79211,23065,-4459,-265,-1034,-116,-231,219,135,535,-187,1,0,52,49,920,1,53298,1
2,28176,30560,31731,79212,23087,-4491,-285,-1032,-11,-143,202,129,537,-161,1,0,52,49,960,1,53298,1
1,28169,30566,31731,79213,0,-4443,-264,-1020,69,-35,125,132,534,-170,1,0,52,50,0,0,53298,1
2,28173,30564,31728,79214,22153,-4512,-245,-1038,-139,100,-24,140,524,-180,1,0,52,50,40,0,53298,1
2,28168,30574,31732,79215,22174,-4522,-250,-1033,-398,23,-28,146,544,-180,1,0,52,50,80,0,53298,1
2,28152,30577,31719,79216,22196,-4592,-169,-931,-709,-250,101,135,531,-171,1,0,52,50,120,0,53298,1
2,28067,30566,31710,79217,22218,-4974,-207,-871,-2754,-806,-162,141,535,-173,1,0,52,50,160,0,53298,1
2,28039,30575,31704,79218,22239,-5011,9,-824,-4617,-1589,-280,143,533,-173,1,0,52,50,200,0,53298,1
2,28065,30569,31685,79219,22261,-4990,-516,-666,-5575,-2451,-30,154,522,-168,1,0,52,50,240,0,53298,1
2,28244,30565,31671,79220,22282,-4697,-1083,-1084,-4660,-2797,-1116,157,521,-169,1,0,52,50,280,0,53298,1
2,28439,30581,31689,79221,22303,-4200,-415,-1380,-2651,-2445,-2018,175,523,-169,1,0,52,50,320,0,53298,1
2,28586,30576,31692,79222,22326,-3633,898,-1727,1061,-860,-1113,167,529,-165,1,0,52,50,360,0,53298,1
2,28303,30623,31684,79223,22348,-2772,3107,-2513,2531,2220,2481,169,531,-183,1,0,52,50,400,0,53298,1
2,28066,30609,31680,79224,22370,-1965,5345,-3159,3574,6848,9985,132,516,-204,1,0,52,50,440,0,53298,1
2,28152,30585,31674,79225,22392,-2325,6443,-3077,3411,12482,21081,76,508,-238,1,0,52,50,480,0,53298,1
2,28257,30647,31670,79226,22415,-6013,4897,-2702,818,17383,32767,5,459,-263,1,0,52,50,520,0,53298,1
2,28294,30710,31660,79227,22437,-10054,2926,-2019,-558,17378,32767,-53,371,-291,1,0,52,50,560,0,53298,1
2,28283,30661,31645,79228,22460,-9240,-162,-1527,-6700,13156,32767,-65,321,-287,1,0,52,50,600,0,53298,1
2,28360,30559,31676,79229,22483,-4931,-996,-1662,-11290,7366,18143,-70,298,-272,1,0,52,50,640,0,53298,1
2,28723,30618,31685,79230,22504,-3141,-731,-1353,-10803,5071,7275,-63,293,-251,1,0,52,50,680,0,53298,1
2,28541,30554,31668,79231,22526,-2143,-497,-1184,-3418,4094,5505,-49,283,-261,1,0,52,50,720,0,53298,1
2,28404,30568,31675,79232,22548,-1951,-330,-760,6261,3572,6604,-56,272,-274,1,0,52,50,760,0,53298,1
2,28447,30619,31743,79233,22569,-2450,8,-117,8380,2709,4246,-52,276,-284,1,0,52,50,800,0,53298,1
2,28566,30676,31805,79234,22590,-2751,655,-86,3375,-506,-1323,-53,273,-291,1,0,52,50,840,0,53298,1
2,28720,30747,31900,79235,22611,-2884,1255,-1080,-3725,-4423,-8288,-68,300,-278,1,0,52,50,880,0,53298,1
2,28853,30740,31882,79236,22631,-2903,1755,-1789,-5565,-6323,-13447,-55,305,-275,1,0,52,50,920,0,53298,1
2,29002,30738,31899,79237,22652,-3104,2306,-2043,-1660,-6555,-14987,-55,339,-279,1,0,52,50,960,0,53298,1
1,29099,30737,31938,79238,0,-3634,2269,-1828,2967,-6531,-14194,-48,370,-280,1,0,52,51,0,1,53298,1
2,29206,30737,31939,79239,21700,-3668,2828,-1990,4069,-6872,-13541,-34,390,-272,1,0,52,51,40,1,53298,1
2,29112,30751,31962,79240,21721,-3959,2203,-1625,3070,-6807,-12693,-20,412,-262,1,0,52,51,80,1,53298,1
2,29116,30738,31955,79241,21742,-4443,1896,-1566,1057,-6728,-12182,-6,432,-256,1,0,52,51,120,1,53298,1
2,29089,30737,31950,79242,21764,-4336,1963,-1637,46,-6965,-12494,8,450,-234,1,0,52,51,160,1,53298,1
2,29061,30770,31937,79243,21785,-4468,1203,-1212,852,-6338,-11788,33,465,-213,1,0,52,51,200,1,53298,1
2,29026,30766,31946,79244,21806,-4623,1187,-1167,824,-6542,-11391,56,482,-204,1,0,52,51,240,1,53298,1
2,29048,30768,31946,79245,21827,-4484,1119,-1163,534,-6567,-11347,82,494,-196,1,0,52,51,280,1,53298,1
2,28981,30767,31937,79246,21848,-4317,785,-924,361,-6006,-10788,106,502,-180,1,0,52,51,320,1,53298,1
2,29038,30775,31952,79247,21870,-4407,655,-987,-552,-5826,-10074,121,507,-163,1,0,52,51,360,1,53298,1
2,29013,30764,31956,79248,21891,-4331,658,-1077,-477,-5148,-9307,143,507,-155,1,0,52,51,400,1,53298,1
2,28998,30756,31955,79249,21913,-4280,678,-1038,702,-4203,-7882,155,515,-141,1,0,52,51,440,1,53298,1
2,29064,30738,31981,79250,21934,-4346,1005,-1262,1119,-3231,-5962,170,514,-146,1,0,52,51,480,1,53298,1
2,29068,30727,31973,79251,21956,-4238,1263,-1395,1443,-1513,-3335,175,507,-143,1,0,52,51,520,1,53298,1
2,29078,30708,31980,79252,21978,-4207,997,-1219,1497,39,-419,174,512,-144,1,0,52,51,560,1,53298,1
2,29115,30670,31954,79253,22000,-4115,883,-1193,17,1729,2023,168,522,-142,1,0,52,51,600,1,53298,1
2,29175,30662,31962,79254,22021,-4072,1146,-1436,423,3032,4682,152,508,-146,1,0,52,51,640,1,53298,1
2,29125,30611,31960,79255,22043,-3703,2068,-1795,1911,4784,7837,133,515,-173,1,0,52,51,680,1,53298,1
2,29034,30561,31954,79256,22064,-3386,3472,-2187,1896,7426,12407,88,508,-184,1,0,52,51,720,1,53298,1
2,28910,30481,31922,79257,22085,-3133,4670,-2682,-1287,11009,18853,42,494,-198,1,0,52,51,760,1,53298,1
2,28904,30528,31933,79258,22106,-5353,4199,-2511,-3720,14441,27285,2,442,-238,1,0,52,51,800,1,53298,1
2,28966,30532,31921,79259,22127,-8649,2639,-2037,-4938,15018,32178,-45,387,-255,1,0,52,51,840,1,53298,1
2,28935,30518,31915,79260,22147,-8587,-340,-1687,-8948,12646,26809,-61,349,-259,1,0,52,51,880,1,53298,1
2,28868,30538,31945,79261,22166,-4458,-746,-1341,-7101,8296,15780,-69,321,-259,1,0,52,51,920,1,53298,1
2,28609,30754,31957,79262,22185,-3618,-6,-766,-1727,5898,8293,-56,306,-266,1,0,52,51,960,1,53298,1
1,28456,30818,31936,79263,0,-2397,55,-542,2830,4106,6202,-57,299,-275,1,0,52,52,0,1,53298,1
2,28429,30827,31954,79264,21247,-2128,68,-592,4319,3482,5731,-51,293,-279,1,0,52,52,40,1,53298,1
2,28468,30863,31974,79265,21266,-2424,201,-307,4140,2492,3508,-67,291,-273,1,0,52,52,80,1,53298,1
2,28578,30855,31975,79266,21285,-2805,661,-432,2050,-231,-870,-69,295,-273,1,0,52,52,120,1,53298,1
2,28692,30851,31923,79267,21305,-2821,1278,-1246,-1772,-3581,-6798,-64,312,-280,1,0,52,52,160,1,53298,1
2,28836,30802,31846,79268,21325,-2675,2036,-1857,-2847,-5020,-10925,-62,336,-270,1,0,52,52,200,1,53298,1
2,29029,30805,31856,79269,21345,-2793,2504,-2090,-417,-4764,-11363,-62,358,-278,1,0,52,52,240,1,53298,1
2,29116,30804,31868,79270,21365,-3474,2090,-1855,2380,-4438,-10152,-47,371,-271,1,0,52,52,280,1,53298,1
2,29148,30805,31879,79271,21385,-3584,2333,-2011,3653,-4987,-9987,-47,385,-269,1,0,52,52,320,1,53298,1
2,29136,30819,31886,79272,21405,-3909,2053,-1848,3733,-4919,-9863,-43,411,-259,1,0,52,52,360,1,53298,1
2,29146,30812,31899,79273,21425,-4086,1920,-1798,2567,-4615,-9894,-29,425,-253,1,0,52,52,400,1,53298,1
2,29145,30808,31907,79274,21445,-4113,1741,-1689,1970,-4698,-10264,-20,444,-254,1,0,52,52,440,1,53298,1
2,29131,30806,31920,79275,21466,-4222,1502,-1423,2885,-4677,-9734,1,463,-249,1,0,52,52,480,1,53298,1
2,29113,30820,31942,79276,21486,-4227,1509,-1341,2730,-5181,-9482,20,470,-226,1,0,52,52,520,1,53298,1
2,29105,30815,31906,79277,21506,-4166,1364,-1285,844,-5243,-9354,35,493,-219,1,0,52,52,560,1,53298,1
2,29088,30808,31924,79278,21527,-4215,966,-1148,-1030,-5121,-9078,52,500,-206,1,0,52,52,600,1,53298,1
2,29096,30800,31930,79279,21549,-4415,748,-1149,-2456,-5089,-9080,72,510,-188,1,0,52,52,640,1,53298,1
2,29124,30834,31943,79280,21572,-4340,579,-1144,-2082,-5014,-8991,99,505,-183,1,0,52,52,680,1,53298,1
2,29077,30820,31934,79281,21593,-4452,359,-921,-542,-4865,-8391,107,521,-167,1,0,52,52,720,1,53298,1
2,29122,30815,31959,79282,21615,-4732,266,-962,-310,-4787,-7992,137,521,-161,1,0,52,52,760,1,53298,1
2,29150,30824,32022,79283,21636,-4637,197,-988,-383,-4352,-7965,161,525,-163,1,0,52,52,800,1,53298,1
2,29244,30804,32041,79284,21658,-4535,120,-846,-176,-3719,-7572,169,525,-157,1,0,52,52,840,1,53298,1
2,29218,30759,32036,79285,21681,-4476,144,-871,-259,-3237,-6744,192,526,-142,1,0,52,52,880,1,53298,1
2,29223,30715,32040,79286,21703,-4309,203,-861,373,-2737,-5493,195,533,-145,1,0,52,52,920,1,53298,1
2,29230,30652,32031,79287,21726,-4150,335,-976,1034,-2042,-3801,209,523,-143,1,0,52,52,960,1,53298,1
1,29182,30605,32027,79288,0,-4020,575,-1066,1989,-992,-1692,205,523,-147,1,0,52,53,0,1,53298,1
2,29159,30594,32016,79289,20796,-3905,908,-1280,2887,381,1196,206,526,-144,1,0,52,53,40,1,53298,1
2,29125,30543,32016,79290,20819,-3792,1518,-1650,4022,2197,4813,179,527,-139,1,0,52,53,80,1,53298,1
2,29007,30537,32018,79291,20842,-3780,2442,-1982,4598,4731,9223,150,524,-156,1,0,52,53,120,1,53298,1
2,28998,30530,32004,79292,20865,-4084,2858,-2213,2662,8167,14143,109,521,-173,1,0,52,53,160,1,53298,1
2,29000,30515,31981,79293,20888,-4755,3100,-2455,-410,11537,18965,58,506,-194,1,0,52,53,200,1,53298,1
2,28976,30509,31963,79294,20911,-5324,3382,-2663,-3231,14079,23353,18,472,-238,1,0,52,53,240,1,53298,1
2,28992,30497,31943,79295,20933,-6342,3176,-2671,-5254,15770,27215,-37,437,-257,1,0,52,53,280,1,53298,1
2,28940,30483,31913,79296,20956,-7093,2454,-2358,-5548,15725,28911,-57,365,-277,1,0,52,53,320,1,53298,1
2,28944,30457,31829,79297,20977,-6911,876,-1636,-5985,14240,26325,-63,319,-277,1,0,52,53,360,1,53298,1
2,28988,30435,31790,79298,20998,-4764,-40,-1208,-6895,11065,19468,-54,296,-272,1,0,52,53,400,1,53298,1
2,29087,30429,31779,79299,21020,-3709,-350,-682,-4889,7989,13223,-58,280,-266,1,0,52,53,440,1,53298,1
2,29046,30425,31772,79300,21041,-2506,-474,-515,-301,4921,9176,-52,272,-276,1,0,52,53,480,1,53298,1
2,29043,30424,31806,79301,21063,-2031,-89,-362,3781,2830,6286,-47,271,-285,1,0,52,53,520,1,53298,1
2,29049,30427,31815,79302,21084,-1962,349,-357,3883,734,2646,-49,265,-285,1,0,52,53,560,1,53298,1
2,29121,30485,31819,79303,21106,-2106,839,-875,755,-1791,-1960,-50,272,-292,1,0,52,53,600,1,53298,1
2,29152,30464,31812,79304,21127,-1986,1604,-1577,-2144,-3904,-6508,-55,277,-277,1,0,52,53,640,1,53298,1
2,29244,30461,31800,79305,21147,-2067,2096,-2031,-1950,-4685,-8979,-60,294,-278,1,0,52,53,680,1,53298,1
2,29181,30438,31803,79306,21168,-2448,2294,-2171,1152,-4805,-9768,-56,308,-290,1,0,52,53,720,1,53298,1
2,29222,30439,31809,79307,21189,-3081,2064,-1947,4171,-4947,-10089,-56,332,-294,1,0,52,53,760,1,53298,1
2,29209,30445,31816,79308,21209,-3518,2127,-1888,5039,-5918,-11171,-61,351,-287,1,0,52,53,800,1,53298,1
2,29238,30456,31815,79309,21230,-3389,2237,-1894,3628,-6421,-12282,-53,373,-293,1,0,52,53,840,1,53298,1
2,29173,30454,31827,79310,21252,-3594,2275,-1834,2397,-6014,-11763,-32,402,-276,1,0,52,53,880,1,53298,1
2,29170,30475,31830,79311,21273,-3665,2499,-1960,1273,-5775,-11102,-29,411,-277,1,0,52,53,920,1,53298,1
2,29222,30499,31818,79312,21294,-4261,1636,-1638,1546,-5340,-9585,-14,430,-272,1,0,52,53,960,1,53298,1
1,29208,30490,31850,79313,0,-4628,1457,-1326,2972,-6679,-9435,-2,460,-260,1,0,52,54,0,1,53298,1
2,29197,30484,31857,79314,20343,-4497,1481,-1288,1461,-8120,-10317,13,471,-243,1,0,52,54,40,1,53298,1
2,29197,30495,31857,79315,20366,-4399,1066,-1198,-1197,-8381,-10605,40,482,-228,1,0,52,54,80,1,53298,1
2,29293,30505,31856,79316,20387,-4424,914,-1014,-2782,-8475,-10765,59,491,-203,1,0,52,54,120,1,53298,1
2,29266,30500,31879,79317,20409,-4385,911,-1152,-3586,-8247,-10872,84,494,-178,1,0,52,54,160,1,53298,1
2,29291,30508,31896,79318,20431,-4371,965,-1013,-1659,-7351,-10138,96,498,-156,1,0,52,54,200,1,53298,1
2,29334,30499,31923,79319,20453,-4694,965,-691,-252,-6777,-8904,128,498,-158,1,0,52,54,240,1,53298,1
2,29307,30526,31962,79320,20477,-4929,858,-681,-1419,-6637,-7869,154,494,-144,1,0,52,54,280,1,53298,1
2,29282,30546,32013,79321,20500,-4827,580,-733,-2534,-6363,-6871,171,495,-131,1,0,52,54,320,1,53298,1
2,29339,30694,32044,79322,20524,-4635,505,-759,-2112,-5780,-5638,181,487,-135,1,0,52,54,360,1,53298,1
2,29298,30763,32048,79323,20549,-4532,517,-809,-1591,-4874,-4045,185,495,-117,1,0,52,54,400,1,53298,1
2,29288,30639,32044,79324,20573,-4256,471,-952,-1578,-3620,-2279,202,486,-122,1,0,52,54,440,1,53298,1
2,29285,30606,32038,79325,20597,-3930,392,-1005,-1272,-1886,-497,208,480,-124,1,0,52,54,480,1,53298,1
2,29299,30202,31942,79326,20622,-3909,270,-955,-979,290,956,189,487,-123,1,0,52,54,520,1,53298,1
2,29072,30237,31901,79327,20646,-3949,450,-1175,-632,2501,2158,190,480,-126,1,0,52,54,560,1,53298,1
2,28977,30243,31897,79328,20670,-2734,3401,-2650,625,5326,4254,178,500,-140,1,0,52,54,600,1,53298,1
2,28996,30249,31875,79329,20693,1385,9874,-4813,2426,11945,13690,126,502,-172,1,0,52,54,640,1,53298,1
2,29107,30600,31969,79330,20717,-3016,9693,-4014,4735,23639,32767,28,476,-212,1,0,52,54,680,1,53298,1
2,29210,30442,31971,79331,20742,-15141,5630,-2467,3686,29751,32767,-45,389,-269,1,0,52,54,720,1,53298,1
2,29379,30749,32036,79332,20767,-17740,80,-930,-977,24670,32767,-76,310,-280,1,0,52,54,760,1,53298,1
2,29348,30409,31953,79333,20791,-5013,-1707,-990,-9138,10893,20656,-66,284,-264,1,0,52,54,800,1,53298,1
2,29194,30322,31888,79334,20816,-3214,-211,-944,-11482,5877,5072,-61,283,-247,1,0,52,54,840,1,53298,1
2,29145,30258,31842,79335,20840,-1358,-496,-1697,-3130,4962,6582,-49,279,-257,1,0,52,54,880,1,53298,1
2,29029,30229,31833,79336,20863,-2247,-461,-607,12151,6309,11991,-45,265,-279,1,0,52,54,920,1,53298,1
2,29158,30265,32086,79337,20885,-2574,-181,708,14396,5773,9873,-49,259,-281,1,0,52,54,960,1,53298,1
1,29140,30226,32088,79338,0,-2405,-254,785,1870,2411,1882,-47,259,-295,1,0,52,55,0,1,53298,1
2,29167,30916,32015,79339,19892,-2581,354,-525,-9213,-3044,-8228,-52,266,-280,1,0,52,55,40,1,53298,1
2,28993,32723,31915,79340,19913,-2440,1619,-1722,-9586,-7135,-16032,-63,291,-269,1,0,52,55,80,1,53298,1
2,29012,33848,31903,79341,19935,-2241,2804,-2091,-3184,-7621,-17440,-58,322,-272,1,0,52,55,120,1,53298,1
2,29051,34283,31983,79342,19957,-3320,2568,-1485,3580,-7070,-14846,-59,335,-279,1,0,52,55,160,1,53298,1
2,29084,34308,32003,79343,19978,-4202,2987,-1255,4419,-8640,-14595,-57,371,-279,1,0,52,55,200,1,53298,1
2,29116,34363,32017,79344,20000,-4362,2673,-1350,-1269,-9455,-16049,-44,400,-250,1,0,52,55,240,1,53298,1
2,29140,34405,32058,79345,20021,-4891,1899,-1204,-4623,-9215,-16638,-30,430,-230,1,0,52,55,280,1,53298,1
2,29166,34480,32067,79346,20042,-4924,2003,-1128,-2692,-10344,-17417,6,454,-218,1,0,52,55,320,1,53298,1
2,29127,34527,32086,79347,20064,-5064,1883,-583,20,-10618,-16353,37,471,-183,1,0,52,55,360,1,53298,1
2,28964,34518,32076,79348,20086,-5471,1521,-231,-539,-11550,-15493,72,484,-172,1,0,52,55,400,1,53298,1
2,28935,34514,32074,79349,20107,-5464,1233,-395,-3223,-12211,-15667,108,484,-144,1,0,52,55,440,1,53298,1
2,28896,34518,32074,79350,20129,-5115,1095,-377,-3465,-11849,-15620,158,488,-116,1,0,52,55,480,1,53298,1
2,28896,34432,32048,79351,20150,-4886,946,-311,-3228,-11289,-14850,192,484,-106,1,0,52,55,520,1,53298,1
2,28869,34466,32038,79352,20172,-4713,783,-396,-3111,-10190,-13685,218,476,-100,1,0,52,55,560,1,53298,1
2,28898,34452,32028,79353,20194,-4492,629,-535,-2340,-8481,-12001,241,459,-89,1,0,52,55,600,1,53298,1
2,28876,34443,32032,79354,20217,-4127,698,-583,-871,-6372,-9606,253,445,-75,1,0,52,55,640,1,53298,1
2,28849,34507,32044,79355,20239,-3748,979,-604,276,-3924,-6475,257,445,-83,1,0,52,55,680,1,53298,1
2,28853,34514,32013,79356,20261,-3364,1247,-747,974,-1135,-2436,262,448,-82,1,0,52,55,720,1,53298,1
2,28910,34496,31990,79357,20284,-3257,1773,-933,2083,1933,2438,249,457,-89,1,0,52,55,760,1,53298,1
2,29039,34429,31991,79358,20306,-3269,3294,-1365,3227,5673,8501,216,466,-98,1,0,52,55,800,1,53298,1
2,29121,34460,32026,79359,20328,-3009,6435,-3011,2523,11036,16819,187,477,-111,1,0,52,55,840,1,53298,1
2,29098,33231,31936,79360,20350,-3631,8799,-4395,1424,19661,29525,111,485,-145,1,0,52,55,880,1,53298,1
2,29306,30997,32000,79361,20373,-9575,7034,-3431,1944,28688,32767,16,458,-190,1,0,52,55,920,1,53298,1
2,27689,30642,31896,79362,20396,-15775,4165,-2176,1028,30834,32767,-70,366,-238,1,0,52,55,960,1,53298,1
1,28351,30474,32399,79363,0,-11371,-766,-121,-424,22018,32767,-72,298,-240,1,0,52,56,0,0,53298,1
2,28339,30530,32741,79364,19439,-4857,-651,-788,2914,13602,24262,-45,281,-261,1,0,52,56,40,0,53298,1
2,28278,30620,32555,79365,19460,-3994,-18,661,2167,11617,14098,-40,276,-274,1,0,52,56,80,0,53298,1
2,28075,30596,32558,79366,19480,-2854,-298,593,1737,8209,12177,-32,266,-264,1,0,52,56,120,0,53298,1
2,28317,30982,33050,79367,19501,-1993,-1126,315,4039,5407,10933,-35,267,-271,1,0,52,56,160,0,53298,1
2,28115,30967,32834,79368,19521,-1876,-682,931,5244,3223,6334,-37,249,-279,1,0,52,56,200,0,53298,1
2,28157,30576,32626,79369,19541,-1663,-352,287,259,-1093,-419,-29,255,-275,1,0,52,56,240,0,53298,1
2,28053,30509,32476,79370,19560,-1718,842,-707,-4905,-5194,-8120,-45,259,-281,1,0,52,56,280,0,53298,1
2,28116,30190,32237,79371,19580,-1578,2200,-1527,-7010,-7833,-13723,-55,277,-259,1,0,52,56,320,0,53298,1
2,28004,30418,31995,79372,19600,-1648,3305,-2150,-6095,-7843,-15164,-54,288,-256,1,0,52,56,360,0,53298,1
2,28003,30572,31980,79373,19620,-2338,3416,-1865,-1701,-6678,-13377,-67,313,-255,1,0,52,56,400,0,53298,1
2,28070,30600,31999,79374,19640,-3423,2934,-1744,139,-6361,-12955,-64,336,-254,1,0,52,56,440,0,53298,1
2,28039,30600,31968,79375,19661,-3333,3066,-1815,1571,-6994,-14089,-61,345,-253,1,0,52,56,480,0,53298,1
2,28025,30574,31991,79376,19682,-3742,3062,-1503,3309,-6493,-13486,-53,381,-241,1,0,52,56,520,0,53298,1
2,28050,30566,31984,79377,19702,-3814,3028,-1304,2296,-6401,-12413,-54,400,-248,1,0,52,56,560,0,53298,1
2,28043,30542,31999,79378,19723,-4177,2594,-1089,339,-6310,-11339,-38,414,-232,1,0,52,56,600,0,53298,1
2,28063,30529,32001,79379,19742,-4535,1722,-772,-1202,-6605,-10875,-17,431,-219,1,0,52,56,640,0,53298,1
2,28059,30497,31990,79380,19761,-4621,1267,-735,-1203,-7681,-11495,-3,441,-191,1,0,52,56,680,0,53298,1
2,28044,30472,32011,79381,19781,-4770,1049,-455,828,-9209,-12390,32,462,-190,1,0,52,56,720,0,53298,1
2,28060,30419,32009,79382,19802,-4750,944,-409,592,-10439,-13240,67,463,-165,1,0,52,56,760,0,53298,1
2,28049,30390,32032,79383,19823,-4803,786,-467,191,-11096,-13903,94,472,-148,1,0,52,56,800,0,53298,1
2,28109,30391,32080,79384,19844,-4946,669,-371,-423,-10936,-14319,125,481,-121,1,0,52,56,840,0,53298,1
2,28216,30480,32212,79385,19866,-5168,634,-419,-1125,-10139,-14588,155,477,-101,1,0,52,56,880,0,53298,1
2,28236,30424,32262,79386,19887,-5302,585,-262,-951,-9163,-14754,190,466,-102,1,0,52,56,920,0,53298,1
2,28244,30477,32312,79387,19909,-5260,487,-138,-1300,-8008,-14556,214,462,-92,1,0,52,56,960,0,53298,1
1,28305,30538,32450,79388,0,-4994,426,19,-1330,-6921,-13629,247,451,-81,1,0,52,57,0,1,53298,1
2,28397,30764,32547,79389,18990,-4698,232,-7,-1262,-5874,-11803,266,448,-82,1,0,52,57,40,1,53298,1
2,28428,30809,32553,79390,19014,-4175,343,101,-401,-4814,-9521,272,448,-76,1,0,52,57,80,1,53298,1
2,28352,32861,32350,79391,19037,-3775,212,-108,-804,-3258,-6588,284,428,-76,1,0,52,57,120,1,53298,1
2,28392,35420,32588,79392,19062,-3525,287,-359,-521,-1190,-3293,281,431,-71,1,0,52,57,160,1,53298,1
2,28524,31063,32515,79393,19086,-3462,769,-622,1128,1164,605,285,437,-85,1,0,52,57,200,1,53298,1
2,28597,31464,32496,79394,19110,-3519,1524,-893,1886,4182,5209,269,449,-79,1,0,52,57,240,1,53298,1
2,28462,32422,32494,79395,19134,-3612,2906,-1649,1555,8090,10845,241,471,-89,1,0,52,57,280,1,53298,1
2,28495,30764,32450,79396,19158,-3863,5316,-2526,3542,12801,19391,193,475,-107,1,0,52,57,320,1,53298,1
2,28540,30480,32664,79397,19182,-5362,6917,-2802,4209,18900,30228,119,483,-135,1,0,52,57,360,1,53298,1
2,28635,30515,32681,79398,19205,-8079,6953,-2768,561,24692,32767,34,462,-184,1,0,52,57,400,1,53298,1
2,28934,30755,32532,79399,19229,-12786,4838,-2531,-1941,26509,32767,-50,382,-226,1,0,52,57,440,1,53298,1
2,28839,30322,32252,79400,19252,-12979,1695,-1411,-1984,23459,32767,-74,308,-248,1,0,52,57,480,1,53298,1
2,28840,30278,32185,79401,19274,-6776,-309,-1059,-4145,17856,31966,-65,271,-231,1,0,52,57,520,1,53298,1
2,28784,30426,32203,79402,19296,-4999,-779,125,-4651,13926,20386,-38,258,-242,1,0,52,57,560,1,53298,1
2,28581,30573,32217,79403,19318,-3217,-1381,60,2060,8693,15865,-33,265,-245,1,0,52,57,600,1,53298,1
2,28552,30626,32261,79404,19340,-2308,-1001,529,9856,5898,12524,-34,246,-258,1,0,52,57,640,1,53298,1
2,28544,30670,32234,79405,19362,-1716,-536,1081,7921,3697,7137,-34,252,-270,1,0,52,57,680,1,53298,1
2,28637,30292,32237,79406,19383,-1490,-586,524,-563,646,842,-37,243,-267,1,0,52,57,720,1,53298,1
2,28714,30294,32135,79407,19404,-1585,182,-228,-5871,-2837,-6096,-38,248,-250,1,0,52,57,760,1,53298,1
2,28911,30257,32161,79408,19425,-1440,1620,-1117,-6004,-6251,-11990,-48,258,-248,1,0,52,57,800,1,53298,1
2,29575,30344,32129,79409,19446,-1676,2941,-1836,-3730,-7697,-15058,-52,278,-258,1,0,52,57,840,1,53298,1
2,30058,30265,32090,79410,19466,-1968,3755,-1986,-536,-7412,-15092,-63,281,-253,1,0,52,57,880,1,53298,1
2,30280,30279,32082,79411,19486,-2662,3568,-1826,1248,-6595,-13891,-69,301,-247,1,0,52,57,920,1,53298,1
2,30307,30325,32117,79412,19506,-3094,3226,-1683,1637,-6601,-13575,-69,329,-247,1,0,52,57,960,1,53298,1
1,30348,30342,32135,79413,0,-3453,2783,-1710,1583,-6389,-13639,-58,340,-246,1,0,52,58,0,1,53298,1
2,30345,30350,32164,79414,18537,-3933,2815,-1307,2996,-6435,-13413,-57,369,-249,1,0,52,58,40,1,53298,1
2,30386,30357,32175,79415,18557,-4270,2254,-997,1810,-6861,-13283,-48,406,-230,1,0,52,58,80,1,53298,1
2,30421,30385,32205,79416,18577,-4661,1712,-768,-307,-7291,-13841,-25,411,-229,1,0,52,58,120,1,53298,1
2,30499,30347,32152,79417,18598,-5076,1116,-657,-668,-8333,-15072,15,437,-217,1,0,52,58,160,1,53298,1
2,30521,30335,32195,79418,18618,-5491,744,-351,740,-10222,-16562,47,461,-191,1,0,52,58,200,1,53298,1
2,29830,30357,32237,79419,18640,-5639,579,-441,956,-12012,-18255,74,474,-162,1,0,52,58,240,1,53298,1
2,29786,30362,32275,79420,18662,-5450,720,-459,1810,-13061,-19456,118,480,-132,1,0,52,58,280,1,53298,1
2,29475,30406,32280,79421,18685,-5337,1125,-330,2132,-13327,-19520,155,479,-113,1,0,52,58,320,1,53298,1
2,29575,30452,32350,79422,18707,-5260,1254,-319,305,-12929,-18799,194,470,-96,1,0,52,58,360,1,53298,1
2,29330,30437,32423,79423,18730,-5172,1260,-337,-1235,-11749,-17198,225,463,-87,1,0,52,58,400,1,53298,1
2,29327,30390,32395,79424,18754,-5022,1180,-327,-2182,-9925,-14703,263,461,-83,1,0,52,58,440,1,53298,1
2,29281,30401,32417,79425,18778,-4815,885,-346,-3489,-7621,-11626,272,442,-78,1,0,52,58,480,1,53298,1
2,29286,30406,32450,79426,18801,-4204,366,-524,-3392,-5061,-8079,291,437,-79,1,0,52,58,520,1,53298,1
2,29169,30855,32354,79427,18825,-3602,307,-531,73,-2883,-3801,278,434,-72,1,0,52,58,560,1,53298,1
2,29186,30774,32352,79428,18850,-3423,211,-191,1348,-308,201,275,419,-73,1,0,52,58,600,1,53298,1
2,29177,31345,32313,79429,18875,-3612,-202,-129,-192,2188,3440,285,433,-81,1,0,52,58,640,1,53298,1
2,29240,30884,32365,79430,18900,-4071,-707,-29,-491,3905,5761,260,436,-78,1,0,52,58,680,1,53298,1
2,29251,30740,32374,79431,18924,-4283,-601,-120,772,5023,7126,249,451,-85,1,0,52,58,720,1,53298,1
2,29253,30733,32398,79432,18948,-4107,137,-351,4059,6164,8756,229,465,-81,1,0,52,58,760,1,53298,1
2,29262,30774,32410,79433,18972,-4200,1542,-605,6979,7896,11362,200,476,-104,1,0,52,58,800,1,53298,1
2,29105,30716,32517,79434,18996,-3898,4198,-1593,5811,10842,15685,155,491,-109,1,0,52,58,840,1,53298,1
2,28994,30628,32645,79435,19020,-4129,6391,-2803,2401,15585,23436,99,483,-129,1,0,52,58,880,1,53298,1
2,29010,31135,32608,79436,19043,-6044,7664,-3292,-1163,21567,32767,28,452,-184,1,0,52,58,920,1,53298,1
2,29126,30512,32650,79437,19065,-11472,5581,-3017,-4202,25447,32767,-44,380,-228,1,0,52,58,960,1,53298,1
1,28972,30301,32250,79438,0,-13215,1814,-2153,-6250,24313,32767,-80,306,-240,1,0,52,59,0,0,53298,1
2,29042,30272,32117,79439,18087,-6532,-233,-851,-7335,17700,29255,-70,294,-226,1,0,52,59,40,0,53298,1
2,29078,30225,32029,79440,18108,-4740,-372,-507,-5930,12824,19262,-43,269,-233,1,0,52,59,80,0,53298,1
2,28999,30206,31977,79441,18128,-3072,-1035,-317,1878,9229,16168,-39,257,-231,1,0,52,59,120,0,53298,1
2,29091,30298,32136,79442,18149,-2341,-1188,266,9689,7350,13743,-35,247,-259,1,0,52,59,160,0,53298,1
2,29113,30344,32143,79443,18170,-1743,-748,931,9907,5367,8354,-36,254,-270,1,0,52,59,200,0,53298,1
2,29283,30330,32218,79444,18191,-1505,-609,509,3265,1984,1501,-38,256,-272,1,0,52,59,240,0,53298,1
2,29564,31095,31994,79445,18212,-1446,215,-280,-1499,-1886,-5616,-44,262,-274,1,0,52,59,280,0,53298,1
2,30064,31452,31949,79446,18231,-1309,1631,-1086,-2570,-4877,-11030,-39,261,-271,1,0,52,59,320,0,53298,1
2,30758,30716,31997,79447,18251,-1732,2681,-1483,-2488,-5859,-13437,-46,276,-274,1,0,52,59,360,0,53298,1
2,30934,30347,32047,79448,18270,-2395,3318,-1704,-1746,-6328,-14368,-53,295,-271,1,0,52,59,400,0,53298,1
2,30977,30398,32053,79449,18289,-3109,2974,-1481,-782,-6603,-14720,-54,312,-280,1,0,52,59,440,0,53298,1
2,30986,30341,32090,79450,18309,-3998,1836,-1393,678,-7579,-15920,-68,344,-266,1,0,52,59,480,0,53298,1
2,31008,30316,32134,79451,18330,-4064,2136,-1609,4487,-8917,-17525,-68,374,-260,1,0,52,59,520,0,53298,1
2,30993,30405,32126,79452,18350,-4750,2317,-923,7204,-9319,-17664,-54,408,-252,1,0,52,59,560,0,53298,1
2,30967,30333,32150,79453,18371,-5534,1753,-949,1901,-10019,-18400,-37,447,-233,1,0,52,59,600,0,53298,1
2,30233,30333,32162,79454,18392,-5887,1271,-1156,289,-11539,-20276,1,473,-213,1,0,52,59,640,0,53298,1
2,29839,30339,32159,79455,18413,-5819,1286,-754,3397,-13093,-20834,44,506,-184,1,0,52,59,680,0,53298,1
2,29645,30886,32110,79456,18434,-5703,1235,-745,3421,-14516,-20825,110,514,-146,1,0,52,59,720,0,53298,1
2,29416,30451,32172,79457,18457,-5538,1124,-830,2412,-15076,-20352,158,502,-126,1,0,52,59,760,0,53298,1
2,29328,30401,32174,79458,18480,-5347,1338,-748,1732,-14515,-19233,196,500,-96,1,0,52,59,800,0,53298,1
2,29256,30431,32200,79459,18503,-5145,1392,-923,80,-13108,-17291,235,481,-87,1,0,52,59,840,0,53298,1
2,29218,30566,32165,79460,18526,-4873,1413,-911,-740,-10734,-14011,257,473,-91,1,0,52,59,880,0,53298,1
2,29194,30430,32181,79461,18549,-4550,977,-885,-1529,-8030,-10416,276,456,-96,1,0,52,59,920,0,53298,1
2,29206,30408,32171,79462,18571,-3936,904,-999,-1537,-4945,-5846,286,450,-96,1,0,52,59,960,0,53298,1
1,29204,30769,32208,79463,0,-3601,598,-877,217,-2191,-947,277,449,-83,1,0,53,0,0,1,53298,1
2,29332,30674,32359,79464,17637,-3557,602,-711,1710,627,3672,270,458,-92,1,0,53,0,40,1,53298,1
2,29535,30494,32712,79465,17661,-3627,797,-947,2771,3229,8158,247,459,-83,1,0,53,0,80,1,53298,1
2,29384,32747,32021,79466,17685,-3577,2442,-1767,4804,6492,13289,210,476,-92,1,0,53,0,120,1,53298,1
2,29961,30325,31970,79467,17711,-3688,4635,-2766,4910,11843,19580,154,480,-104,1,0,53,0,160,1,53298,1
2,31523,30910,32132,79468,17737,-5030,5556,-3299,1441,19120,27083,97,487,-139,1,0,53,0,200,1,53298,1
2,31622,32359,32081,79469,17764,-7577,5608,-3055,-1344,24939,32767,6,450,-208,1,0,53,0,240,1,53298,1
2,31613,30572,32229,79470,17790,-10558,4373,-2445,-3224,26645,32767,-53,385,-241,1,0,53,0,280,1,53298,1
2,31670,30664,32245,79471,17816,-11206,1928,-1722,-2912,23662,32767,-68,318,-254,1,0,53,0,320,1,53298,1
2,31703,30524,32342,79472,17840,-7205,-52,-601,-4120,18253,28231,-66,290,-246,1,0,53,0,360,1,53298,1
2,31658,30516,32234,79473,17862,-4695,-402,-249,-6205,13984,17722,-49,267,-243,1,0,53,0,400,1,53298,1
2,31572,30423,32111,79474,17883,-3160,-947,-70,-2114,9755,13292,-46,264,-248,1,0,53,0,440,1,53298,1
2,31484,30220,31982,79475,17904,-2409,-911,280,4324,7089,11295,-37,261,-257,1,0,53,0,480,1,53298,1
2,31508,33603,32096,79476,17924,-1952,-519,701,5670,4655,7416,-40,262,-266,1,0,53,0,520,1,53298,1
2,31463,31976,32155,79477,17944,-1641,-493,438,1320,1275,1184,-43,249,-269,1,0,53,0,560,1,53298,1
2,30324,30403,32159,79478,17964,-1856,265,-274,-2504,-2333,-5643,-48,268,-264,1,0,53,0,600,1,53298,1
2,30187,30250,32073,79479,17983,-1714,1458,-1237,-3006,-5634,-11670,-63,273,-265,1,0,53,0,640,1,53298,1
2,30055,31169,31964,79480,18002,-2083,2351,-1780,-431,-6739,-14286,-62,288,-254,1,0,53,0,680,1,53298,1
2,30119,31151,31966,79481,18021,-2802,2874,-1578,3087,-6899,-14604,-60,304,-274,1,0,53,0,720,1,53298,1
2,30120,31095,31976,79482,18041,-4175,2016,-921,3378,-8120,-15286,-64,326,-270,1,0,53,0,760,1,53298,1
2,30105,31170,32020,79483,18061,-5292,1341,-783,305,-10719,-19039,-57,375,-261,1,0,53,0,800,1,53298,1
2,30225,30403,32109,79484,18081,-5754,1471,-1406,-1358,-11996,-23161,-32,426,-242,1,0,53,0,840,1,53298,1
2,30490,30330,32254,79485,18103,-6393,926,-1100,1181,-12071,-25191,0,464,-212,1,0,53,0,880,1,53298,1
2,30227,30836,32220,79486,18125,-7068,1004,-732,4609,-13813,-26269,50,496,-180,1,0,53,0,920,1,53298,1
2,30219,30261,32195,79487,18147,-7007,1447,-683,5048,-16193,-27117,107,507,-147,1,0,53,0,960,1,53298,1
1,30201,30288,32158,79488,0,-6924,2056,-1107,1877,-16784,-26070,172,514,-118,1,0,53,1,0,1,53298,1
2,30170,30312,32147,79489,17186,-5993,1981,-753,62,-16044,-24638,231,503,-101,1,0,53,1,40,1,53298,1
2,30185,30265,32120,79490,17210,-5475,2081,-750,-2181,-14534,-21370,281,479,-91,1,0,53,1,80,1,53298,1
2,30225,30272,32112,79491,17234,-5120,1844,-812,-5060,-11734,-17257,309,451,-99,1,0,53,1,120,1,53298,1
2,30224,30442,32129,79492,17258,-4331,710,-1234,-5779,-8269,-12433,329,429,-107,1,0,53,1,160,1,53298,1
2,30270,30643,32196,79493,17283,-3716,705,-957,587,-5661,-6319,330,424,-100,1,0,53,1,200,1,53298,1
2,30217,30590,32179,79494,17308,-3097,681,-749,2303,-2577,-600,326,418,-94,1,0,53,1,240,1,53298,1
2,30297,30700,32184,79495,17332,-3029,337,-936,602,1049,4163,307,435,-95,1,0,53,1,280,1,53298,1
2,30371,30705,32192,79496,17356,-3390,1569,-1331,1317,4550,8943,284,442,-96,1,0,53,1,320,1,53298,1
2,30559,30653,32229,79497,17382,-3649,4122,-2984,431,9491,15693,253,473,-103,1,0,53,1,360,1,53298,1
2,30556,30603,32238,79498,17406,-4555,6628,-4180,4953,16642,27197,165,509,-131,1,0,53,1,400,1,53298,1
2,30651,30506,32220,79499,17431,-6887,7530,-3984,8771,26375,32767,54,498,-184,1,0,53,1,440,1,53298,1
2,30432,30478,32185,79500,17455,-11295,6789,-3044,3391,32767,32767,-41,435,-241,1,0,53,1,480,1,53298,1
2,30226,30247,32032,79501,17478,-15495,4375,-2455,-3906,32767,32767,-69,341,-281,1,0,53,1,520,1,53298,1
2,30562,30271,32043,79502,17501,-12010,171,-994,-6561,25520,32767,-63,279,-273,1,0,53,1,560,1,53298,1
2,30534,30203,32017,79503,17522,-5229,-1503,-626,-8608,17112,25622,-35,269,-259,1,0,53,1,600,1,53298,1
2,30409,30506,32048,79504,17543,-4057,-738,252,-5428,11548,15343,-37,263,-259,1,0,53,1,640,1,53298,1
2,30234,30420,31969,79505,17563,-2357,-1479,-686,3729,7083,14526,-18,254,-282,1,0,53,1,680,1,53298,1
2,30569,30369,32425,79506,17583,-2069,-1146,885,11844,6166,12006,-20,252,-282,1,0,53,1,720,1,53298,1
2,30382,30447,32393,79507,17603,-1346,-744,1142,7200,2984,5665,-16,248,-294,1,0,53,1,760,1,53298,1
2,30455,30346,32273,79508,17622,-1056,121,68,-2162,-839,-1780,-25,251,-281,1,0,53,1,800,1,53298,1
2,30422,33114,32030,79509,17640,-817,1574,-1048,-5704,-4676,-8176,-15,249,-279,1,0,53,1,840,1,53298,1
2,30821,32679,32010,79510,17659,-413,3168,-2033,-3747,-6257,-10384,-28,258,-280,1,0,53,1,880,1,53298,1
2,30784,33405,31988,79511,17677,-1065,3359,-2030,-1640,-5405,-9206,-35,273,-277,1,0,53,1,920,1,53298,1
2,30710,32966,31987,79512,17696,-1600,3687,-1984,-789,-5760,-9758,-38,278,-278,1,0,53,1,960,1,53298,1
1,30802,33497,31983,79513,0,-1718,3259,-2132,-2606,-5431,-10280,-36,284,-276,1,0,53,2,0,0,53298,1
2,30848,32881,31973,79514,16734,-2533,2483,-1681,-1133,-5003,-10080,-55,293,-279,1,0,53,2,40,0,53298,1
2,30843,32930,31978,79515,16753,-2731,2341,-1575,2673,-5974,-10846,-55,309,-269,1,0,53,2,80,0,53298,1
2,30842,32712,31993,79516,16772,-3026,2202,-1311,4766,-6808,-11344,-54,328,-282,1,0,53,2,120,0,53298,1
2,30835,32871,31960,79517,16791,-3477,1849,-1398,3129,-7405,-12095,-58,352,-280,1,0,53,2,160,0,53298,1
2,30677,32474,31977,79518,16811,-3678,1666,-1438,2046,-7882,-13565,-50,372,-276,1,0,53,2,200,0,53298,1
2,30616,32812,31966,79519,16830,-4549,965,-1331,2481,-8658,-14974,-40,408,-268,1,0,53,2,240,0,53298,1
2,30628,32630,31996,79520,16849,-5183,807,-1223,4414,-10837,-17299,-15,439,-253,1,0,53,2,280,0,53298,1
2,30734,32610,31990,79521,16869,-5524,808,-1081,5735,-13135,-19489,19,481,-233,1,0,53,2,320,0,53298,1
2,30741,32031,32004,79522,16888,-5666,945,-1095,4663,-14591,-21232,51,501,-201,1,0,53,2,360,0,53298,1
2,30597,32016,31966,79523,16909,-5930,992,-1081,2719,-14844,-22404,115,519,-151,1,0,53,2,400,0,53298,1
2,30374,31861,31947,79524,16929,-6200,1034,-1067,674,-14241,-22915,170,520,-142,1,0,53,2,440,0,53298,1
2,30381,31117,32047,79525,16949,-6286,915,-1176,-1901,-12828,-22624,228,504,-118,1,0,53,2,480,0,53298,1
2,30003,30156,31753,79526,16969,-4601,847,-2725,-3912,-14346,-14008,264,492,-118,1,0,53,2,520,0,53298,1
2,29606,30000,31624,79527,16989,-4959,-747,-1994,-11798,-5390,-11306,271,471,-97,1,0,53,2,560,0,53298,1
2,29539,29994,31602,79528,17009,-4099,880,-1016,7611,-6614,-6508,283,461,-109,1,0,53,2,600,0,53298,1
2,29526,30036,31620,79529,17030,-2927,1056,-1498,1688,-2976,-3161,276,462,-116,1,0,53,2,640,0,53298,1
2,29584,30040,31620,79530,17050,-2925,1893,-1459,-4028,2571,1180,285,463,-127,1,0,53,2,680,0,53298,1
2,29578,30037,31624,79531,17070,-3126,1795,-1124,-4128,5867,6962,258,488,-130,1,0,53,2,720,0,53298,1
2,29604,30040,31620,79532,17091,-3989,1655,-862,-2397,7909,13444,227,501,-125,1,0,53,2,760,0,53298,1
2,29620,30024,31631,79533,17113,-4479,1777,-1147,462,8706,18677,176,504,-144,1,0,53,2,800,0,53298,1
2,29687,30027,31645,79534,17134,-4689,3392,-1613,3693,9868,23430,113,499,-163,1,0,53,2,840,0,53298,1
2,29712,30035,31651,79535,17155,-5173,5293,-2615,2168,13490,28892,51,493,-185,1,0,53,2,880,0,53298,1
2,29714,30018,31652,79536,17176,-7001,5809,-3266,-2218,18641,32767,-14,428,-226,1,0,53,2,920,0,53298,1
2,29693,30001,31632,79537,17197,-10665,4552,-2980,-3817,21248,32767,-63,337,-259,1,0,53,2,960,0,53298,1
1,29866,29969,31576,79538,0,-10306,1635,-1813,-5536,19284,32767,-64,286,-244,1,0,53,3,0,1,53298,1
2,30244,29944,31550,79539,16284,-5064,-523,-1222,-6431,13937,25472,-52,272,-250,1,0,53,3,40,1,53298,1
2,30206,29936,31514,79540,16304,-3737,-108,-203,-2567,9884,16016,-37,265,-245,1,0,53,3,80,1,53298,1
2,30234,29940,31507,79541,16323,-2443,-521,-101,1842,6655,12752,-38,256,-242,1,0,53,3,120,1,53298,1
2,30257,29969,31595,79542,16343,-1938,-707,135,5393,5065,10600,-29,259,-257,1,0,53,3,160,1,53298,1
2,30279,29992,31631,79543,16364,-1658,-650,714,3440,3258,5674,-28,256,-258,1,0,53,3,200,1,53298,1
2,30280,30010,31660,79544,16384,-1576,-470,238,-1186,17,-721,-35,255,-259,1,0,53,3,240,1,53298,1
2,30386,30015,31690,79545,16404,-1606,610,-272,-3192,-3697,-7750,-38,260,-250,1,0,53,3,280,1,53298,1
2,30463,30003,31665,79546,16423,-1800,1867,-864,-3737,-6574,-13263,-50,270,-244,1,0,53,3,320,1,53298,1
2,30341,30018,31645,79547,16442,-2070,2793,-1379,-2814,-7578,-15735,-51,281,-247,1,0,53,3,360,1,53298,1
2,30356,30014,31671,79548,16461,-3193,2873,-874,-420,-7886,-15948,-57,303,-249,1,0,53,3,400,1,53298,1
2,30352,30002,31676,79549,16481,-3374,3248,-1178,-3909,-8992,-17481,-66,328,-226,1,0,53,3,440,1,53298,1
2,30392,30012,31693,79550,16501,-3512,3397,-1549,-6157,-7642,-17740,-47,365,-223,1,0,53,3,480,1,53298,1
2,30428,30040,31725,79551,16520,-4424,3263,-1120,-2983,-6810,-16421,-34,386,-210,1,0,53,3,520,1,53298,1
2,30472,30045,31753,79552,16541,-4692,3059,-851,-1199,-6970,-15777,-26,404,-188,1,0,53,3,560,1,53298,1
2,30239,30043,31760,79553,16562,-4885,2523,-474,344,-7103,-15194,0,428,-184,1,0,53,3,600,1,53298,1
2,30345,30065,31784,79554,16584,-5037,1522,-206,239,-7946,-15144,31,439,-177,1,0,53,3,640,1,53298,1
2,30351,30074,31785,79555,16606,-4896,1105,-192,406,-9413,-15814,71,453,-171,1,0,53,3,680,1,53298,1
2,30386,30083,31799,79556,16628,-4781,935,-142,1109,-10396,-16377,104,464,-148,1,0,53,3,720,1,53298,1
2,30440,30187,31807,79557,16649,-4884,733,-284,767,-10555,-16669,143,477,-117,1,0,53,3,760,1,53298,1
2,30370,30217,31805,79558,16671,-5168,634,-278,200,-9923,-17069,162,458,-104,1,0,53,3,800,1,53298,1
2,30425,30291,31808,79559,16694,-5270,708,-170,-172,-8734,-17201,194,462,-90,1,0,53,3,840,1,53298,1
2,30418,30365,31746,79560,16715,-5153,868,-149,54,-7563,-16342,228,452,-84,1,0,53,3,880,1,53298,1
2,30490,30228,31737,79561,16737,-4766,1060,-213,834,-6354,-14216,238,450,-80,1,0,53,3,920,1,53298,1
2,30415,30315,31714,79562,16759,-4245,1318,-194,1441,-4612,-10954,250,442,-66,1,0,53,3,960,1,53298,1
1,30425,30247,31716,79563,0,-3811,1427,-122,1073,-2447,-6691,258,436,-74,1,0,53,4,0,1,53298,1
2,30420,30167,31721,79564,15834,-3571,1313,-149,161,-104,-1782,256,442,-78,1,0,53,4,40,1,53298,1
2,30407,30076,31724,79565,15857,-3764,1048,-48,180,1956,3185,248,456,-70,1,0,53,4,80,1,53298,1
2,30331,30106,31719,79566,15879,-4177,738,52,286,3530,7484,237,453,-77,1,0,53,4,120,1,53298,1
2,30485,30122,31720,79567,15902,-4557,391,30,14,4883,10476,222,458,-86,1,0,53,4,160,1,53298,1
2,30452,30167,31723,79568,15925,-4935,214,136,497,5883,12252,190,456,-82,1,0,53,4,200,1,53298,1
2,30518,30231,31712,79569,15949,-4988,171,86,878,6553,13055,165,465,-107,1,0,53,4,240,1,53298,1
2,30529,30401,31716,79570,15971,-4980,361,118,2032,6866,13532,148,468,-112,1,0,53,4,280,1,53298,1
2,30514,30620,31698,79571,15994,-4937,339,4,2222,7019,13600,118,464,-128,1,0,53,4,320,1,53298,1
2,30513,30523,31700,79572,16017,-4967,378,1,2081,7122,12861,96,462,-146,1,0,53,4,360,1,53298,1
2,30419,30527,31699,79573,16039,-5040,382,59,1437,6903,11450,71,451,-151,1,0,53,4,400,1,53298,1
2,30435,30760,31676,79574,16062,-4932,315,22,666,6219,9484,51,453,-161,1,0,53,4,440,1,53298,1
2,30440,30584,31697,79575,16085,-4745,432,41,973,5131,7306,36,450,-174,1,0,53,4,480,1,53298,1
2,30387,30448,31688,79576,16107,-4451,619,-12,1139,4003,5206,24,444,-178,1,0,53,4,520,1,53298,1
2,30391,30400,31690,79577,16130,-4197,796,-61,802,2950,3393,20,440,-188,1,0,53,4,560,1,53298,1
2,30345,30435,31686,79578,16151,-4038,917,-234,96,1942,1973,12,444,-188,1,0,53,4,600,1,53298,1
2,30348,30459,31694,79579,16173,-3936,1074,-362,31,1075,836,15,445,-183,1,0,53,4,640,1,53298,1
2,30350,30365,31702,79580,16195,-3920,1234,-460,110,411,6,10,434,-180,1,0,53,4,680,1,53298,1
2,30224,30387,31695,79581,16217,-3920,1349,-581,-140,-3,-618,9,441,-171,1,0,53,4,720,1,53298,1
2,30138,30366,31690,79582,16239,-3912,1451,-661,-195,-215,-991,23,441,-179,1,0,53,4,760,1,53298,1
2,30125,30346,31678,79583,16260,-3895,1523,-704,-100,-271,-1137,20,442,-182,1,0,53,4,800,1,53298,1
2,30120,30300,31676,79584,16280,-3899,1607,-714,105,-141,-1039,22,448,-182,1,0,53,4,840,1,53298,1
2,30147,30332,31689,79585,16301,-3915,1641,-709,150,52,-802,18,448,-180,1,0,53,4,880,1,53298,1
2,30168,30357,31680,79586,16323,-3915,1668,-676,174,211,-446,12,450,-172,1,0,53,4,920,1,53298,1
2,30170,30235,31689,79587,16344,-3952,1643,-655,261,291,-42,23,451,-181,1,0,53,4,960,1,53298,1
1,30142,30240,31676,79588,0,-3934,1586,-634,217,325,257,16,446,-182,1,0,53,5,0,0,53298,1
2,30135,30223,31683,79589,15383,-3920,1522,-640,120,299,457,17,451,-181,1,0,53,5,40,0,53298,1
2,30095,30246,31675,79590,15405,-3914,1452,-649,77,232,550,10,452,-182,1,0,53,5,80,0,53298,1
2,30132,30241,31678,79591,15426,-3902,1385,-646,94,153,546,20,450,-180,1,0,53,5,120,0,53298,1
2,30114,30207,31680,79592,15447,-3906,1377,-650,150,70,426,17,449,-187,1,0,53,5,160,0,53298,1
2,30066,30222,31680,79593,15468,-3921,1369,-645,128,-35,246,19,451,-185,1,0,53,5,200,0,53298,1
2,30036,30260,31676,79594,15488,-3919,1396,-672,152,-157,34,8,444,-182,1,0,53,5,240,0,53298,1
2,30043,30273,31675,79595,15510,-3919,1428,-684,114,-241,-133,18,442,-174,1,0,53,5,280,0,53298,1
2,30043,30325,31695,79596,15532,-3914,1454,-722,50,-264,-239,15,443,-187,1,0,53,5,320,0,53298,1
2,30062,30264,31687,79597,15553,-3896,1477,-737,169,-248,-271,16,444,-190,1,0,53,5,360,0,53298,1
2,30035,30261,31688,79598,15575,-3884,1514,-751,230,-188,-197,7,443,-187,1,0,53,5,400,0,53298,1
2,30035,30268,31692,79599,15596,-3905,1510,-711,211,-113,-74,19,445,-179,1,0,53,5,440,0,53298,1
2,30038,30241,31690,79600,15617,-3915,1516,-726,135,-75,20,10,456,-176,1,0,53,5,480,0,53298,1
2,30052,30240,31693,79601,15637,-3911,1479,-740,84,-35,70,14,456,-182,1,0,53,5,520,0,53298,1
2,30039,30195,31690,79602,15658,-3907,1443,-736,69,31,131,13,443,-177,1,0,53,5,560,0,53298,1
2,30017,30234,31688,79603,15678,-3911,1426,-748,125,90,131,18,460,-188,1,0,53,5,600,0,53298,1
2,30001,30248,31686,79604,15699,-3907,1432,-713,151,117,87,25,443,-183,1,0,53,5,640,0,53298,1
2,30013,30253,31687,79605,15720,-3928,1439,-705,179,121,47,21,447,-177,1,0,53,5,680,0,53298,1
2,30005,30234,31694,79606,15742,-3928,1449,-698,71,73,15,5,453,-185,1,0,53,5,720,0,53298,1
2,29998,30284,31688,79607,15763,-3901,1441,-717,-63,46,-24,10,454,-186,1,0,53,5,760,0,53298,1
2,29968,30280,31685,79608,15785,-3890,1465,-716,-33,49,-39,17,439,-181,1,0,53,5,800,0,53298,1
2,29949,30278,31680,79609,15806,-3921,1459,-724,-40,66,-18,16,452,-184,1,0,53,5,840,0,53298,1
2,29968,30255,31684,79610,15827,-3916,1477,-717,-37,59,-1,11,451,-179,1,0,53,5,880,0,53298,1
2,29952,30244,31681,79611,15848,-3924,1456,-738,-101,49,23,19,441,-183,1,0,53,5,920,0,53298,1
2,29941,30236,31685,79612,15870,-3911,1459,-721,-103,55,46,16,452,-178,1,0,53,5,960,0,53298,1
1,29931,30243,31689,79613,0,-3909,1474,-734,-92,88,81,23,447,-187,1,0,53,6,0,1,53298,1
2,29932,30216,31692,79614,14933,-3890,1484,-722,-43,104,138,16,450,-186,1,0,53,6,40,1,53298,1
2,29959,30209,31697,79615,14955,-3904,1453,-723,-55,115,157,7,449,-177,1,0,53,6,80,1,53298,1
2,29929,30207,31696,79616,14976,-3893,1465,-718,-24,130,160,15,455,-185,1,0,53,6,120,1,53298,1
2,29935,30204,31698,79617,14998,-3888,1504,-700,48,156,179,14,458,-172,1,0,53,6,160,1,53298,1
2,29904,30207,31700,79618,15019,-3873,1538,-753,41,181,236,10,448,-188,1,0,53,6,200,1,53298,1
2,29888,30213,31684,79619,15041,-3834,1585,-793,34,275,366,15,447,-187,1,0,53,6,240,1,53298,1
2,29893,30206,31685,79620,15061,-3821,1621,-818,25,418,582,6,442,-176,1,0,53,6,280,1,53298,1
2,29890,30207,31686,79621,15082,-3780,1749,-891,81,627,913,10,450,-194,1,0,53,6,320,1,53298,1
2,29869,30208,31683,79622,15104,-3854,1759,-867,-17,918,1349,8,438,-196,1,0,53,6,360,1,53298,1
2,29840,30202,31685,79623,15125,-3927,1617,-860,-551,1122,1553,8,436,-196,1,0,53,6,400,1,53298,1
2,29840,30160,31695,79624,15146,-4241,1509,-748,-570,1068,1531,0,442,-186,1,0,53,6,440,1,53298,1
2,29854,30207,31691,79625,15167,-4628,1269,-746,-695,668,769,-1,441,-199,1,0,53,6,480,1,53298,1
2,29863,30169,31700,79626,15188,-4643,1131,-733,146,-43,-713,1,443,-199,1,0,53,6,520,1,53298,1
2,29905,30948,31717,79627,15209,-4576,1156,-441,1137,-659,-2034,17,445,-201,1,0,53,6,560,1,53298,1
2,29914,30100,31730,79628,15232,-4616,970,-411,-654,-1363,-3016,31,459,-199,1,0,53,6,600,1,53298,1
2,30570,32451,31754,79629,15255,-4711,530,-484,-3073,-2207,-4536,28,458,-186,1,0,53,6,640,1,53298,1
2,30728,33696,31731,79630,15279,-4617,303,-413,-3757,-3031,-6736,59,469,-175,1,0,53,6,680,1,53298,1
2,29944,32995,31593,79631,15305,-4392,249,-352,-3794,-3325,-9102,81,479,-173,1,0,53,6,720,1,53298,1
2,30723,34418,31561,79632,15331,-4112,337,-417,-3690,-3196,-10977,112,486,-184,1,0,53,6,760,1,53298,1
2,30817,32929,31569,79633,15359,-3432,1182,-764,-2803,-2792,-11785,133,489,-165,1,0,53,6,800,1,53298,1
2,31230,33109,31595,79634,15385,-2172,2865,-1570,-1415,-1104,-10090,147,497,-173,1,0,53,6,840,1,53298,1
2,31234,31735,31561,79635,15410,-508,5376,-2507,2042,2166,-3524,140,496,-176,1,0,53,6,880,1,53298,1
2,31231,33142,31559,79636,15434,111,8125,-2823,5873,7100,8829,89,505,-183,1,0,53,6,920,1,53298,1
2,31235,32215,31579,79637,15457,-2319,7991,-3213,6188,13741,24772,19,473,-227,1,0,53,6,960,1,53298,1
1,31224,33174,31598,79638,0,-7510,6481,-2683,7191,19257,32767,-53,411,-257,1,0,53,7,0,1,53298,1
2,31513,32681,32043,79639,14483,-12186,4480,-2643,4050,20723,32767,-74,336,-280,1,0,53,7,40,1,53298,1
2,31545,32357,32053,79640,14505,-8821,604,-1611,-3559,16953,31390,-55,301,-277,1,0,53,7,80,1,53298,1
2,31529,33679,32035,79641,14526,-3843,859,-1207,-9044,11196,15093,-51,281,-255,1,0,53,7,120,1,53298,1
2,31663,34347,32136,79642,14546,-2784,672,-1208,-6631,7695,10575,-36,278,-268,1,0,53,7,160,1,53298,1
2,31760,31905,32254,79643,14567,-2484,-366,-856,2729,6506,13372,-25,269,-271,1,0,53,7,200,1,53298,1
2,31759,30975,32117,79644,14587,-2406,-374,540,9443,5625,11894,-23,255,-285,1,0,53,7,240,1,53298,1
2,31886,35110,32392,79645,14605,-1890,-516,1175,3411,2879,5104,-32,264,-274,1,0,53,7,280,1,53298,1
2,31825,30315,32357,79646,14624,-1770,-384,296,-5699,-1363,-2956,-38,250,-276,1,0,53,7,320,1,53298,1
2,31645,34562,32158,79647,14643,-1680,824,-388,-6982,-5572,-10149,-47,279,-261,1,0,53,7,360,1,53298,1
2,31535,33740,32028,79648,14661,-1958,1707,-875,-5198,-8035,-14158,-50,282,-248,1,0,53,7,400,1,53298,1
2,31509,33190,32045,79649,14680,-2711,2178,-979,-2943,-9094,-16397,-55,303,-253,1,0,53,7,440,1,53298,1
2,31698,35075,32248,79650,14698,-4054,2248,-528,-2279,-10391,-18684,-61,329,-249,1,0,53,7,480,1,53298,1
2,31616,35003,32143,79651,14717,-4849,2222,-742,-4816,-11778,-21812,-51,357,-223,1,0,53,7,520,1,53298,1
2,31596,34998,32115,79652,14736,-5506,2162,-453,-4051,-12673,-23651,-28,394,-202,1,0,53,7,560,1,53298,1
2,31638,35036,32133,79653,14755,-6440,1911,198,-3371,-13722,-24946,5,431,-175,1,0,53,7,600,1,53298,1
2,31871,35275,32191,79654,14775,-7251,1317,291,-4706,-15162,-26676,65,453,-149,1,0,53,7,640,1,53298,1
2,31707,34885,32142,79655,14797,-7405,1668,-292,-3708,-15255,-27832,133,459,-123,1,0,53,7,680,1,53298,1
2,31745,35370,32123,79656,14820,-7209,1727,19,-919,-15103,-28669,199,445,-89,1,0,53,7,720,1,53298,1
2,31748,33038,32168,79657,14843,-6824,1887,-22,-1249,-14161,-27734,241,429,-75,1,0,53,7,760,1,53298,1
2,31726,33124,32189,79658,14867,-6077,1850,-336,-2828,-12608,-25550,270,422,-44,1,0,53,7,800,1,53298,1
2,31729,32745,32197,79659,14891,-4946,1822,-718,-3552,-10163,-21681,293,403,-61,1,0,53,7,840,1,53298,1
2,31730,32336,32191,79660,14916,-3644,2067,-947,-2193,-6973,-15585,298,390,-62,1,0,53,7,880,1,53298,1
2,31724,33451,32141,79661,14941,-2671,2499,-930,-296,-3164,-7419,305,391,-77,1,0,53,7,920,1,53298,1
2,31700,33280,32125,79662,14965,-2264,3074,-1268,590,1156,2133,297,395,-77,1,0,53,7,960,1,53298,1
1,31691,33200,32098,79663,0,-2296,4289,-1550,2605,6005,12912,275,409,-73,1,0,53,8,0,0,53298,1
2,31698,34331,32116,79664,14035,-3228,5184,-1868,4727,11345,24265,238,432,-76,1,0,53,8,40,0,53298,1
2,31695,33199,32113,79665,14059,-5601,4888,-1844,6012,17334,32767,159,471,-105,1,0,53,8,80,0,53298,1
2,31684,32615,32141,79666,14083,-8872,3911,-1603,6540,22390,32767,77,463,-151,1,0,53,8,120,0,53298,1
2,31536,33418,32006,79667,14106,-12064,3063,-449,4308,24046,32767,-3,413,-185,1,0,53,8,160,0,53298,1
2,31500,33243,31985,79668,14128,-11193,1070,-233,-3517,20667,32767,-48,360,-202,1,0,53,8,200,0,53298,1
2,31469,33251,31927,79669,14150,-6841,-68,53,-4991,15486,25449,-58,330,-216,1,0,53,8,240,0,53298,1
2,31448,34003,31892,79670,14170,-4842,-162,292,560,11955,18197,-63,323,-227,1,0,53,8,280,0,53298,1
2,31524,33514,31974,79671,14191,-3804,-22,851,7743,9150,14608,-50,302,-238,1,0,53,8,320,0,53298,1
2,31586,34764,32097,79672,14211,-3065,198,1049,8734,6519,12008,-49,297,-255,1,0,53,8,360,0,53298,1
2,31512,34108,31978,79673,14230,-2612,-59,988,2759,3830,7365,-52,290,-256,1,0,53,8,400,0,53298,1
2,31482,33386,31959,79674,14250,-2559,-54,445,-3005,396,899,-56,284,-236,1,0,53,8,440,0,53298,1
2,31453,33065,31926,79675,14270,-2488,529,-469,-5166,-3130,-5711,-57,305,-241,1,0,53,8,480,0,53298,1
2,31487,31252,31965,79676,14289,-2171,1734,-1113,-3736,-4969,-10604,-62,320,-244,1,0,53,8,520,0,53298,1
2,31458,31105,31941,79677,14309,-2373,2539,-1396,-483,-5169,-12017,-67,337,-233,1,0,53,8,560,0,53298,1
2,31455,32100,31936,79678,14328,-2909,2763,-1229,2651,-5015,-11775,-72,354,-232,1,0,53,8,600,0,53298,1
2,31472,32027,31955,79679,14347,-3683,2781,-905,3564,-5414,-11964,-58,376,-236,1,0,53,8,640,0,53298,1
2,31482,32436,31957,79680,14366,-4064,2728,-853,1584,-6327,-12997,-48,398,-218,1,0,53,8,680,0,53298,1
2,31493,33116,31952,79681,14385,-4080,2482,-750,-495,-6774,-13598,-40,416,-204,1,0,53,8,720,0,53298,1
2,31512,33463,31965,79682,14405,-4631,1670,-369,-1122,-7071,-13507,-17,445,-179,1,0,53,8,760,0,53298,1
2,31545,33836,31995,79683,14425,-5121,1094,-198,-1295,-8374,-14487,23,463,-167,1,0,53,8,800,0,53298,1
2,31538,33455,31987,79684,14445,-5422,862,-80,-426,-10018,-16095,57,467,-157,1,0,53,8,840,0,53298,1
2,31551,33078,32002,79685,14465,-5570,793,-70,263,-11097,-17472,88,484,-116,1,0,53,8,880,0,53298,1
2,31553,33151,31998,79686,14485,-5624,826,26,347,-11698,-18529,133,473,-111,1,0,53,8,920,0,53298,1
2,31532,33142,31965,79687,14506,-5860,642,-32,-640,-11826,-19145,173,473,-81,1,0,53,8,960,0,53298,1
1,31533,33243,31974,79688,0,-5760,594,-28,-686,-11577,-19357,216,460,-82,1,0,53,9,0,1,53298,1
2,31535,32642,31978,79689,13584,-5385,752,-39,-186,-11083,-18687,246,448,-74,1,0,53,9,40,1,53298,1
2,31513,32570,31959,79690,13605,-4818,848,-287,-407,-9679,-16781,276,442,-74,1,0,53,9,80,1,53298,1
2,31515,32668,31966,79691,13627,-4403,916,-190,-837,-7352,-13785,289,421,-69,1,0,53,9,120,1,53298,1
2,31509,32864,31958,79692,13650,-3934,681,-152,-2388,-4286,-10128,296,422,-64,1,0,53,9,160,1,53298,1
2,31507,32843,31937,79693,13672,-3892,-144,-72,-2683,-1483,-6088,316,414,-80,1,0,53,9,200,1,53298,1
2,31499,32998,31927,79694,13695,-3922,-735,264,-535,479,-2797,312,414,-84,1,0,53,9,240,1,53298,1
2,31502,33078,31931,79695,13717,-3857,-786,751,1085,1369,-772,319,415,-85,1,0,53,9,280,1,53298,1
2,31503,33176,31929,79696,13740,-3895,-1184,922,-770,2087,492,303,413,-91,1,0,53,9,320,1,53298,1
2,31509,32890,31930,79697,13763,-4342,-1837,1197,-1228,2088,1151,314,420,-84,1,0,53,9,360,1,53298,1
2,31500,33059,31918,79698,13786,-4634,-1903,1436,43,1197,1061,315,411,-85,1,0,53,9,400,1,53298,1
2,31505,33109,31930,79699,13808,-4700,-1761,1488,377,198,479,305,413,-87,1,0,53,9,440,1,53298,1
2,31488,32916,31910,79700,13830,-4602,-1731,1283,-176,-658,-56,308,420,-82,1,0,53,9,480,1,53298,1
2,31495,32955,31924,79701,13853,-4474,-1554,1106,84,-1273,-250,311,419,-97,1,0,53,9,520,1,53298,1
2,31498,32966,31920,79702,13875,-4319,-1426,941,187,-1400,-83,317,415,-93,1,0,53,9,560,1,53298,1
2,31504,32747,31939,79703,13898,-4317,-1457,871,164,-997,271,316,414,-90,1,0,53,9,600,1,53298,1
2,31515,32660,31937,79704,13922,-4325,-1381,919,132,-478,521,311,413,-87,1,0,53,9,640,1,53298,1
2,31513,32686,31932,79705,13945,-4387,-1491,922,-50,81,794,306,414,-82,1,0,53,9,680,1,53298,1
2,31524,32540,31943,79706,13967,-4342,-1457,1054,216,362,936,301,417,-81,1,0,53,9,720,1,53298,1
2,31526,32540,31948,79707,13991,-4320,-1430,1167,134,379,928,313,413,-89,1,0,53,9,760,1,53298,1
2,31520,33305,31939,79708,14014,-4393,-1631,1103,-288,233,782,309,423,-87,1,0,53,9,800,1,53298,1
2,31522,32578,31945,79709,14037,-4416,-1528,1195,446,62,682,308,418,-80,1,0,53,9,840,1,53298,1
2,31516,33227,31947,79710,14060,-4546,-1668,1267,301,-20,388,304,414,-90,1,0,53,9,880,1,53298,1
2,31326,32263,31749,79711,14083,-4528,-1796,1174,-107,-207,-226,309,415,-87,1,0,53,9,920,1,53298,1
2,31329,32261,31738,79712,14106,-4496,-1720,1158,226,-459,-812,308,420,-90,1,0,53,9,960,1,53298,1
1,31389,32253,31769,79713,0,-4330,-1505,983,332,-538,-1198,312,416,-82,1,0,53,10,0,0,53298,1
2,31467,32439,31884,79714,13136,-4120,-1079,955,953,-438,-868,305,413,-89,1,0,53,10,40,0,53298,1
2,31533,32464,31950,79715,13159,-4206,-926,931,634,-52,45,311,411,-77,1,0,53,10,80,0,53298,1
2,31539,32269,31956,79716,13182,-4153,-652,598,217,379,1213,307,411,-89,1,0,53,10,120,0,53298,1
2,31545,32262,31970,79717,13205,-4201,-5,870,9,1073,3104,306,426,-82,1,0,53,10,160,0,53298,1
2,31535,32185,31954,79718,13228,-4656,-1471,514,-3749,2461,4741,289,429,-81,1,0,53,10,200,0,53298,1
2,31537,32462,31965,79719,13252,-4861,-1478,936,-2503,2600,4644,292,428,-90,1,0,53,10,240,0,53298,1
2,31543,32706,31959,79720,13275,-4686,-1033,1031,-3286,2614,4002,289,437,-95,1,0,53,10,280,0,53298,1
2,31537,32623,31958,79721,13299,-4246,-737,-160,-4948,3256,4044,281,455,-91,1,0,53,10,320,0,53298,1
2,31519,32308,31943,79722,13324,-2914,2753,-1174,3784,4349,8398,249,465,-87,1,0,53,10,360,0,53298,1
2,31500,32360,31949,79723,13347,-2733,6281,-1674,9421,8059,17853,192,482,-110,1,0,53,10,400,0,53298,1
2,31492,32538,31950,79724,13370,-4274,7416,-2677,4279,15344,29522,111,493,-121,1,0,53,10,440,0,53298,1
2,31470,32569,31933,79725,13393,-7156,7996,-3084,126,21832,32767,13,465,-173,1,0,53,10,480,0,53298,1
2,31396,33008,31900,79726,13416,-13452,6474,-2856,879,25564,32767,-63,373,-219,1,0,53,10,520,0,53298,1
2,31449,33768,31950,79727,13439,-15615,1810,-1376,2857,24841,32767,-73,311,-235,1,0,53,10,560,0,53298,1
2,31605,31478,32140,79728,13461,-6027,61,-47,3454,17193,32234,-60,280,-242,1,0,53,10,600,0,53298,1
2,31580,32540,32065,79729,13481,-4946,156,616,1969,12473,19654,-36,258,-254,1,0,53,10,640,0,53298,1
2,31633,32416,32106,79730,13503,-3135,-649,550,2682,8676,15814,-32,258,-260,1,0,53,10,680,0,53298,1
2,31721,33580,32216,79731,13524,-2421,-1101,856,3865,6741,13591,-23,253,-265,1,0,53,10,720,0,53298,1
2,31718,32794,32209,79732,13546,-1809,-1678,1272,1776,4328,8456,-26,250,-264,1,0,53,10,760,0,53298,1
2,31640,32443,32165,79733,13566,-1610,-1593,895,-1413,650,1449,-31,247,-267,1,0,53,10,800,0,53298,1
2,31751,30460,32259,79734,13587,-1787,-484,324,-1810,-4028,-6152,-38,256,-252,1,0,53,10,840,0,53298,1
2,31704,30255,32252,79735,13606,-1950,1369,-459,-1468,-8256,-13028,-46,268,-250,1,0,53,10,880,0,53298,1
2,31645,30300,32160,79736,13625,-2276,2893,-1435,-3823,-10276,-17940,-51,285,-249,1,0,53,10,920,0,53298,1
2,31590,30265,32137,79737,13644,-2532,3816,-1774,-4539,-9783,-19558,-65,305,-235,1,0,53,10,960,0,53298,1
1,31608,30350,32163,79738,0,-3695,3578,-1660,-2358,-9003,-18941,-62,336,-240,1,0,53,11,0,0,53298,1
2,31607,30396,32146,79739,12684,-3871,3719,-1695,329,-9243,-18819,-62,374,-220,1,0,53,11,40,0,53298,1
2,31622,30488,32168,79740,12703,-3979,3561,-1716,1559,-8551,-17676,-43,391,-223,1,0,53,11,80,0,53298,1
2,31617,30574,32156,79741,12723,-4196,3309,-1530,2180,-7455,-15863,-26,408,-210,1,0,53,11,120,0,53298,1
2,31644,30602,32184,79742,12743,-4460,2571,-1207,2620,-6597,-13952,-13,431,-203,1,0,53,11,160,0,53298,1
2,31659,30609,32179,79743,12764,-4582,1920,-865,2284,-6582,-13032,13,443,-181,1,0,53,11,200,0,53298,1
2,31647,30589,32181,79744,12785,-4537,1585,-693,2047,-7154,-12927,37,457,-181,1,0,53,11,240,0,53298,1
2,31673,30593,32188,79745,12807,-4625,1272,-236,1683,-7876,-12933,74,466,-170,1,0,53,11,280,0,53298,1
2,31674,30697,32174,79746,12829,-4735,1112,-62,-707,-8663,-13310,99,479,-141,1,0,53,11,320,0,53298,1
2,31682,30650,32191,79747,12850,-4865,722,7,-3063,-9166,-14038,131,481,-127,1,0,53,11,360,0,53298,1
2,31683,30687,32195,79748,12873,-4954,671,151,-5165,-8772,-15082,181,477,-105,1,0,53,11,400,0,53298,1
2,31671,30850,32205,79749,12895,-5191,81,-48,-8203,-7329,-16467,217,471,-107,1,0,53,11,440,0,53298,1
2,31750,30830,32259,79750,12918,-5622,-660,-231,-8178,-5888,-17255,245,461,-105,1,0,53,11,480,0,53298,1
2,31740,30727,32256,79751,12942,-5600,-736,78,-3875,-5193,-17510,277,459,-93,1,0,53,11,520,0,53298,1
2,31663,33010,32150,79752,12965,-5174,-307,165,-877,-4979,-17034,295,439,-97,1,0,53,11,560,0,53298,1
2,31669,34129,32163,79753,12989,-4635,-225,102,-1097,-4237,-15395,323,427,-111,1,0,53,11,600,0,53298,1
2,31700,34407,32187,79754,13013,-4092,104,101,-521,-3242,-12652,335,405,-109,1,0,53,11,640,0,53298,1
2,31695,34257,32175,79755,13036,-3379,1142,-103,1434,-2218,-8200,332,412,-112,1,0,53,11,680,0,53298,1
2,31698,34085,32183,79756,13059,-2934,2281,-792,3280,-360,-1197,329,407,-105,1,0,53,11,720,0,53298,1
2,31678,33891,32166,79757,13083,-2165,5375,-1400,5087,3077,9187,311,439,-109,1,0,53,11,760,0,53298,1
2,31686,33434,32186,79758,13105,-3141,6418,-2362,4167,8604,23235,245,469,-91,1,0,53,11,800,0,53298,1
2,31673,34566,32171,79759,13129,-5801,5588,-2735,5416,15002,32767,163,487,-115,1,0,53,11,840,0,53298,1
2,31273,33560,31727,79760,13152,-9282,5266,-1977,9974,20683,32767,56,474,-156,1,0,53,11,880,0,53298,1
2,31298,32958,31687,79761,13177,-12836,4297,-2086,6080,25320,32767,-36,404,-200,1,0,53,11,920,0,53298,1
2,31552,32727,32081,79762,13200,-13031,1741,-1964,-553,25099,32767,-64,336,-242,1,0,53,11,960,0,53298,1
1,31499,33008,32037,79763,0,-7686,548,-266,-1908,20258,30571,-76,308,-250,1,0,53,12,0,0,53298,1
2,31491,32946,32008,79764,12236,-5114,-258,-175,79,14653,21748,-58,286,-256,1,0,53,12,40,0,53298,1
2,31496,33085,31995,79765,12259,-3966,-271,262,6348,11019,17689,-36,278,-268,1,0,53,12,80,0,53298,1
2,31436,32441,31964,79766,12281,-3091,-536,1116,7003,8453,13584,-38,262,-272,1,0,53,12,120,0,53298,1
2,31435,32407,31958,79767,12304,-2211,-854,1306,1720,5193,7831,-40,256,-280,1,0,53,12,160,0,53298,1
2,31441,32362,31955,79768,12325,-1840,-791,679,-3692,1182,891,-36,262,-274,1,0,53,12,200,0,53298,1
2,31451,32100,31965,79769,12348,-1823,-99,-166,-4740,-2832,-5264,-46,272,-264,1,0,53,12,240,0,53298,1
2,31431,32229,31955,79770,12369,-1785,1180,-945,-2591,-5843,-10380,-56,280,-254,1,0,53,12,280,0,53298,1
2,31389,32113,31920,79771,12391,-1878,2639,-1632,-906,-7120,-13329,-52,294,-260,1,0,53,12,320,0,53298,1
2,31395,32632,31921,79772,12412,-2372,3540,-1964,-231,-6993,-13977,-68,310,-264,1,0,53,12,360,0,53298,1
2,31402,32481,31945,79773,12432,-3240,3389,-1643,376,-6707,-13733,-70,340,-246,1,0,53,12,400,0,53298,1
2,31411,32232,31938,79774,12452,-3452,3429,-1668,-267,-7110,-14270,-67,359,-247,1,0,53,12,440,0,53298,1
2,31424,32459,31964,79775,12472,-3540,3250,-1537,-444,-6850,-13929,-65,389,-233,1,0,53,12,480,0,53298,1
2,31440,32524,31973,79776,12492,-3922,2945,-1186,611,-6740,-12549,-52,412,-224,1,0,53,12,520,0,53298,1
2,31459,32544,31993,79777,12513,-4204,2799,-781,559,-6919,-11485,-42,424,-204,1,0,53,12,560,0,53298,1
2,31484,31893,32002,79778,12533,-4467,1912,-520,-901,-7386,-10953,-16,442,-198,1,0,53,12,600,0,53298,1
2,31485,31897,31996,79779,12553,-4804,1209,-226,-1465,-8693,-11490,4,446,-186,1,0,53,12,640,0,53298,1
2,31493,31885,32014,79780,12575,-4908,941,-177,-547,-10985,-12612,48,456,-176,1,0,53,12,680,0,53298,1
2,31496,31959,32020,79781,12596,-4908,916,-231,1370,-12767,-13221,74,468,-148,1,0,53,12,720,0,53298,1
2,31484,32247,32015,79782,12618,-5123,904,-195,3563,-13808,-13392,85,465,-117,1,0,53,12,760,0,53298,1
2,31480,32264,32019,79783,12641,-5495,958,-31,3150,-13820,-13929,133,459,-103,1,0,53,12,800,0,53298,1
2,31473,32498,32004,79784,12663,-5744,646,-1,446,-13080,-14869,164,458,-86,1,0,53,12,840,0,53298,1
2,31459,32611,31995,79785,12686,-5489,426,-12,-549,-12167,-15543,195,445,-65,1,0,53,12,880,0,53298,1
2,31471,32633,31997,79786,12709,-5434,21,220,-464,-11207,-15597,209,437,-45,1,0,53,12,920,0,53298,1
2,31475,32625,31995,79787,12732,-5407,-677,412,-1288,-10095,-15876,234,418,-60,1,0,53,12,960,0,53298,1
1,31472,32620,31987,79788,0,-4449,-249,-53,-1642,-8719,-16560,262,402,-62,1,0,53,13,0,0,53298,1
2,31467,32412,31980,79789,11786,-2987,1047,-766,162,-6576,-14732,278,402,-52,1,0,53,13,40,0,53298,1
2,31473,32313,31995,79790,11809,-2129,2211,-1137,2307,-2773,-9101,284,402,-58,1,0,53,13,80,0,53298,1
2,31470,32611,31989,79791,11831,-2506,2768,-545,1913,1831,-1499,277,403,-63,1,0,53,13,120,0,53298,1
2,31466,32642,31988,79792,11854,-3477,1888,-505,-3793,6139,5846,264,424,-66,1,0,53,13,160,0,53298,1
2,31548,32654,32048,79793,11876,-4894,1063,-458,-4124,8835,12499,241,445,-77,1,0,53,13,200,0,53298,1
2,31578,32723,32100,79794,11899,-5752,1046,144,-1058,10415,17225,214,452,-78,1,0,53,13,240,0,53298,1
2,31626,32585,32146,79795,11921,-6100,1159,366,-1243,11230,19704,188,470,-102,1,0,53,13,280,0,53298,1
2,31648,32100,32150,79796,11943,-6557,282,-11,-4335,12107,20787,158,468,-112,1,0,53,13,320,0,53298,1
2,31639,32039,32150,79797,11964,-6570,34,116,-3570,12001,20495,121,467,-141,1,0,53,13,360,0,53298,1
2,31624,32004,32141,79798,11985,-6272,-358,102,-3500,11254,18939,82,462,-152,1,0,53,13,400,0,53298,1
2,31565,31860,32095,79799,12007,-5633,-609,-96,-1384,9593,16779,49,455,-175,1,0,53,13,440,0,53298,1
2,31490,31808,32014,79800,12029,-4966,-259,62,2814,8037,14151,32,432,-192,1,0,53,13,480,0,53298,1
2,31473,31782,32006,79801,12050,-4396,39,24,3748,7091,10952,13,429,-201,1,0,53,13,520,0,53298,1
2,31473,31801,32002,79802,12070,-3931,589,-144,3225,6303,8060,-11,423,-213,1,0,53,13,560,0,53298,1
2,31474,31856,32007,79803,12091,-3617,1331,-279,3092,5304,6179,-19,413,-215,1,0,53,13,600,0,53298,1
2,31466,31823,32005,79804,12111,-3468,1958,-574,2138,4383,5323,-28,418,-220,1,0,53,13,640,0,53298,1
2,31454,31867,32012,79805,12132,-3347,2592,-962,548,3909,5220,-33,409,-225,1,0,53,13,680,0,53298,1
2,31457,31853,32000,79806,12154,-3200,3078,-1362,-823,3958,5913,-51,389,-217,1,0,53,13,720,0,53298,1
2,31428,31870,31980,79807,12175,-3111,3611,-1581,-1749,4495,7324,-47,385,-237,1,0,53,13,760,0,53298,1
2,31416,31874,31971,79808,12198,-2941,3989,-1893,-3001,5418,9386,-62,360,-234,1,0,53,13,800,0,53298,1
2,31406,31766,31961,79809,12218,-2862,4285,-2106,-3601,6854,12278,-58,342,-234,1,0,53,13,840,0,53298,1
2,31402,31773,31950,79810,12240,-3070,4399,-2000,-3656,8355,15501,-65,313,-231,1,0,53,13,880,0,53298,1
2,31437,31781,31986,79811,12262,-3368,3634,-1947,-4355,9388,17542,-63,289,-235,1,0,53,13,920,0,53298,1
2,31474,31776,32028,79812,12283,-3088,2582,-1521,-2810,9521,17296,-40,274,-230,1,0,53,13,960,0,53298,1
1,31484,31838,32037,79813,0,-2575,1782,-875,676,8477,15167,-35,263,-253,1,0,53,14,0,0,53298,1
2,31500,31924,32038,79814,11337,-2067,1155,-374,3534,6692,11934,-30,252,-256,1,0,53,14,40,0,53298,1
2,31503,32650,32028,79815,11359,-1581,1036,-19,3157,4774,8075,-23,261,-265,1,0,53,14,80,0,53298,1
2,31504,32842,32031,79816,11380,-1651,154,357,751,2790,4285,-39,263,-259,1,0,53,14,120,0,53298,1
2,31495,33004,32015,79817,11401,-1858,-481,631,-801,-873,-1577,-25,257,-253,1,0,53,14,160,0,53298,1
2,31472,33031,32000,79818,11422,-2282,-379,393,-1105,-5445,-9221,-32,280,-254,1,0,53,14,200,0,53298,1
2,31445,33082,31957,79819,11443,-2751,373,-53,-741,-8831,-16026,-41,297,-255,1,0,53,14,240,0,53298,1
2,31425,33138,31936,79820,11464,-3562,1299,-239,-1235,-10901,-20602,-57,309,-239,1,0,53,14,280,0,53298,1
2,31539,33510,32057,79821,11485,-4464,1967,-643,-2740,-12135,-23758,-53,347,-225,1,0,53,14,320,0,53298,1
2,31640,34050,32172,79822,11507,-5251,2538,-879,-2256,-12778,-25522,-42,386,-212,1,0,53,14,360,0,53298,1
2,31746,33523,32237,79823,11529,-6001,2624,-851,-455,-13055,-26235,-10,434,-192,1,0,53,14,400,0,53298,1
2,31909,32815,32395,79824,11550,-7105,2404,-345,1131,-13883,-26890,29,453,-157,1,0,53,14,440,0,53298,1
2,32007,32940,32515,79825,11573,-7285,2687,-635,1089,-15527,-27373,97,477,-139,1,0,53,14,480,0,53298,1
2,32027,34926,32514,79826,11595,-6929,2622,-290,1750,-15814,-26306,150,470,-118,1,0,53,14,520,0,53298,1
2,31992,34268,32468,79827,11618,-6971,2254,-115,-1318,-15175,-24513,202,462,-90,1,0,53,14,560,0,53298,1
2,31960,34533,32430,79828,11643,-6491,988,-275,-6273,-13337,-23466,261,437,-79,1,0,53,14,600,0,53298,1
2,31990,34348,32475,79829,11668,-5739,-54,-406,-6566,-10594,-22504,281,429,-71,1,0,53,14,640,0,53298,1
2,31990,34546,32481,79830,11693,-3970,844,-827,-1653,-8704,-20409,304,400,-84,1,0,53,14,680,0,53298,1
2,31800,34090,32313,79831,11718,-2082,4245,-2013,2568,-5650,-14538,310,400,-86,1,0,53,14,720,0,53298,1
2,31707,33980,32196,79832,11743,610,10940,-3118,2998,975,348,278,420,-78,1,0,53,14,760,0,53298,1
2,31685,34614,32194,79833,11767,-1020,11841,-3831,1685,10324,24759,220,460,-88,1,0,53,14,800,0,53298,1
2,31697,33698,32213,79834,11791,-6662,8472,-2387,5180,19163,32767,119,475,-121,1,0,53,14,840,0,53298,1
2,31699,32512,32190,79835,11816,-14012,4851,-997,6965,25239,32767,9,421,-179,1,0,53,14,880,0,53298,1
2,31835,34056,32384,79836,11841,-19221,2711,-180,5323,25487,32767,-60,344,-200,1,0,53,14,920,0,53298,1
2,31788,33192,32365,79837,11863,-10666,403,795,-2231,18675,32767,-60,308,-196,1,0,53,14,960,0,53298,1
1,31909,32115,32471,79838,0,-5409,-930,130,-10006,12070,20977,-53,285,-189,1,0,53,15,0,0,53298,1
2,32046,31949,32614,79839,10888,-3020,-868,-355,-847,7417,15078,-46,274,-208,1,0,53,15,40,0,53298,1
2,32111,32686,32686,79840,10908,-2276,-285,19,10828,5504,13338,-48,264,-222,1,0,53,15,80,0,53298,1
2,32160,32379,32739,79841,10929,-2172,-202,342,12367,4504,10557,-47,267,-227,1,0,53,15,120,0,53298,1
2,32036,33398,32617,79842,10950,-2101,-258,453,5368,3583,5863,-49,263,-225,1,0,53,15,160,0,53298,1
2,32254,30494,32728,79843,10970,-2196,-218,76,-3556,1595,-931,-42,264,-230,1,0,53,15,200,0,53298,1
2,31858,30792,32454,79844,10990,-2387,796,-449,-5110,-1841,-8218,-51,273,-229,1,0,53,15,240,0,53298,1
2,31592,32410,32151,79845,11009,-2295,2453,-1026,-1264,-4364,-12701,-61,293,-231,1,0,53,15,280,0,53298,1
2,31604,31261,32190,79846,11028,-2363,3286,-1277,2130,-4698,-13281,-66,312,-230,1,0,53,15,320,0,53298,1
2,31638,30957,32218,79847,11047,-2996,3230,-1082,3784,-4810,-13044,-68,324,-238,1,0,53,15,360,0,53298,1
2,31625,30680,32200,79848,11066,-3442,3161,-1010,3482,-5401,-13844,-69,345,-227,1,0,53,15,400,0,53298,1
2,31585,30558,32145,79849,11086,-3915,2966,-912,2633,-6022,-14161,-61,377,-231,1,0,53,15,440,0,53298,1
2,31614,30396,32173,79850,11106,-4069,2617,-871,1817,-6828,-14095,-38,400,-222,1,0,53,15,480,0,53298,1
2,31629,30391,32184,79851,11126,-4064,2510,-954,1023,-7463,-14075,-32,424,-204,1,0,53,15,520,0,53298,1
2,31646,30383,32196,79852,11146,-4373,1987,-736,310,-7438,-13777,0,434,-204,1,0,53,15,560,0,53298,1
2,31659,30368,32199,79853,11166,-4487,1730,-478,-423,-8086,-14081,18,446,-188,1,0,53,15,600,0,53298,1
2,31675,30353,32214,79854,11186,-4551,1454,-365,-906,-8317,-14350,48,472,-158,1,0,53,15,640,0,53298,1
2,31665,30367,32204,79855,11206,-4726,1295,-249,-509,-8605,-14000,89,473,-137,1,0,53,15,680,0,53298,1
2,31696,30340,32229,79856,11227,-4886,1144,-134,-384,-9081,-13606,122,478,-116,1,0,53,15,720,0,53298,1
2,31716,30355,32236,79857,11248,-5112,937,-205,-1137,-9165,-13337,147,479,-105,1,0,53,15,760,0,53298,1
2,31731,30321,32235,79858,11270,-5352,644,-116,-1691,-8826,-13268,177,471,-103,1,0,53,15,800,0,53298,1
2,31785,30321,32300,79859,11292,-5746,238,198,-1937,-8382,-13257,206,466,-92,1,0,53,15,840,0,53298,1
2,31830,30356,32341,79860,11313,-5508,44,326,-1246,-8305,-13443,220,448,-70,1,0,53,15,880,0,53298,1
2,31894,30341,32403,79861,11336,-4879,43,375,-731,-8189,-13086,246,452,-72,1,0,53,15,920,0,53298,1
2,31880,30326,32421,79862,11358,-4393,-4,311,261,-7605,-11751,267,439,-77,1,0,53,15,960,0,53298,1
1,31941,30325,32473,79863,0,-3877,392,128,353,-6682,-9572,279,427,-73,1,0,53,16,0,0,53298,1
2,31990,30358,32517,79864,10439,-3411,1044,-547,55,-5002,-6054,285,415,-81,1,0,53,16,40,0,53298,1
2,31964,30412,32494,79865,10461,-2593,3763,-1543,1286,-1690,25,271,425,-75,1,0,53,16,80,0,53298,1
2,31756,30710,32307,79866,10483,-1793,6539,-2598,-461,4543,10419,231,445,-79,1,0,53,16,120,0,53298,1
2,31717,31019,32241,79867,10505,-3137,7430,-2824,-1316,12386,25419,169,463,-99,1,0,53,16,160,0,53298,1
2,31659,32962,32179,79868,10528,-6929,6059,-2162,753,18807,32767,83,451,-141,1,0,53,16,200,0,53298,1
2,31923,32436,32449,79869,10550,-11016,4593,-1406,1875,22620,32767,-11,405,-181,1,0,53,16,240,0,53298,1
2,32305,31364,32732,79870,10573,-14052,2202,-894,466,22230,32767,-63,353,-183,1,0,53,16,280,0,53298,1
2,32011,30754,32758,79871,10593,-9312,-140,-101,-2430,18081,32767,-62,310,-200,1,0,53,16,320,0,53298,1
2,31995,35382,32674,79872,10613,-4888,-361,125,-3491,14474,22125,-57,293,-203,1,0,53,16,360,0,53298,1
2,32238,35238,32725,79873,10633,-4165,-501,424,1113,11375,16037,-50,286,-212,1,0,53,16,400,0,53298,1
2,31810,34092,32523,79874,10653,-2887,-486,715,8644,7943,13518,-45,269,-237,1,0,53,16,440,0,53298,1
2,31870,35276,32520,79875,10673,-2472,-306,683,9979,4958,10282,-43,269,-243,1,0,53,16,480,0,53298,1
2,31799,35193,32416,79876,10693,-2204,-150,960,3760,3072,3884,-44,266,-252,1,0,53,16,520,0,53298,1
2,31583,35054,32235,79877,10712,-2421,451,429,-3742,-556,-3784,-55,279,-237,1,0,53,16,560,0,53298,1
2,31270,31744,31877,79878,10731,-2512,1276,-356,-6780,-4548,-10924,-49,287,-227,1,0,53,16,600,0,53298,1
2,31363,34856,32029,79879,10750,-2341,2512,-1183,-3112,-6788,-14824,-58,304,-228,1,0,53,16,640,0,53298,1
2,31371,34847,32027,79880,10770,-2613,3022,-1263,2161,-6502,-14793,-70,328,-226,1,0,53,16,680,0,53298,1
2,31360,34848,32026,79881,10790,-3474,3062,-1047,5212,-6797,-14003,-55,365,-237,1,0,53,16,720,0,53298,1
2,29813,34718,31914,79882,10809,-3480,3475,-1304,3730,-7415,-14432,-52,378,-222,1,0,53,16,760,0,53298,1
2,29902,34740,31907,79883,10828,-3701,3001,-1151,1336,-6501,-13547,-46,402,-214,1,0,53,16,800,0,53298,1
2,29766,34743,31918,79884,10848,-3941,2797,-1320,-526,-5703,-12610,-37,423,-197,1,0,53,16,840,0,53298,1
2,29740,34756,31905,79885,10867,-4337,2287,-836,683,-5580,-12019,-21,437,-193,1,0,53,16,880,0,53298,1
2,29633,34782,31913,79886,10887,-4623,1663,-610,2204,-5933,-11370,-2,450,-182,1,0,53,16,920,0,53298,1
2,29633,34799,31930,79887,10907,-4684,1432,-567,3126,-7279,-11444,33,461,-167,1,0,53,16,960,0,53298,1
1,29586,34833,31956,79888,0,-4713,1232,-327,4237,-7967,-11431,51,473,-155,1,0,53,17,0,0,53298,1
2,29560,34898,31997,79889,9990,-5026,1315,-216,2408,-8217,-11636,75,487,-145,1,0,53,17,40,0,53298,1
2,29573,34961,32037,79890,10012,-5281,997,22,-1624,-8537,-12523,108,488,-126,1,0,53,17,80,0,53298,1
2,29567,35212,32261,79891,10034,-5369,623,217,-4491,-8472,-13643,151,479,-117,1,0,53,17,120,0,53298,1
2,29751,35433,32510,79892,10056,-5419,264,394,-5912,-8542,-14533,196,476,-112,1,0,53,17,160,0,53298,1
2,30224,31135,32398,79893,10079,-5294,-220,291,-4901,-9085,-15245,228,472,-92,1,0,53,17,200,0,53298,1
2,30071,31832,32316,79894,10103,-4716,-245,119,-1721,-9763,-15558,247,453,-93,1,0,53,17,240,0,53298,1
2,30082,35319,32570,79895,10126,-3882,583,-323,348,-9390,-15033,269,435,-87,1,0,53,17,280,0,53298,1
2,30186,35353,32369,79896,10149,-3071,2123,-1311,-302,-6872,-12571,281,423,-81,1,0,53,17,320,0,53298,1
2,29775,35623,32664,79897,10172,-1722,5243,-2628,-1257,-1339,-5210,274,448,-90,1,0,53,17,360,0,53298,1
2,29057,35011,32466,79898,10194,-1708,6715,-3255,-111,6329,8661,248,470,-88,1,0,53,17,400,0,53298,1
2,28960,33366,32625,79899,10216,-3819,6126,-2811,3355,13860,24547,177,485,-105,1,0,53,17,440,0,53298,1
2,29751,32695,32212,79900,10238,-6626,4894,-2473,5122,19796,32767,88,486,-138,1,0,53,17,480,0,53298,1
2,30201,33007,32460,79901,10261,-9460,4453,-2636,7225,24570,32767,-17,449,-185,1,0,53,17,520,0,53298,1
2,30480,35625,32814,79902,10283,-12838,3658,-1934,9283,27501,32767,-80,396,-228,1,0,53,17,560,0,53298,1
2,30553,31490,32548,79903,10304,-10685,1616,-685,2241,26193,32767,-85,339,-267,1,0,53,17,600,0,53298,1
2,30393,35451,32659,79904,10325,-6062,989,322,-3643,20095,22523,-68,308,-274,1,0,53,17,640,0,53298,1
2,30562,30954,32663,79905,10346,-4755,207,723,-3878,13582,17124,-53,285,-277,1,0,53,17,680,0,53298,1
2,30390,30519,32475,79906,10366,-3154,-331,618,811,8277,15091,-45,269,-271,1,0,53,17,720,0,53298,1
2,30304,30523,32562,79907,10386,-2442,-663,533,1381,4928,11256,-41,275,-275,1,0,53,17,760,0,53298,1
2,30221,30394,32450,79908,10405,-1946,-606,677,-903,1910,5272,-37,261,-273,1,0,53,17,800,0,53298,1
2,29898,30379,32380,79909,10425,-1906,-389,-64,-3719,-1930,-1397,-40,266,-274,1,0,53,17,840,0,53298,1
2,29422,32654,32165,79910,10444,-1765,674,-699,-4225,-5289,-7945,-48,286,-256,1,0,53,17,880,0,53298,1
2,29329,34583,31959,79911,10463,-1878,1983,-1273,-3275,-7191,-12183,-63,279,-249,1,0,53,17,920,0,53298,1
2,29976,34765,31975,79912,10483,-2133,2709,-1749,-3186,-7137,-13572,-64,310,-258,1,0,53,17,960,0,53298,1
1,30220,34790,31980,79913,0,-3048,2835,-1547,-243,-6526,-13346,-65,337,-247,1,0,53,18,0,0,53298,1
2,30074,34817,32002,79914,9540,-3703,3308,-1530,2650,-7224,-13933,-67,361,-243,1,0,53,18,40,0,53298,1
2,29915,34847,32019,79915,9560,-3731,3422,-1684,3896,-7766,-14149,-60,382,-242,1,0,53,18,80,0,53298,1
2,29946,34854,32041,79916,9579,-3876,2920,-1700,4563,-7286,-13001,-57,409,-237,1,0,53,18,120,0,53298,1
2,29700,34861,32040,79917,9599,-3666,2637,-1778,4668,-6643,-12044,-43,431,-237,1,0,53,18,160,0,53298,1
2,29361,34894,32060,79918,9619,-3994,1683,-1444,5990,-5423,-10854,-32,452,-220,1,0,53,18,200,0,53298,1
2,29367,34876,32035,79919,9640,-4586,1474,-768,8074,-6353,-10478,0,462,-218,1,0,53,18,240,0,53298,1
2,29399,34853,32013,79920,9659,-4949,1478,-384,5460,-8716,-11416,11,489,-199,1,0,53,18,280,0,53298,1
2,29447,34830,31975,79921,9680,-5107,1574,-106,156,-10472,-12583,41,493,-165,1,0,53,18,320,0,53298,1
2,29626,34830,31963,79922,9699,-5324,1351,193,-6190,-11672,-13695,96,490,-146,1,0,53,18,360,0,53298,1
2,30271,34971,32091,79923,9720,-5728,581,248,-11241,-12297,-15177,136,490,-124,1,0,53,18,400,0,53298,1
2,30288,34986,32091,79924,9740,-5938,-536,73,-10004,-12973,-16886,183,473,-105,1,0,53,18,440,0,53298,1
2,30363,35010,32114,79925,9760,-5864,-544,449,-3969,-14296,-18470,226,464,-84,1,0,53,18,480,0,53298,1
2,30318,33571,31881,79926,9781,-5610,-428,148,-1795,-15027,-19664,258,444,-80,1,0,53,18,520,0,53298,1
2,30386,30240,31980,79927,9802,-4697,334,-594,-1976,-13947,-20106,289,421,-71,1,0,53,18,560,0,53298,1
2,30466,30487,32111,79928,9824,-3684,1540,-1076,-1894,-10688,-17872,314,404,-80,1,0,53,18,600,0,53298,1
2,30188,35537,32570,79929,9846,-2814,3296,-1973,-832,-5754,-11372,313,397,-73,1,0,53,18,640,0,53298,1
2,29560,35680,32682,79930,9867,-1656,6790,-2889,789,1390,677,287,411,-69,1,0,53,18,680,0,53298,1
2,29479,33539,32691,79931,9888,-2709,7338,-3404,1371,10237,18170,256,446,-72,1,0,53,18,720,0,53298,1
2,29575,35717,32785,79932,9911,-5701,6555,-3024,5924,18551,32767,150,478,-108,1,0,53,18,760,0,53298,1
2,30302,30508,32668,79933,9935,-9413,5534,-2211,7670,26100,32767,47,463,-153,1,0,53,18,800,0,53298,1
2,30316,35501,32633,79934,9958,-12945,4298,-2066,3399,31277,32767,-43,413,-203,1,0,53,18,840,0,53298,1
2,30214,35448,32577,79935,9981,-14427,2564,-1543,1113,30047,32767,-72,348,-234,1,0,53,18,880,0,53298,1
2,30396,35432,32576,79936,10002,-9104,323,265,3,22957,32767,-60,308,-256,1,0,53,18,920,0,53298,1
2,30274,35326,32470,79937,10022,-5334,-271,278,2334,15809,23710,-45,281,-265,1,0,53,18,960,0,53298,1
1,30213,35213,32346,79938,0,-3984,-191,811,6250,11304,17556,-38,280,-282,1,0,53,19,0,0,53298,1
2,30218,30322,32290,79939,9092,-2791,-194,1063,4743,8065,13515,-28,268,-280,1,0,53,19,40,0,53298,1
2,30156,30333,32325,79940,9112,-2158,-784,814,-172,5098,9808,-41,257,-269,1,0,53,19,80,0,53298,1
2,29832,31464,32126,79941,9132,-1784,-837,421,-4675,1919,3747,-28,254,-268,1,0,53,19,120,0,53298,1
2,29568,35138,32342,79942,9152,-1629,-154,-223,-6079,-1908,-3210,-34,262,-262,1,0,53,19,160,0,53298,1
2,29540,35026,32203,79943,9171,-1651,1011,-936,-4487,-5406,-9390,-43,279,-259,1,0,53,19,200,0,53298,1
2,30348,34930,32104,79944,9191,-1723,2482,-1572,-2088,-7234,-13440,-48,290,-250,1,0,53,19,240,0,53298,1
2,30792,34909,32096,79945,9210,-1815,3516,-1909,-334,-6865,-13983,-66,310,-248,1,0,53,19,280,0,53298,1
2,30780,34946,32125,79946,9229,-2649,3323,-1501,785,-5843,-12507,-72,332,-264,1,0,53,19,320,0,53298,1
2,30512,34953,32133,79947,9248,-3787,2979,-1167,1618,-6538,-12855,-60,340,-246,1,0,53,19,360,0,53298,1
2,30765,34985,32164,79948,9266,-3792,3182,-1343,841,-7744,-14748,-60,364,-238,1,0,53,19,400,0,53298,1
2,30720,35019,32173,79949,9284,-3670,3041,-1427,639,-7411,-14656,-51,395,-229,1,0,53,19,440,0,53298,1
2,30601,35039,32184,79950,9304,-3864,2695,-1248,2120,-6862,-12833,-40,418,-220,1,0,53,19,480,0,53298,1
2,30845,35043,32188,79951,9324,-4130,2242,-932,3007,-7163,-11476,-25,427,-215,1,0,53,19,520,0,53298,1
2,30947,35061,32201,79952,9346,-4379,1620,-890,2735,-8024,-11217,-4,440,-210,1,0,53,19,560,0,53298,1
2,30877,35074,32205,79953,9366,-4767,1288,-966,2994,-8948,-11860,17,465,-185,1,0,53,19,600,0,53298,1
2,31022,35090,32206,79954,9387,-4936,1330,-917,3214,-9165,-13022,49,475,-179,1,0,53,19,640,0,53298,1
2,31011,35087,32201,79955,9407,-4846,1322,-818,2393,-8861,-13673,74,484,-162,1,0,53,19,680,0,53298,1
2,30918,35098,32209,79956,9428,-4645,1180,-591,1355,-8629,-13688,99,489,-139,1,0,53,19,720,0,53298,1
2,31224,35095,32218,79957,9449,-4594,1055,-453,-318,-8654,-13331,143,481,-129,1,0,53,19,760,0,53298,1
2,31089,35097,32202,79958,9470,-4553,852,-336,-2049,-8553,-12789,167,479,-107,1,0,53,19,800,0,53298,1
2,31141,35095,32188,79959,9491,-4707,461,-324,-3606,-8132,-12150,199,469,-101,1,0,53,19,840,0,53298,1
2,31156,35103,32195,79960,9511,-4627,184,-531,-3241,-7122,-11325,218,474,-92,1,0,53,19,880,0,53298,1
2,31143,35092,32181,79961,9532,-4506,406,-413,-296,-5966,-9920,234,470,-94,1,0,53,19,920,0,53298,1
2,31186,35094,32183,79962,9553,-4228,609,-516,684,-4192,-7890,241,459,-81,1,0,53,19,960,0,53298,1
1,31308,35130,32207,79963,0,-3962,1033,-783,829,-1817,-4981,238,474,-92,1,0,53,20,0,0,53298,1
2,31317,35136,32223,79964,8644,-3463,2002,-1122,1596,1088,-449,229,467,-79,1,0,53,20,40,0,53298,1
2,31341,35160,32263,79965,8665,-3125,3027,-1518,2745,4295,5944,210,482,-96,1,0,53,20,80,0,53298,1
2,31270,35203,32316,79966,8686,-3469,3682,-2039,2873,8518,13429,168,488,-110,1,0,53,20,120,0,53298,1
2,31077,35258,32372,79967,8706,-4207,5411,-3150,2124,13819,21478,112,494,-128,1,0,53,20,160,0,53298,1
2,31249,35289,32403,79968,8727,-5133,7323,-4646,-315,21272,30646,18,466,-180,1,0,53,20,200,0,53298,1
2,31137,35212,32355,79969,8749,-8757,8103,-4464,-1021,29249,32767,-45,405,-245,1,0,53,20,240,0,53298,1
2,30646,34958,32077,79970,8770,-16033,5487,-2811,-387,30959,32767,-79,311,-271,1,0,53,20,280,0,53298,1
2,29411,35192,32409,79971,8791,-9989,-1261,-1801,-5789,23737,32767,-56,274,-258,1,0,53,20,320,0,53298,1
2,29647,35229,32399,79972,8811,-4817,-1100,-411,3208,15945,25199,-34,252,-278,1,0,53,20,360,0,53298,1
2,29486,35303,32463,79973,8832,-4300,170,1883,4570,11895,14514,-27,261,-279,1,0,53,20,400,0,53298,1
2,29472,35103,32307,79974,8853,-2167,-1797,0,1181,5892,11690,-15,245,-279,1,0,53,20,440,0,53298,1
2,29452,35051,32249,79975,8873,-1869,-1402,983,4076,4996,7749,-16,248,-286,1,0,53,20,480,0,53298,1
2,29372,34990,32202,79976,8895,-1492,-1342,1188,3656,1415,2919,-8,248,-292,1,0,53,20,520,0,53298,1
2,29426,34926,32155,79977,8915,-1675,-1375,529,-240,-2526,-3571,-32,248,-294,1,0,53,20,560,0,53298,1
2,29480,34790,31982,79978,8935,-2363,21,67,-4771,-6468,-11647,-41,259,-283,1,0,53,20,600,0,53298,1
2,30511,34707,31894,79979,8954,-2936,1274,-972,-9601,-10614,-19875,-56,280,-270,1,0,53,20,640,0,53298,1
2,30880,34886,32025,79980,8973,-3522,3018,-2058,-9607,-12317,-25652,-61,315,-257,1,0,53,20,680,0,53298,1
2,30973,34917,32089,79981,8993,-4926,2876,-1709,-2290,-12183,-26367,-68,364,-256,1,0,53,20,720,0,53298,1
2,30883,34954,32120,79982,9012,-5537,3689,-1712,2328,-13356,-26512,-48,410,-234,1,0,53,20,760,0,53298,1
2,30843,35009,32128,79983,9032,-5613,3106,-996,4295,-14202,-25001,-26,444,-214,1,0,53,20,800,0,53298,1
2,30889,35057,32187,79984,9052,-6442,2703,-772,5323,-15168,-22309,13,475,-179,1,0,53,20,840,0,53298,1
2,30831,35152,32238,79985,9073,-6651,2676,-468,4451,-18029,-21404,64,482,-130,1,0,53,20,880,0,53298,1
2,30939,35188,32285,79986,9095,-5808,3969,-1536,2120,-18212,-19704,106,488,-100,1,0,53,20,920,0,53298,1
2,30877,35226,32307,79987,9118,-5204,1890,-421,-2328,-15587,-17333,162,490,-90,1,0,53,20,960,0,53298,1
1,31627,35658,32706,79988,0,-5090,966,-371,-8210,-12442,-16982,190,470,-82,1,0,53,21,0,1,53298,1
2,31861,35667,32703,79989,8196,-5209,161,-620,-7138,-10013,-15326,225,461,-79,1,0,53,21,40,1,53298,1
2,31924,35689,32739,79990,8219,-4793,324,-202,565,-10049,-13276,249,441,-59,1,0,53,21,80,1,53298,1
2,31739,35649,32700,79991,8243,-4124,722,-390,2373,-9279,-11145,261,429,-67,1,0,53,21,120,1,53298,1
2,31588,35634,32677,79992,8267,-3339,1084,-607,837,-6973,-8381,255,425,-65,1,0,53,21,160,1,53298,1
2,31583,35622,32665,79993,8291,-3079,1466,-778,263,-3675,-4020,264,432,-56,1,0,53,21,200,1,53298,1
2,31517,35624,32675,79994,8314,-3027,2137,-1255,1400,181,1808,257,437,-61,1,0,53,21,240,1,53298,1
2,31581,35612,32660,79995,8336,-3002,3430,-1686,4309,5109,9387,224,448,-60,1,0,53,21,280,1,53298,1
2,31629,35622,32669,79996,8358,-3803,4057,-1880,5697,11234,17682,180,466,-80,1,0,53,21,320,1,53298,1
2,31629,35612,32689,79997,8380,-5459,4184,-1990,4379,17667,25056,127,459,-107,1,0,53,21,360,1,53298,1
2,31632,35590,32662,79998,8401,-7039,4736,-2171,1790,22728,30927,45,451,-165,1,0,53,21,400,1,53298,1
2,31590,35540,32635,79999,8423,-8621,5271,-2376,-1916,26278,32767,-34,402,-206,1,0,53,21,440,1,53298,1
2,31408,35456,32533,80000,8444,-10314,4487,-2375,-4268,26817,32767,-67,339,-233,1,0,53,21,480,1,53298,1
2,30023,35381,32535,80001,8464,-10342,2390,-1528,-3259,24020,32767,-73,295,-227,1,0,53,21,520,1,53298,1
2,30094,35350,32497,80002,8484,-6800,456,-543,-1542,19538,30721,-68,268,-232,1,0,53,21,560,1,53298,1
2,30016,35324,32459,80003,8504,-4536,-457,477,701,14785,22623,-39,255,-253,1,0,53,21,600,1,53298,1
2,30019,35293,32467,80004,8523,-3165,-667,857,3991,9094,15636,-32,252,-268,1,0,53,21,640,1,53298,1
2,30031,35287,32475,80005,8543,-2018,-712,774,6175,4841,10225,-35,257,-271,1,0,53,21,680,1,53298,1
2,29992,35274,32473,80006,8563,-1543,-418,903,3525,2193,4762,-34,246,-248,1,0,53,21,720,1,53298,1
2,30090,35196,32404,80007,8583,-1374,-418,283,-1685,-658,-795,-34,250,-268,1,0,53,21,760,1,53298,1
2,30111,35039,32199,80008,8602,-1414,272,-256,-3995,-3745,-6698,-38,264,-264,1,0,53,21,800,1,53298,1
2,30385,34931,32098,80009,8621,-1682,1098,-854,-3237,-6580,-11942,-44,268,-240,1,0,53,21,840,1,53298,1
2,30885,34986,32156,80010,8640,-2242,2401,-1556,-1132,-8419,-15975,-54,284,-258,1,0,53,21,880,1,53298,1
2,31184,35095,32257,80011,8659,-2262,3617,-1874,784,-8561,-17170,-53,301,-257,1,0,53,21,920,1,53298,1
2,31233,35114,32258,80012,8679,-3435,3116,-1904,1897,-7932,-15934,-53,339,-253,1,0,53,21,960,1,53298,1
1,31222,35148,32291,80013,7746,-3612,3559,-1981,3346,-8329,-16199,-64,352,-262,1,0,53,22,0,0,53298,1
2,31305,35205,32337,80014,7746,-3868,3437,-1949,3827,-7850,-15631,-46,384,-250,1,0,53,22,40,0,53298,1
2,31103,35207,32342,80015,7765,-4687,2388,-1363,4211,-7164,-14254,-48,412,-242,1,0,53,22,80,0,53298,1
2,31385,35236,32361,80016,7784,-4660,2479,-1281,3295,-8478,-14638,-27,439,-225,1,0,53,22,120,0,53298,1
2,31197,35285,32375,80017,7804,-4962,1697,-971,2437,-9067,-14540,-7,459,-213,1,0,53,22,160,0,53298,1
2,31308,35340,32445,80018,7825,-5202,1579,-690,1920,-10401,-14790,33,481,-197,1,0,53,22,200,0,53298,1
2,31641,35533,32624,80019,7846,-5484,1217,-681,-311,-11388,-15629,78,490,-180,1,0,53,22,240,0,53298,1
2,31861,35716,32759,80020,7867,-5469,1133,-890,-1809,-10980,-16275,102,502,-148,1,0,53,22,280,0,53298,1
2,31993,35786,32818,80021,7889,-4993,1226,-1050,-1514,-10430,-16386,143,497,-137,1,0,53,22,320,0,53298,1
2,31938,35760,32765,80022,7910,-4528,1361,-1071,-824,-9088,-15194,184,496,-138,1,0,53,22,360,0,53298,1
2,31994,35768,32768,80023,7931,-3956,1777,-1476,-802,-6716,-12883,213,483,-131,1,0,53,22,400,0,53298,1
2,31953,35755,32774,80024,7951,-3093,2658,-1698,-500,-3340,-9240,229,487,-139,1,0,53,22,440,0,53298,1
2,31842,32116,32571,80025,7973,-1586,4462,-2542,-2054,1268,-3240,203,487,-147,1,0,53,22,480,0,53298,1
2,31769,31107,32494,80026,7993,369,7135,-3356,-1980,7135,7024,165,507,-155,1,0,53,22,520,0,53298,1
2,31654,35551,32568,80027,8014,-922,7609,-2940,1007,14014,22507,78,498,-180,1,0,53,22,560,0,53298,1
2,31751,33019,32608,80028,8035,-4908,6223,-1856,2074,19413,32767,-18,444,-216,1,0,53,22,600,0,53298,1
2,31750,32545,32595,80029,8057,-11907,4453,-2016,-1105,21712,32767,-62,372,-244,1,0,53,22,640,0,53298,1
2,31072,31046,32390,80030,8080,-16174,632,-2533,-8273,19883,32767,-79,319,-233,1,0,53,22,680,0,53298,1
2,31012,31497,32332,80031,8101,-4742,-1185,-787,-10828,11989,18488,-72,310,-232,1,0,53,22,720,0,53298,1
2,30834,31624,32232,80032,8122,-3325,1124,-969,-4502,5255,5269,-54,304,-240,1,0,53,22,760,0,53298,1
2,30262,31569,32188,80033,8141,-1975,718,-1342,5559,3806,7794,-53,293,-261,1,0,53,22,800,0,53298,1
2,29914,31527,32159,80034,8162,-2534,758,-261,13376,4948,12174,-51,281,-273,1,0,53,22,840,0,53298,1
2,29822,31538,32123,80035,8183,-2994,490,740,7082,5051,9328,-53,281,-265,1,0,53,22,880,0,53298,1
2,29690,31678,31962,80036,8204,-2723,-24,130,-5686,2162,1456,-54,284,-266,1,0,53,22,920,0,53298,1
2,29729,32028,31996,80037,8225,-2503,832,-889,-7693,-2182,-6188,-59,283,-263,1,0,53,22,960,0,53298,1
1,29779,32187,32099,80038,7299,-1830,2570,-1499,-1422,-4586,-9449,-64,302,-262,1,0,53,23,0,0,53298,1
2,29743,32180,32154,80039,7320,-1469,3592,-1848,3138,-4738,-8544,-77,309,-263,1,0,53,23,40,0,53298,1
2,29754,32153,32192,80040,7342,-2218,3419,-1667,4338,-3930,-6714,-58,324,-270,1,0,53,23,80,0,53298,1
2,29779,32165,32219,80041,7363,-2793,2898,-1605,3054,-4166,-6948,-60,338,-266,1,0,53,23,120,0,53298,1
2,29761,32100,32230,80042,7385,-2457,3077,-2006,983,-4516,-8184,-67,351,-269,1,0,53,23,160,0,53298,1
2,29787,31977,32255,80043,7407,-2798,2238,-1762,1267,-3744,-7300,-59,365,-271,1,0,53,23,200,0,53298,1
2,29972,31597,32304,80044,7431,-3145,2307,-1790,2913,-3964,-6646,-58,374,-266,1,0,53,23,240,0,53298,1
2,29501,31960,32360,80045,7455,-3492,1898,-1776,2655,-3495,-7038,-47,389,-261,1,0,53,23,280,0,53298,1
2,30365,33612,32010,80046,7479,-4398,820,-1108,2608,-3451,-7888,-42,400,-264,1,0,53,23,320,0,53298,1
2,30898,35029,32050,80047,7503,-4473,816,-1029,2282,-6124,-11005,-16,430,-264,1,0,53,23,360,0,53298,1
2,30990,34745,31989,80048,7528,-4323,1187,-1253,1320,-7577,-13598,-7,461,-247,1,0,53,23,400,0,53298,1
2,31057,34544,32111,80049,7553,-4514,892,-1148,35,-7653,-15002,24,480,-232,1,0,53,23,440,0,53298,1
2,31138,33217,32094,80050,7578,-4686,1150,-1321,-811,-7371,-16501,60,502,-224,1,0,53,23,480,0,53298,1
2,31512,34193,32119,80051,7603,-4917,1313,-984,721,-6726,-16949,101,535,-197,1,0,53,23,520,0,53298,1
2,31704,32924,32203,80052,7628,-5290,820,-545,471,-6601,-17247,154,528,-188,1,0,53,23,560,0,53298,1
2,31917,32574,32340,80053,7628,-5174,734,-595,-168,-7326,-17345,185,529,-175,1,0,53,23,600,0,53298,1
2,31802,32685,32176,80054,7653,-4744,947,-696,279,-8123,-16285,225,513,-167,1,0,53,23,640,0,53298,1
2,31530,32389,31886,80055,7679,-4231,1104,-865,32,-7751,-14326,249,503,-159,1,0,53,23,680,0,53298,1
2,31326,33481,31709,80056,7705,-8163,6284,-4789,-2912,-5523,-6491,253,507,-153,1,0,53,23,720,0,53298,1
2,31316,30815,31715,80057,7730,-3542,1055,-931,3524,-216,-1329,249,517,-151,1,0,53,23,760,0,53298,1
2,31310,30450,31713,80058,7755,-3884,887,-1224,-2895,2258,4758,237,503,-171,1,0,53,23,800,0,53298,1
2,31280,33309,31693,80059,7780,-3829,879,-1199,-574,3461,8194,205,509,-167,1,0,53,23,840,0,53298,1
2,31298,31168,31711,80060,7805,-3458,2112,-1197,2760,4702,11756,164,520,-180,1,0,53,23,880,0,53298,1
2,31268,30265,31709,80061,7830,-1697,5323,-2537,-261,7477,16009,104,526,-194,1,0,53,23,920,0,53298,1
2,31209,30514,31683,80062,7853,581,9086,-4421,-4851,13968,26798,20,488,-218,1,0,53,23,960,0,53298,1
1,31215,32790,31694,80063,6852,-7323,6907,-2383,-1277,22568,32767,-62,402,-252,1,0,53,24,0,0,53298,1
2,31556,34546,32411,80064,6875,-17527,2705,-2742,-844,22929,32767,-70,300,-272,1,0,53,24,40,0,53298,1
2,31745,34589,32382,80065,6896,-9374,-2437,-388,-8353,15487,30749,-71,299,-241,1,0,53,24,80,0,53298,1
2,31528,34325,32033,80066,6917,-4339,161,-1000,-18529,5227,2810,-58,294,-230,1,0,53,24,120,0,53298,1
2,31508,34531,32002,80067,6938,-1971,-420,-2488,-8508,903,-391,-49,289,-245,1,0,53,24,160,0,53298,1
2,31539,34548,32062,80068,6958,-1064,631,-1617,14730,1966,7190,-47,283,-281,1,0,53,24,200,0,53298,1
2,31594,34583,32131,80069,6979,-2346,1159,676,21415,4314,11087,-46,276,-288,1,0,53,24,240,0,53298,1
2,31544,34355,32049,80070,6999,-2899,813,909,5373,3763,6173,-56,270,-280,1,0,53,24,280,0,53298,1
2,31535,34608,32056,80071,7019,-2780,209,43,-12375,364,-3048,-58,284,-260,1,0,53,24,320,0,53298,1
2,31530,34478,32024,80072,7039,-2534,1405,-1013,-12546,-4418,-11032,-70,300,-244,1,0,53,24,360,0,53298,1
2,31553,34588,32062,80073,7059,-2128,2758,-1881,-3196,-6926,-14091,-74,320,-248,1,0,53,24,400,0,53298,1
2,31575,34671,32083,80074,7079,-2084,3632,-1930,5813,-7185,-12650,-69,333,-257,1,0,53,24,440,0,53298,1
2,31582,34686,32096,80075,7098,-2788,3537,-1565,7884,-6712,-10261,-76,348,-264,1,0,53,24,480,0,53298,1
2,31616,34720,32115,80076,7117,-3006,3287,-1909,2895,-6469,-9850,-55,365,-259,1,0,53,24,520,0,53298,1
2,31598,34636,32090,80077,7137,-3556,2468,-1836,649,-5599,-9284,-60,390,-244,1,0,53,24,560,0,53298,1
2,31607,34634,32087,80078,7157,-3362,2804,-1797,760,-5613,-8975,-63,401,-233,1,0,53,24,600,0,53298,1
2,31597,34631,32078,80079,7178,-3682,2383,-1732,-59,-4480,-7904,-41,409,-231,1,0,53,24,640,0,53298,1
2,31605,34650,32087,80080,7197,-4157,1818,-1437,959,-3872,-7322,-25,429,-227,1,0,53,24,680,0,53298,1
2,31607,34625,32086,80081,7217,-4258,1884,-1425,1695,-4434,-7992,-14,448,-228,1,0,53,24,720,0,53298,1
2,31605,34601,32058,80082,7238,-4576,1407,-1203,2630,-4398,-8382,-5,455,-227,1,0,53,24,760,0,53298,1
2,31479,32379,31938,80083,7259,-4725,1176,-987,3091,-5290,-9157,26,476,-218,1,0,53,24,800,0,53298,1
2,31489,32829,31921,80084,7281,-4922,962,-915,1114,-5883,-10395,45,485,-199,1,0,53,24,840,0,53298,1
2,31490,33753,31885,80085,7303,-4744,579,-848,-1327,-6103,-11891,68,488,-188,1,0,53,24,880,0,53298,1
2,31494,33825,31865,80086,7326,-4838,515,-892,-1683,-6238,-12802,109,511,-185,1,0,53,24,920,0,53298,1
2,31485,34243,31860,80087,7326,-4765,747,-816,-838,-6034,-13145,140,516,-164,1,0,53,24,960,0,53298,1
1,31518,34396,31866,80088,6404,-4712,845,-567,-1010,-5500,-13219,170,504,-178,1,0,53,25,0,1,53298,1
2,31508,34291,31859,80089,6428,-4340,840,-988,-2646,-4479,-12958,201,503,-161,1,0,53,25,40,1,53298,1
2,31508,34378,31877,80090,6450,-3245,2053,-1270,-1494,-3110,-11474,224,504,-172,1,0,53,25,80,1,53298,1
2,31471,34287,31830,80091,6471,-673,5438,-2525,-1310,-714,-6403,211,507,-181,1,0,53,25,120,1,53298,1
2,31469,34361,31853,80092,6493,2168,9845,-4131,-389,5591,6518,151,513,-189,1,0,53,25,160,1,53298,1
2,31426,34058,31821,80093,6514,-216,9295,-3763,2584,14486,27377,40,494,-228,1,0,53,25,200,1,53298,1
2,31440,33941,31887,80094,6537,-6003,6650,-2608,5295,22236,32767,-61,413,-259,1,0,53,25,240,1,53298,1
2,31512,34714,31973,80095,6559,-17214,5179,-2991,4233,25850,32767,-85,319,-285,1,0,53,25,280,1,53298,1
2,31561,34604,32011,80096,6580,-15584,-2192,-1860,-7954,22329,32767,-84,302,-252,1,0,53,25,320,1,53298,1
2,31494,34425,31966,80097,6600,-4148,-536,-952,-15423,8854,7568,-63,283,-245,1,0,53,25,360,1,53298,1
2,31540,34617,31968,80098,6620,-859,2390,-2153,-10598,2359,1588,-46,286,-248,1,0,53,25,400,1,53298,1
2,31562,34645,32083,80099,6641,-1321,446,-2706,3557,4352,12015,-47,273,-271,1,0,53,25,440,1,53298,1
2,31574,34640,32112,80100,6662,-3473,364,27,20399,6915,17916,-44,256,-286,1,0,53,25,480,1,53298,1
2,31535,34563,32036,80101,6682,-2815,779,1471,12076,5684,10670,-44,244,-288,1,0,53,25,520,1,53298,1
2,31559,34549,31995,80102,6702,-2111,-283,287,-10321,1356,-670,-52,260,-274,1,0,53,25,560,1,53298,1
2,31433,34374,31880,80103,6721,-1909,1151,-872,-14309,-3772,-9319,-52,264,-252,1,0,53,25,600,1,53298,1
2,31499,34580,31975,80104,6741,-1267,2137,-1594,-7543,-5844,-11233,-65,277,-249,1,0,53,25,640,1,53298,1
2,31500,34584,31979,80105,6760,-1663,2467,-1573,-878,-5729,-10007,-64,286,-252,1,0,53,25,680,1,53298,1
2,31489,34546,31969,80106,6779,-2597,2549,-1115,2710,-6064,-10134,-66,310,-252,1,0,53,25,720,1,53298,1
2,31511,34470,31924,80107,6798,-3135,2484,-1262,-6,-7385,-13116,-75,331,-243,1,0,53,25,760,1,53298,1
2,31467,34378,31931,80108,6817,-3241,2968,-1334,-2119,-7797,-15229,-63,353,-229,1,0,53,25,800,1,53298,1
2,31503,34529,31964,80109,6836,-3433,3214,-1282,-2383,-7739,-14607,-58,368,-222,1,0,53,25,840,1,53298,1
2,31505,34520,31948,80110,6855,-3883,3552,-863,-3086,-7780,-13157,-35,395,-205,1,0,53,25,880,1,53298,1
2,31514,34505,31948,80111,6875,-4335,2306,-640,-5741,-7490,-12328,-23,413,-197,1,0,53,25,920,1,53298,1
2,31519,34539,31968,80112,6875,-4851,1289,-522,-5504,-7867,-13184,8,426,-176,1,0,53,25,960,1,53298,1
1,31524,34480,31946,80113,5955,-5174,938,-467,-2072,-9040,-14809,34,448,-160,1,0,53,26,0,0,53298,1
2,31517,34516,31952,80114,5975,-5092,829,-480,1340,-10099,-16149,65,457,-147,1,0,53,26,40,0,53298,1
2,31504,34426,31941,80115,5997,-5140,907,-424,2297,-10065,-17091,107,463,-119,1,0,53,26,80,0,53298,1
2,31484,34167,31910,80116,6019,-5453,867,-107,751,-9431,-17962,144,466,-106,1,0,53,26,120,0,53298,1
2,31496,34227,31907,80117,6041,-5931,411,233,-2452,-8435,-19160,193,469,-97,1,0,53,26,160,0,53298,1
2,31496,34273,31905,80118,6064,-6050,101,520,-3373,-7972,-19984,231,459,-83,1,0,53,26,200,0,53298,1
2,31515,34166,31907,80119,6087,-5439,587,458,-1618,-8608,-19553,257,441,-79,1,0,53,26,240,0,53298,1
2,31510,33959,31896,80120,6110,-4471,1362,257,-292,-8665,-17383,282,436,-80,1,0,53,26,280,0,53298,1
2,31560,34573,31936,80121,6133,-3488,1946,-260,-1322,-7158,-13214,294,422,-84,1,0,53,26,320,0,53298,1
2,31513,34365,31891,80122,6158,-2855,2401,-881,-1439,-4400,-7009,295,419,-83,1,0,53,26,360,0,53298,1
2,31471,34065,31860,80123,6182,-2393,3484,-1650,478,-246,1235,282,436,-88,1,0,53,26,400,0,53298,1
2,31508,34116,31900,80124,6204,-1422,6835,-2822,2479,5696,12435,242,460,-80,1,0,53,26,440,0,53298,1
2,31564,34448,31961,80125,6227,-2360,9125,-3831,2865,14438,28096,162,470,-102,1,0,53,26,480,0,53298,1
2,31589,34527,31945,80126,6251,-7051,7955,-3252,2982,24213,32767,38,466,-144,1,0,53,26,520,0,53298,1
2,31529,33338,31947,80127,6275,-14574,5829,-2204,2486,30342,32767,-53,399,-201,1,0,53,26,560,0,53298,1
2,31515,30868,31973,80128,6297,-18934,2304,-1841,1399,29502,32767,-74,322,-224,1,0,53,26,600,0,53298,1
2,31534,31146,32010,80129,6318,-8079,-392,670,3190,18944,32767,-69,289,-239,1,0,53,26,640,0,53298,1
2,31522,32420,31958,80130,6339,-4734,-413,417,2489,11403,18251,-60,282,-242,1,0,53,26,680,0,53298,1
2,31520,33780,31985,80131,6359,-3414,-134,461,4929,8333,12422,-41,273,-269,1,0,53,26,720,0,53298,1
2,31472,32940,31928,80132,6379,-2592,-664,693,7060,6023,11359,-35,267,-263,1,0,53,26,760,0,53298,1
2,31435,33925,31890,80133,6400,-2225,-519,975,6328,4270,8847,-36,262,-278,1,0,53,26,800,0,53298,1
2,31425,33115,31878,80134,6420,-2101,-660,719,-1632,1668,2444,-42,262,-270,1,0,53,26,840,0,53298,1
2,31418,34003,31855,80135,6441,-2346,-378,-317,-7520,-2309,-5462,-43,273,-259,1,0,53,26,880,0,53298,1
2,31391,33216,31830,80136,6461,-2446,920,-1087,-5173,-6115,-12999,-49,301,-251,1,0,53,26,920,0,53298,1
2,31397,32912,31860,80137,6461,-2868,2252,-710,1348,-8615,-17005,-55,321,-275,1,0,53,26,960,0,53298,1
1,31429,33006,31881,80138,5507,-4173,3039,3,197,-11367,-19408,-61,357,-237,1,0,53,27,0,0,53298,1
2,31445,33011,31895,80139,5527,-4406,3140,-363,-10667,-12610,-22861,-40,394,-200,1,0,53,27,40,0,53298,1
2,31477,33055,31893,80140,5548,-4884,2413,-463,-14284,-11843,-24413,-11,417,-183,1,0,53,27,80,0,53298,1
2,31495,33035,31908,80141,5569,-6228,1373,-85,-9126,-11557,-24801,27,445,-159,1,0,53,27,120,0,53298,1
2,31501,33020,31930,80142,5591,-6883,1185,-140,-1663,-13257,-25662,80,460,-140,1,0,53,27,160,0,53298,1
2,31497,32879,31922,80143,5613,-6762,1473,-58,3366,-14588,-26358,143,465,-113,1,0,53,27,200,0,53298,1
2,31489,33175,31916,80144,5635,-6444,1631,-90,2336,-14717,-26162,208,460,-86,1,0,53,27,240,0,53298,1
2,31502,33191,31934,80145,5657,-6365,1490,-342,-2338,-13123,-25329,238,436,-66,1,0,53,27,280,0,53298,1
2,31522,33329,31945,80146,5679,-5835,1361,-270,-4234,-10569,-23587,280,424,-70,1,0,53,27,320,0,53298,1
2,31517,33370,31941,80147,5700,-5025,1251,-407,-2112,-8173,-20093,294,398,-72,1,0,53,27,360,0,53298,1
2,31511,33406,31943,80148,5723,-3643,2090,-161,2763,-6458,-14398,295,387,-73,1,0,53,27,400,0,53298,1
2,31521,33460,31968,80149,5746,-2722,2609,-456,2642,-3655,-6813,297,397,-67,1,0,53,27,440,0,53298,1
2,31528,33450,31962,80150,5767,-2450,2580,-839,101,143,1114,286,406,-64,1,0,53,27,480,0,53298,1
2,31504,33499,31959,80151,5790,-1985,3764,-1988,1120,4502,9731,267,425,-75,1,0,53,27,520,0,53298,1
2,31493,33739,31953,80152,5811,-1741,7243,-2582,6325,10727,21027,214,454,-86,1,0,53,27,560,0,53298,1
2,31517,33724,31977,80153,5834,-3804,7955,-2820,5941,19545,32767,123,473,-117,1,0,53,27,600,0,53298,1
2,31580,34761,32034,80154,5857,-9251,6275,-1985,3369,27493,32767,11,443,-153,1,0,53,27,640,0,53298,1
2,31466,34124,31921,80155,5881,-15363,3406,-2030,1862,30019,32767,-70,378,-192,1,0,53,27,680,0,53298,1
2,31428,34213,31901,80156,5903,-14051,488,679,5490,25204,32767,-87,329,-223,1,0,53,27,720,0,53298,1
2,31407,34020,31887,80157,5924,-6129,27,1073,4487,13360,23522,-76,302,-244,1,0,53,27,760,0,53298,1
2,31378,33753,31850,80158,5945,-4203,-513,529,1111,8079,12810,-56,284,-242,1,0,53,27,800,0,53298,1
2,31364,33537,31840,80159,5967,-2729,-627,464,1769,5677,8631,-52,280,-250,1,0,53,27,840,0,53298,1
2,31375,33575,31860,80160,5988,-2384,-405,175,3113,3562,7147,-55,283,-261,1,0,53,27,880,0,53298,1
2,31407,34213,31923,80161,6008,-2328,-111,-48,1663,2230,4013,-55,279,-257,1,0,53,27,920,0,53298,1
2,31378,32173,31891,80162,6008,-2695,-537,440,-2813,-12,-1758,-57,295,-243,1,0,53,27,960,0,53298,1
1,31375,32153,31867,80163,5060,-3072,1034,-217,-5555,-3504,-8188,-74,304,-240,1,0,53,28,0,0,53298,1
2,31383,31850,31889,80164,5079,-2763,2444,-855,-4214,-6293,-13399,-68,328,-244,1,0,53,28,40,0,53298,1
2,31397,31083,31906,80165,5100,-3084,3180,-849,-910,-7784,-14996,-72,352,-222,1,0,53,28,80,0,53298,1
2,31455,30378,31969,80166,5120,-2521,3977,-1319,-921,-8169,-14874,-68,366,-206,1,0,53,28,120,0,53298,1
2,31376,31888,31883,80167,5140,-2764,3517,-1353,-991,-6464,-12554,-51,389,-207,1,0,53,28,160,0,53298,1
2,31395,32187,31889,80168,5160,-3163,3422,-1153,1214,-5485,-10096,-47,395,-203,1,0,53,28,200,0,53298,1
2,31379,33244,31882,80169,5179,-3324,3342,-1150,2724,-4767,-8198,-35,403,-193,1,0,53,28,240,0,53298,1
2,31444,34493,31957,80170,5199,-3944,2628,-641,3271,-4055,-6250,-34,414,-188,1,0,53,28,280,0,53298,1
2,31397,33116,31904,80171,5219,-3866,2365,-754,629,-4405,-5686,-18,414,-182,1,0,53,28,320,0,53298,1
2,31435,33993,31911,80172,5239,-3799,2095,-719,-631,-4298,-5518,-12,426,-178,1,0,53,28,360,0,53298,1
2,31414,34072,31893,80173,5259,-4014,1458,-354,-904,-4122,-4940,0,424,-154,1,0,53,28,400,0,53298,1
2,31433,33991,31898,80174,5279,-4372,1026,-91,-1642,-5165,-5433,24,434,-162,1,0,53,28,440,0,53298,1
2,31414,33621,31894,80175,5300,-4693,656,-179,-2404,-6549,-7103,34,434,-156,1,0,53,28,480,0,53298,1
2,31434,33610,31905,80176,5321,-4798,484,-199,-2078,-7523,-9296,71,449,-143,1,0,53,28,520,0,53298,1
2,31439,31770,31924,80177,5342,-4993,501,-191,-1190,-7856,-11447,98,454,-122,1,0,53,28,560,0,53298,1
2,31444,33911,31934,80178,5363,-5097,497,-149,-316,-7866,-13035,130,442,-116,1,0,53,28,600,0,53298,1
2,31442,32390,31907,80179,5384,-5494,500,160,-505,-7539,-14191,151,461,-95,1,0,53,28,640,0,53298,1
2,31447,32421,31905,80180,5406,-5429,244,180,-2097,-6940,-15517,189,457,-87,1,0,53,28,680,0,53298,1
2,31452,32190,31905,80181,5427,-5294,277,390,-1795,-6444,-15933,212,454,-78,1,0,53,28,720,0,53298,1
2,31446,31575,31899,80182,5448,-4926,528,295,-1310,-6104,-15258,239,451,-81,1,0,53,28,760,0,53298,1
2,31441,31613,31897,80183,5469,-4264,1076,-40,-252,-5247,-13387,249,439,-73,1,0,53,28,800,0,53298,1
2,31500,31943,31975,80184,5490,-3273,2860,-990,623,-2852,-9326,265,439,-83,1,0,53,28,840,0,53298,1
2,31402,31914,31858,80185,5509,-559,8351,-3765,924,3047,-104,218,464,-92,1,0,53,28,880,0,53298,1
2,31364,32719,31857,80186,5530,932,12184,-5693,4152,14940,18971,151,491,-133,1,0,53,28,920,0,53298,1
2,31414,32077,31901,80187,5530,-5244,9072,-4354,6207,29061,32767,12,458,-184,1,0,53,28,960,0,53298,1
1,31459,31603,31952,80188,4611,-14958,5709,-2409,6394,32767,32767,-63,381,-245,1,0,53,29,0,0,53298,1
2,31563,31573,32091,80189,4631,-21519,2629,-1725,4475,31664,32767,-79,305,-257,1,0,53,29,40,0,53298,1
2,31492,32096,31991,80190,4651,-7121,-1925,-626,3103,17307,32767,-63,283,-271,1,0,53,29,80,0,53298,1
2,31346,32679,31800,80191,4670,-4657,-733,481,-1783,12743,12883,-54,284,-266,1,0,53,29,120,0,53298,1
2,31285,32197,31735,80192,4689,-2789,-65,1038,-4703,8467,5961,-26,276,-274,1,0,53,29,160,0,53298,1
2,31269,31156,31740,80193,4709,-1979,-826,-495,2165,3392,6712,-21,271,-273,1,0,53,29,200,0,53298,1
2,31346,32313,31806,80194,4728,-1576,-331,372,10570,3099,7920,-34,268,-298,1,0,53,29,240,0,53298,1
2,31284,33305,31945,80195,4747,-2181,102,1104,6573,2105,4644,-31,263,-291,1,0,53,29,280,0,53298,1
2,31253,31295,31750,80196,4765,-2303,-376,165,-6386,-1170,-2462,-51,269,-267,1,0,53,29,320,0,53298,1
2,31232,29987,31733,80197,4784,-2793,874,-751,-11473,-5434,-11624,-61,295,-259,1,0,53,29,360,0,53298,1
2,31319,30379,31690,80198,4802,-2823,2338,-1588,-9064,-8717,-18308,-62,316,-256,1,0,53,29,400,0,53298,1
2,31230,31092,31694,80199,4820,-3207,2842,-1647,-1601,-9401,-19485,-63,349,-249,1,0,53,29,440,0,53298,1
2,31232,30685,31714,80200,4837,-3745,3182,-1530,3295,-9667,-18688,-62,384,-246,1,0,53,29,480,0,53298,1
2,31251,31070,31719,80201,4856,-3962,4080,-1195,3097,-10055,-17401,-53,401,-227,1,0,53,29,520,0,53298,1
2,31417,34625,31864,80202,4876,-4964,2410,-794,-1068,-9268,-15623,-31,429,-213,1,0,53,29,560,0,53298,1
2,31448,34762,31897,80203,4896,-5589,1707,-750,74,-10207,-15486,-11,453,-183,1,0,53,29,600,0,53298,1
2,31452,34795,31910,80204,4916,-5420,1923,-93,4621,-14111,-15875,31,463,-163,1,0,53,29,640,0,53298,1
2,31458,34806,31912,80205,4936,-5176,2008,93,3788,-16142,-15343,66,464,-138,1,0,53,29,680,0,53298,1
2,31474,34833,31915,80206,4956,-5367,1541,-118,-1836,-16189,-15428,108,468,-114,1,0,53,29,720,0,53298,1
2,31508,34882,31953,80207,4977,-5441,877,-383,-6825,-14540,-16640,156,466,-96,1,0,53,29,760,0,53298,1
2,31518,34903,31970,80208,4999,-5812,129,-241,-6608,-12540,-17880,190,458,-64,1,0,53,29,800,0,53298,1
2,31526,34913,31967,80209,5021,-5425,232,-112,-2768,-11683,-18594,227,449,-65,1,0,53,29,840,0,53298,1
2,31510,34890,31948,80210,5042,-4810,567,-423,470,-10907,-17759,249,433,-55,1,0,53,29,880,0,53298,1
2,31504,34896,31945,80211,5062,-3985,1204,-937,1460,-8835,-15190,267,421,-57,1,0,53,29,920,0,53298,1
2,31568,34990,32091,80212,5062,-3281,2604,-1319,-897,-4940,-10255,280,416,-62,1,0,53,29,960,0,53298,1
1,31622,35038,32096,80213,4163,-2240,5741,-2717,-4743,851,-1541,268,434,-68,1,0,53,30,0,0,53298,1
2,31613,35038,32101,80214,4183,-893,8770,-3983,-3347,9300,13909,215,461,-73,1,0,53,30,40,0,53298,1
2,31615,35064,32136,80215,4205,-3778,8329,-3748,2303,19316,32767,113,475,-109,1,0,53,30,80,0,53298,1
2,31461,33131,31945,80216,4227,-9217,6600,-2557,6437,28150,32767,8,440,-162,1,0,53,30,120,0,53298,1
2,31447,33583,31961,80217,4249,-14677,4061,-2087,4546,32767,32767,-77,381,-209,1,0,53,30,160,0,53298,1
2,31538,33230,32040,80218,4269,-15702,1853,-2,4041,30522,32767,-79,327,-247,1,0,53,30,200,0,53298,1
2,31494,31860,31999,80219,4289,-6865,266,1301,-720,18000,27719,-67,295,-249,1,0,53,30,240,0,53298,1
2,31465,30963,31949,80220,4308,-4383,-885,415,-1590,9151,17195,-57,271,-245,1,0,53,30,280,0,53298,1
2,31522,30576,32024,80221,4327,-3062,-755,478,2926,5990,12407,-39,269,-259,1,0,53,30,320,0,53298,1
2,31648,30313,32163,80222,4346,-2486,-610,434,2480,4246,9504,-42,276,-258,1,0,53,30,360,0,53298,1
2,31494,30175,32058,80223,4365,-1813,-1045,285,-490,2576,6187,-38,268,-258,1,0,53,30,400,0,53298,1
2,31473,30560,32019,80224,4384,-2161,-983,56,-2649,723,1027,-47,271,-245,1,0,53,30,440,0,53298,1
2,31318,33025,31833,80225,4404,-2565,323,-227,-4363,-2423,-6439,-54,276,-244,1,0,53,30,480,0,53298,1
2,31346,34611,31831,80226,4422,-2613,2028,-970,-3949,-6479,-13200,-65,305,-241,1,0,53,30,520,0,53298,1
2,31267,33393,31732,80227,4440,-2412,3225,-1741,-1480,-7635,-16038,-70,310,-242,1,0,53,30,560,0,53298,1
2,31417,34596,31885,80228,4458,-2748,3470,-1539,3187,-6970,-15407,-76,340,-234,1,0,53,30,600,0,53298,1
2,31402,34471,31872,80229,4476,-3414,3600,-1198,5235,-7458,-14156,-61,361,-245,1,0,53,30,640,0,53298,1
2,31428,34586,31896,80230,4496,-3439,3396,-1157,2824,-7987,-13757,-49,389,-233,1,0,53,30,680,0,53298,1
2,31446,34602,31908,80231,4515,-4463,2018,-877,286,-7603,-12855,-36,408,-222,1,0,53,30,720,0,53298,1
