cap1_mean,cap1_std,cap1_freq,cap1_skew,cap1_power,cap2_mean,cap2_std,cap2_freq,cap2_skew,cap2_power,cap3_mean,cap3_std,cap3_freq,cap3_skew,cap3_power,accX_mean,accX_std,accX_freq,accX_skew,accX_power,accY_mean,accY_std,accY_freq,accY_skew,accY_power,accZ_mean,accZ_std,accZ_freq,accZ_skew,accZ_power,gyroX_mean,gyroX_std,gyroX_freq,gyroX_skew,gyroX_power,gyroY_mean,gyroY_std,gyroY_freq,gyroY_skew,gyroY_power,gyroZ_mean,gyroZ_std,gyroZ_freq,gyroZ_skew,gyroZ_power,label
0.6285483494218471,0.01612890305909125,-0.13801841279360794,-1.3586592680301468,30.82401589344238,0.6285076672797718,0.016125263091439967,-0.13790846884258423,-1.35849671096807,30.819911055976096,0.6284654953109532,0.016122902321832305,-0.13795301849051544,-1.3584982102468635,30.815760681548714,0.5385448826855744,0.0003866430841323964,0.021679476792119567,1.3642939686437419,21.780905888237232,0.48397929675334506,9.413954874367005e-05,0.009142099508653023,1.3454327015394283,17.574663303046712,0.4294061333834684,5.5243342861157196e-05,0.007287327452595471,1.398198476119602,13.833310061422305,0.4499685340498946,5.577869534234235e-07,-0.00015989489859519201,-1.7788229614677324,15.185417398860402,0.5377486476631431,6.459477625416259e-07,0.0027043928840093656,0.39603829776511984,21.688068404899866,0.4344717103264394,1.4058490315534327e-06,-0.00017034509204993942,0.0743503283701345,14.157529063376941,2
0.6273175124806866,0.005213898766962113,-0.36662557974954646,0.769279542877109,29.900373118626934,0.6272706934897927,0.005211930356326224,-0.36621545097702823,0.7692714077128038,29.89582206470554,0.6272303123482431,0.005211049870312796,-0.3663309473547931,0.7683851032114639,29.89195754503875,0.5386914864691598,0.000124883051565435,0.05102196234550338,-0.7301829173266874,21.773380165392307,0.4841527134337924,3.119369273759714e-05,0.030164137216342257,-0.7566428307034563,17.582597077660377,0.429434971282989,1.8021907368269184e-05,0.022683617516014554,-0.5064308814839025,13.832413213206873,0.4500079438699397,6.733690816393781e-07,0.0014132641017152725,-1.2005660493168644,15.188086045265852,0.537561701161351,2.6889501707728874e-06,-0.00539266898588342,-1.8151552194247988,21.67314267397406,0.434518355194299,1.9580941668157547e-06,-0.00010798548907187122,0.1530688232961372,14.160609974025272,2
0.6329235392778022,0.001185097549149778,0.029247293558607668,1.9109687998840332,30.132112711532557,0.6328479053702466,0.0011852765928429246,0.02883745907249169,1.9142479669238526,30.12494581773351,0.6328250165242736,0.0011857640089029486,0.02847042442974379,1.9149070901544865,30.12280915207985,0.537302085390507,5.320066403334191e-05,-0.013332864017561175,-1.3921008709134008,21.655951671512536,0.4838329608207667,3.113429891972575e-05,-0.015004108556854023,2.0985409113034352,17.559378986364273,0.4285654337063744,4.892304410998678e-05,0.002017576453956227,-3.8101986861637553,13.778745127859102,0.4498503463424514,7.316836566469172e-06,0.011373840788513279,-0.9150537229929011,15.17794150373768,0.5375984199585866,2.6918364715248022e-05,0.008529357838788276,-1.3240694913928959,21.67789654463658,0.4345792911629337,7.3017176783693105e-06,0.014429819165564517,0.22830527238062748,14.164977350184039,2
0.6257817428173794,0.00033303855549355786,0.05326275181026385,-1.9587508313590485,29.39485407637329,0.6256955630385189,0.0003327109749292892,0.05061397626307551,-1.9515063283377792,29.38674093260147,0.6257027373791687,0.0003332858550551518,0.05127373823728143,-1.9540076999462404,29.387456820557954,0.537430755355638,0.004745949845799146,0.04890938933564773,-0.6812493866788533,22.013586548749007,0.48437575335146915,6.12693380775399e-05,-0.016082841706887674,1.1910863726881897,17.601024213627976,0.42838166296629443,0.0030092498462184706,-0.010678822287342848,-0.38508653062729886,13.985998176052757,0.44955545576538175,0.00010674228880077648,-0.006570230475872574,-2.041855107829741,15.165407015002762,0.5382042649181659,0.0002977250365557437,0.06164748341664539,-0.6214161118180549,21.74681896091287,0.43396393116155185,9.344166722442396e-05,-0.07182506277172712,-5.506143413497762,14.131266699563714,2
0.6297531342924194,8.230407630739042e-05,-0.02840950139149856,2.111963370621796,29.7502662629812,0.6297671707824603,8.24981436946748e-05,-0.028364233162285202,2.078678878132824,29.75160656728425,0.6296571387062481,8.277411487363261e-05,-0.028101312783488708,2.083252721957727,29.741233708781103,0.5393547350280198,0.005160760908879485,0.0008929963170800637,-0.6097761786437098,22.19966107204299,0.4839882108264291,7.889974439622171e-05,0.005201614585213898,0.5068708735936194,17.574182697507915,0.4302880322922789,0.0036468960278299785,0.015203345091322262,-0.20966934229265027,14.155954611106518,0.45029980708753586,0.00013378632339024313,0.010212321359919951,-1.3325385065341389,15.217643907661277,0.5371249537701773,0.0004648381566372714,-0.02478377625896988,-0.710949949496259,21.672139220787308,0.4354925554697601,0.00019773359659078324,0.017850068033995137,-1.8816421702650061,14.238664726366377,2
0.6280608119711958,1.9747670384137155e-05,0.016089839493581448,-2.211292282401794,29.585990092652256,0.627991663030307,2.027185101239204e-05,0.017007999087344405,-2.0934345749885988,29.579514779642718,0.6279810407573213,2.029796838906502e-05,0.015924302243237265,-2.1060417407298773,29.578516115959435,0.5382193075861542,0.005248567653698783,0.004920345737975396,-0.5582608479510777,22.114395735762656,0.4839658374156999,8.282678413024853e-05,-0.0006338656147353294,0.45699971702662706,17.572849065936605,0.42903020455615454,0.0037293667039995163,0.0032141110919107763,-0.1569678243050941,14.08099186770815,0.4499772878835072,0.00014705817329307045,0.0064458326190019455,-1.2481756258629075,15.196849275648452,0.5380679250580231,0.0004896611388497136,-0.008776461470189845,-0.726988763952257,21.75001682249335,0.4342245446171475,0.00025656358963933607,0.01949358089361969,-1.4627141123803584,14.160307341730997,2
0.6287403055240796,4.800479504239744e-06,-0.010398300286470152,2.1055116953693016,29.648933119771787,0.6286766980548596,5.500192176018537e-06,-0.0131947309372622,1.6755058245418726,29.642986315008113,0.6286531662478917,5.23599157929707e-06,-0.010359003961927016,1.9343653535461847,29.640747720889326,0.5385377171053812,0.005277619677227198,-0.012312466334894911,-0.5653623954140352,22.142259311995492,0.4840313339128439,8.330313513722937e-05,-0.0016639186417678475,0.4332387724223205,17.57763934770869,0.4294145389651188,0.003755005104512016,-0.016888959739746856,-0.17226884083300012,14.107633848330805,0.44981755658856076,0.00015372441467927363,-0.011497454101640159,-1.1592622206146632,15.186563172833996,0.5376649995928802,0.0004988333009450589,0.006585858034000469,-0.6628243625743513,21.718187548310826,0.4345116704146318,0.00026517908025697304,-0.007437750848481861,-1.417843082177027,14.179652631427532,2
0.6285151574953727,1.7231137901560645e-06,0.009171280922887992,-0.7562481863829263,29.627475250527958,0.6284079533968623,4.101057786846611e-06,0.00682425384955665,-1.0371639485259023,29.6175451702087,0.6284385910724216,2.0105328922109607e-06,0.008145221465662433,-0.10224271666449604,29.6202784856158,0.5378451925233555,0.005318574942000361,-0.02732608914359491,-0.53200522936221,22.08938337974444,0.4839161960856074,9.844639729654942e-05,0.015408336158370894,0.2635917866647828,17.570401395947247,0.4287351400087537,0.003780723025269842,-0.032103688757262494,-0.139614206923506,14.065810024744394,0.44989397327254577,0.0002171157444620785,0.046560401991239675,-0.5446412891952284,15.196410604112058,0.5378817660312558,0.0005119672594017178,0.022729950603479154,-0.6536121531245933,21.73664514436342,0.4342893176818715,0.0002695787655560399,-0.01092581204353471,-1.349646562939258,14.165489687595059,2
0.6285468408528089,1.365299299373785e-05,0.010201191104025953,-2.2296250102676605,29.631345157435003,0.6285355774287625,7.360784189175249e-06,0.004842099691042101,-0.5489498453342366,29.62981760505808,0.6284551340485358,1.0394882895113134e-05,0.008574267165576188,-2.1229147741160967,29.62245838473148,0.53755460467527,0.007970121336979462,0.039702219447550924,-0.3672637047585873,22.262160454505423,0.4841484371049898,0.00013803810026226184,0.014883959494408072,0.22088805920990487,17.590193005759716,0.4287765099366995,0.006168856406178117,0.007981607407032631,-0.27315837295007345,14.245192534569425,0.44947870778065163,0.0003451367035403162,0.003020814672381078,-0.5030377399309484,15.177873272174317,0.5382643887420652,0.0009236432404755437,0.061993033357534366,-0.6994160812679471,21.79799101388537,0.434356612641969,0.000360098081280584,-0.06599139368772966,-1.4002435209087267,14.176572278950179,2
0.6284219270146678,1.811154772769777e-05,-0.003973630417072993,-1.1802703900536824,29.61989913099399,0.6284816516611171,7.425558999973964e-06,-0.0007093013579287932,-0.48950943025359284,29.624738476967433,0.628335804475803,1.4858456391133997e-05,-0.003634078262046425,-0.9555019118693209,29.611540764742028,0.5392849536903335,0.008182481684388777,0.010146839636965,-0.401470588716678,22.417623240403653,0.48398525575265183,0.00020426551431001116,-0.003780789308817978,-0.049942740105881914,17.583245232005925,0.4301744121424086,0.006810860804929387,0.017076477775396837,-0.25976463235136094,14.382755564219783,0.45031573829669186,0.0003700374653394986,0.005566743476122904,-0.5011555920493601,15.236202584262225,0.5372574623291325,0.0011073333766796825,-0.012077518899250572,-0.6938015647194552,21.73036123199973,0.43510796390195583,0.00044068786140442445,0.017186141906190888,-1.273684712445197,14.231531420561861,2
0.6286023092793246,1.8803053064899073e-05,0.00012069233317368866,-1.211510940539675,29.63695616827428,0.6284994354190558,7.583318415368812e-06,0.00028249269797198107,-0.48443706543498416,29.626426689718134,0.6285176545857055,1.54179892265737e-05,0.0013041718530087953,-1.0127899591009615,29.628724090646482,0.5382220690236956,0.00822904290503002,0.0015686250232820331,-0.36438744729900246,22.335173843783302,0.48397315938027985,0.00021012193204065255,-0.003568871164607912,-0.05589898426025447,17.582800448010737,0.42903093452396907,0.00687342817104562,0.00022785372150746497,-0.2185377374160516,14.313699393045642,0.44990452916229884,0.00037742412541265553,0.0006620298460044416,-0.43731929016326543,15.208985787336768,0.5378725431293911,0.0011326532737510862,-0.0075768020110659196,-0.713778502327902,21.781831791193486,0.434260825954304,0.00046057585382782915,0.004209286851442284,-1.1153324269286475,14.177767485071834,2
0.6285582222288187,2.304813174178982e-05,0.013803825807707115,-0.6597473316452602,29.633113466607885,0.6285972053611855,9.731440420865751e-06,0.011555344905787912,0.22985186060459478,29.635803620683077,0.6284747385528245,1.941047015834677e-05,0.013697196935133826,-0.4185045740547075,29.624973649719795,0.5385212957093647,0.008242051494062435,-0.008160573360732615,-0.37335704150985394,22.360300755497594,0.48396836131226306,0.00021264866631485495,-0.008570717926361215,-0.05523948496259388,17.582639107653094,0.4293482949415563,0.00689282614269153,-0.014669371486808969,-0.22873008829333277,14.335566012250801,0.45012539251057926,0.0003789497256732466,0.006641797998783061,-0.46812913897309394,15.22400745341005,0.5376266864189038,0.0011389423323764723,0.011501438877917103,-0.686185469372112,21.762465778828627,0.4345389718101224,0.0004636625246287541,-0.0034732043696647508,-1.1422505640143819,14.196119878457406,2
0.6283660642046095,3.7386053930157714e-05,0.005289517606870464,0.16629537389969407,29.6160598662902,0.6284586689871718,1.6531770228201766e-05,0.008303857452566787,-0.048825756548575766,29.623245747881448,0.6282397067013237,3.228531514743395e-05,0.0024097570159551385,0.3514837864318378,29.603773794033305,0.5394030158406076,0.00878654360730058,0.16542723579651897,-0.2792035129282814,22.47187523928594,0.4840221924233584,0.00029566099396312665,-0.04601498882239097,-0.22704295437596161,17.59269012042687,0.43045291905478583,0.007338263107448004,0.14914160796471826,-0.14692314437078818,14.4397601341601,0.4500838575577918,0.0004893975180240131,0.002216553305259883,-0.4372189319242795,15.229376328891469,0.53649929440846,0.001265022899676432,-0.08812771996714797,-0.6062467089944473,21.68097366213421,0.4344117631292431,0.0004779377841965276,0.022313489013228105,-1.0753526398938031,14.188885891909862,2
0.6286352837587075,4.12692801460679e-05,-0.0031056587180346984,0.13691611101255763,29.641727925710104,0.6285545436010411,1.7183967614171986e-05,-0.003415830656683494,-0.08925531037958058,29.63233268471694,0.6285399015022276,3.766116729792625e-05,-0.001962913041530956,0.36242916725670216,29.6324675099123,0.5400829366742129,0.00937995389067025,-0.3044472074436951,-0.3067382880690836,22.570834974407738,0.4847582661406988,0.0003471008238762625,-0.004586587258125496,-0.1072277644086731,17.64997870534709,0.4303985390114601,0.007943959213899418,-0.288552909101628,-0.2286862677882585,14.481070660568506,0.4491626104923324,0.0005850044767826527,-0.02327023728062766,-0.44587099188770046,15.174319131103422,0.5368224333552187,0.00158421259245211,0.07669790338464838,-0.6161609827262047,21.730606103347828,0.43430360373746235,0.0005307064094387862,-0.013115117297110734,-1.0442914204524454,14.185743790749472,2
0.6285040231453972,4.239236995174288e-05,0.0010055137447623208,0.16847701537048168,29.629435068622673,0.6286059719263694,1.890878913722322e-05,-0.0023941843982566713,-0.18701758054526754,29.637309346008305,0.6283686198622328,3.8036954459260155e-05,0.0012991999477729443,0.41222971156575905,29.61634891669753,0.5410293197583399,0.005429066599833663,0.14364563755317983,0.20504577186445405,22.35520529125058,0.48379833603823047,0.0004459591569989513,-0.06731015950806479,-0.22642186116511612,17.58756322411997,0.43040415697986323,0.004839905606151295,0.052321514797762037,-0.29421621956061594,14.251733390771205,0.4511472449502881,0.0005475161703222477,0.028145660874683065,-0.38713449209731166,15.305553943571487,0.5371568038874108,0.0012710108870092932,-0.04649130520423872,-0.7391996415300567,21.734362202829058,0.43547877377567423,0.000457162168541392,0.022568660778734317,-0.704244660319319,14.25696218115943,2
0.628550600186708,4.2788434037735885e-05,-0.0012512865797936756,0.147113598155983,29.63385561874912,0.6284525356432882,1.9011913234641254e-05,0.00033915986781651863,-0.09652736188828134,29.62285109831525,0.6284797160758654,3.889757641144108e-05,-0.0008804156478654512,0.35975798811959564,29.626884934564472,0.5393440936042095,0.006139433119999485,-0.011064494454413931,0.04101250546244428,22.271221898810943,0.48400695788539244,0.0008357357026347004,0.04013262340118512,0.20517748606789668,17.631549588105376,0.42968377958916515,0.004704715124700929,-0.025589903011157877,-0.29052787025645577,14.19526020238014,0.450607240072849,0.0006862926109224312,0.027416491352052208,-0.6777242104208194,15.27930201366352,0.5385071544897889,0.0013502454684916254,0.041038990003618214,-0.6887995349460216,21.849164822420075,0.4344615749146116,0.0004254188181476279,0.06310045751568832,-0.7361646646199456,14.188245498339269,2
0.6285378428697813,4.283086258848666e-05,0.0011301706131529032,0.15285192871042208,29.632655977786385,0.628527265619321,1.9074802498947872e-05,-0.0024888689241082673,-0.14434809888372596,29.62990080740247,0.6284840129291821,3.9608051993282154e-05,0.004621413883299175,0.3517064632069258,29.627342583915127,0.5391307498132557,0.006487830446583266,-0.08643121202175424,0.06984844460011799,22.27974685761241,0.48387697843353306,0.0011204042131290433,0.0923435423757753,0.13369218117936493,17.643179681118994,0.4302473858425481,0.00498552067780785,0.0376850960438318,-0.24153374281917553,14.252389506983771,0.4498660735447917,0.0008430584070975623,-0.047933636868803975,-0.4665487428669958,15.240847631620818,0.5388067809440618,0.0015757448013290775,0.08546993388563329,-0.4473853324394984,21.890061154646013,0.43493544379721605,0.0004222616829801351,-0.013292720017068327,-0.6429840290859224,14.218910384871622,2
0.6285632262055074,4.2858839090095165e-05,0.00021608813805795712,0.1408419001289389,29.635051254433357,0.6285358189261772,1.954982433361727e-05,-0.002636638157880733,-0.14153783084605506,29.630742362490707,0.6284798345274564,3.96276627909893e-05,-0.0009786499274895277,0.35351309550409626,29.626950127620955,0.5373231039821469,0.006647227802411137,-0.04870554756845785,0.11581718589380267,22.145603712854093,0.48483302235024134,0.0013019813012132458,0.03724051818807961,0.08970060267431254,17.726076083385006,0.42827401343623905,0.005125772372143115,-0.0644417101652669,-0.1725994583870519,14.13570444939738,0.4500325905699936,0.00088803519267662,-0.008568086774091765,-0.3902110154094211,15.255414547393535,0.5372860379546215,0.001626574056578748,-0.02957089692789794,-0.3406533845608623,21.77108797375995,0.4344758062716782,0.0004817901376957831,0.03229121176665989,-0.5423782388520416,14.193344437846351,2
0.6283349573067307,4.080615195378033e-05,0.009508180843396441,0.2161995043578381,29.613381048268423,0.6283859464298301,1.6420615289114453e-05,-2.7225873729053163e-05,-0.10639915323225352,29.616382450819902,0.6283172247380143,3.9025687136836817e-05,0.008032265733827204,0.41819251044243644,29.61157801853415,0.5400889266287427,0.006946871811291057,-0.26815074409554013,0.06348916964946003,22.391272164059604,0.48453060158202066,0.0018440212145584463,-0.03888987790276349,0.47466274176796147,17.74420036008494,0.430008320830655,0.005978672929658097,-0.38925680006938,-0.19987012385394698,14.310458495564662,0.44924624526618934,0.0008096352085948857,-0.00968815250490268,-0.48837743975526143,15.196577171868709,0.5387004016040927,0.0017565023095669212,0.1451289433630597,-0.28820445534912736,21.894840372538763,0.43400987598414986,0.0005656732081200584,-0.06481213994597801,-0.5986896193217753,14.169202751284166,2
0.6282864462692648,2.7403005613212462e-05,0.002250640952354055,1.0268269304956654,29.60781721484002,0.6284894728107742,1.4908146413001608e-05,-0.0005322364540948366,0.05874248729789992,29.626029510381933,0.6281443640676576,2.8880398248701298e-05,1.6562391918273356e-05,1.05690426099618,29.59453780771756,0.5410718474456788,0.0048481008203878255,0.12466272390605782,0.49497501617562517,22.31566526807969,0.48249935773307556,0.002018581718312989,-0.13911376196655367,0.30630405164576924,17.609797313117443,0.4320154260293547,0.003839145719880828,0.07526858653890461,0.2270438583628792,14.281896407820541,0.45132710447267255,0.0008537266657407098,0.021564163693564953,-0.3410387532019049,15.340387415641313,0.5369738897713606,0.0013687577359244173,0.009819341970304762,0.04097756896619652,21.726859944672302,0.43565856773400885,0.00045668010273092544,0.01729922308558579,-0.4260381774509904,14.26867340060569,2
0.6286616977810595,2.5118841398043418e-05,-0.0034889962291840826,1.0282387583991601,29.64302356353577,0.6284794795034976,1.4904833064390013e-05,-0.0010941224957753404,0.0668095447256845,29.625087169420805,0.6286017538951716,2.701448346777749e-05,-0.002856264772412187,0.9947539061863364,29.637511446783062,0.5382456081518215,0.005027539346309959,-0.050348417969236225,0.492113035580498,22.100163013731255,0.4842030588081003,0.002429089026667179,-0.002993252211487163,0.44252798359253215,17.76369774990742,0.42920301199892613,0.004306727104482997,-0.04534816702454403,-0.035909073367732844,14.13483971890302,0.4501010872239462,0.0009363549661645414,-1.673088431369818e-05,-0.39919924043379446,15.263614421509558,0.5380514538106462,0.0014290065800960934,-0.020255295958329422,0.10920713950956133,21.818199008008353,0.4339800808763848,0.0004668000591866256,0.02664157404103029,-0.3790574796225376,14.159946499190319,2
0.6285007456789788,2.4660278566261795e-05,0.0005946921527220095,1.1436238015632723,29.62781390954133,0.62852216604736,1.530530940262745e-05,-0.0016110763321273147,0.04907072276087483,29.62914108386067,0.6284085463211364,2.695207302731689e-05,8.554702069041298e-05,1.0985653543039329,29.619292035112316,0.5379074626214457,0.00565777677379082,-0.029616953990232675,0.5005251489426101,22.119508357048673,0.4847014531771104,0.002635439571891897,0.06326312406787488,0.3941519789554516,17.81518493172019,0.4291215957912327,0.004802581734308815,-0.0032169164210613665,-0.018517526122581708,14.166291846419913,0.4498727980578092,0.001060358260309825,0.021282248768901224,-0.3270227540222284,15.25738159369011,0.5381597628784741,0.0015416129093646293,0.022800502725987548,0.08262939358917111,21.835274133899137,0.4341337910657025,0.0005106249353516389,-0.03316049253518594,-0.3417212019433745,14.173197386096957,2
0.6283108615171252,1.2583916834416351e-05,0.013751892468125582,-1.0334782202686,29.609021612375166,0.6284072787532785,1.145988494417062e-05,0.005295000254948112,-0.24561192857092412,29.618026130743427,0.628179225983922,1.6421381200897644e-05,0.010504464114203138,-0.16389748147204825,29.596900679040814,0.5394854516829817,0.006609136914630318,0.22951729076874838,0.4669228097165427,22.31741757500195,0.4824086471747596,0.003450538656214562,-0.1607737229604319,0.052921210829053184,17.70919757573351,0.43053628035518055,0.005143383113623253,0.1235588398262682,-0.028235231224291356,14.282722003063725,0.45064371946005394,0.0012194550266330202,0.09953655230358416,-0.3842970442971128,15.321221813630226,0.536777473330839,0.0015591019871170134,0.04806781995656656,0.16593192623488007,21.725127737704625,0.4346139836972209,0.0005777315995311605,0.03655013822630404,-0.3527567804309641,14.209450750252918,2
0.6284897696066588,3.5824847236497587e-06,-0.0038182055991262676,-0.9333291657163943,29.62521939138687,0.6284422442419336,7.917381472612873e-06,-0.0009438957085903255,-0.09848125286171226,29.62105996231683,0.6284474312926922,7.432832847685402e-06,-0.0044550790100486015,-0.1710527198988872,29.621513072009463,0.5369313696850397,0.00638821920527565,-0.047299668472183864,0.3893033646842477,22.094875402579362,0.4847835996509007,0.003978139670792252,0.006629499200968558,-0.10946359633338626,17.92051772242498,0.4289448944858334,0.004786153598374723,-0.08044690585381004,0.037135692573346396,14.153704554189433,0.4492443116812054,0.0013719398612682535,-0.07923018988942865,-0.35754798490823764,15.238057418077856,0.5377652173297629,0.0013945419020044876,-0.07551827609081774,0.06570595348316692,21.79255327347785,0.43349390701309704,0.000586829715720262,-0.000595879973262825,-0.27165079753292387,14.13719795527427,2
0.6286349189704736,1.4847963373627593e-06,0.0006528664853573396,0.2265432364457658,29.63874947610501,0.6286809208078755,6.7319710389656195e-06,-0.002368705755700584,0.16556840282618882,29.643475679944764,0.6285331867569006,5.438230744003987e-06,-0.0013000119131568733,0.13584490057224144,29.629449943183918,0.5371700686137392,0.006834706640742978,0.10583059293074798,0.3991954407055731,22.147144487501677,0.48554103329578774,0.004144925409696286,0.024408662603505438,-0.14183910704595015,17.987981606363117,0.42836478301544806,0.0046632102373817845,0.04691279309543522,0.08608956516637899,14.107306607156648,0.45051121272888234,0.0013956127974431068,0.05869318868503598,-0.39756623501096067,15.32530180659441,0.5382490717600122,0.0011787930025616393,-0.0012249811145430556,0.4925547523437214,21.81563542597818,0.43393966854056437,0.0005712944917328867,0.011752496492663467,-0.17825103735647974,14.165048487370347,2
0.6285468947992232,1.9599791218684123e-06,-0.003707029448576371,0.7794146450653526,29.630484960585953,0.6284819533429807,6.707817636693321e-06,0.0012330441906596157,0.2447898468567852,29.62471380434077,0.6284243722642345,5.5817264904630005e-06,-0.005319939376364657,0.13506911135135496,29.61920242193758,0.5382823968885788,0.005696503398475833,0.2120967194996844,0.3584493377087795,22.152636661495727,0.4849839650209566,0.004188470318548767,-0.11744362800120295,-0.14880985996168533,17.95065527813124,0.42930690889644374,0.004662523591905872,0.09355764073284412,0.02022139693098184,14.167858397767485,0.4510729932477067,0.0013690028095735577,0.0737063093111297,-0.22417141217130165,15.361319600716861,0.5367892221441845,0.001119998220683602,0.029886711670378818,0.5441403360964562,21.693580044092485,0.4340742839845649,0.000524335681547055,0.033336170741689986,-0.2590572648464998,14.17033714168793,2
0.6285551056990462,2.3102352849010207e-06,0.003559194570644464,0.7171781221747037,29.631285024936513,0.6285165726370662,6.536337374649177e-06,0.0004900036190257362,0.2682000338892911,29.62796484492407,0.6284866305861312,6.061066077577498e-06,0.006043556672375883,0.1421234246046325,29.625106880802857,0.5388344099381036,0.0055379969238905395,-0.0071864400817533425,0.36301222445678977,22.185500872368713,0.4829245410415764,0.00398677271725206,-0.01715458465537456,-0.08311686235061524,17.786229606592933,0.4297977507239138,0.004785537073984663,-0.034472601196461505,-0.013219646715689962,14.208587733025032,0.4500905803941575,0.0013520210803429956,-0.059205807834305735,-0.18498038674399653,15.293664351911598,0.5383240671256737,0.0010068774367106355,-0.043551999056508195,0.5726866536238506,21.808969023821096,0.4347139350157777,0.0005093920771409142,-0.014000280137574594,-0.35714423962755676,14.210910410976059,2
0.6285418306599778,2.4801133370586716e-06,-0.001167801594899598,0.7191798165998635,29.630045995091667,0.6285038320314299,6.492657339813941e-06,0.0023030406154875838,0.27642611566278813,29.62676047250753,0.6284378899920331,5.841722527216302e-06,-0.00228222016573687,0.1336403944356925,29.620495905789916,0.5383655243278571,0.005876929402393711,0.03175702244408307,0.3604054810699128,22.172700609637776,0.48420845728976625,0.0039488317610757205,0.11510671826338947,-0.12465639461161003,17.87655080863976,0.4298788005272391,0.004777649228397945,0.058507241757301265,-0.012202405276965858,14.213229778606784,0.4510260438346346,0.0015291921560653737,0.08401006085096246,-0.1700537050336601,15.369997135832973,0.5376150440483045,0.0007962109532251016,0.021552085731147752,0.4452005229846981,21.736164779568202,0.43464076495701043,0.0005365267585606796,0.009894012711497535,-0.3400984856124251,14.208147572314633,2
0.6285574008432365,2.689898909891363e-06,0.0031618717579571243,0.6440734094833694,29.63152951412971,0.6284486010474521,5.7453465998527665e-06,0.0035809931839244635,0.3379107212510062,29.621498467535872,0.6285022154827231,6.190343582243373e-06,0.004397011434152165,0.10588610351721453,29.62658570042694,0.5405228775450893,0.006367379594346731,-0.005452370170480059,0.32854671779198047,22.383559676203426,0.48299007286424844,0.004122861460371353,0.03496469973036742,-0.10966259237432804,17.80104753447338,0.4293710918837028,0.004535627341760315,0.02571630023881749,-0.1420864576170198,14.162601514195506,0.45038398992659573,0.0015532696685071309,-0.03184352895011461,-0.17477767901098634,15.32837233413452,0.5388923114666063,0.0007692795811378658,0.014986496337753508,0.48252260979681516,21.83729594084084,0.43468747898159193,0.0005540780139092238,0.0025488569584026233,-0.29492180231137,14.21249210178218,2
0.6286050239687968,2.9234947035297463e-06,0.0005036524428473355,0.6013674864165436,29.63603705051893,0.628641929445409,5.5273301918627364e-06,-0.003978243598827369,0.2438818636717531,29.63970968169768,0.6285173188570232,6.5613613400971305e-06,0.0008873664701727346,0.14191526100046203,29.628037048480746,0.5373360188132111,0.006764466851864134,-0.013001189544341374,0.3053252188497677,22.155320330590325,0.4846803118476836,0.003819254155292965,0.045374801252671404,-0.35172222242170814,17.901250159449273,0.42802914445664064,0.004061658128078937,0.023757329974892327,0.08896441723261542,14.041233839299126,0.4496046890662953,0.0015847847329539422,0.019576088899531663,-0.14374457970296298,15.278102302518594,0.537750372793777,0.0006247966508674734,0.0061663666416816865,0.211076511913261,21.734394710152653,0.4342015696245855,0.000494025319736007,-0.03980067810458099,-0.008518754947210796,14.176383103494501,2
0.6286369470973561,4.647831186742736e-06,0.000523358530098994,-0.26145482565741557,29.63917478369912,0.628585134478822,5.781489395462316e-06,0.0021881696998543587,-0.12332474120815728,29.634373176797165,0.6285108928280709,8.076273423487173e-06,0.000603965619049851,-0.14974591763267125,29.627543324498756,0.5378007019337833,0.006595037242890393,0.08111169171959609,0.2827604112228627,22.18025238100913,0.4845614586531331,0.0039652163402786765,-0.12187990788749042,-0.4448743212486966,17.903411550084535,0.4291022857594118,0.0033544457899541726,-0.07809295837207636,0.12350983667022875,14.057886861752996,0.45020185861424106,0.001418698959961733,-0.022771999354107786,-0.1789882900900102,15.306112235515947,0.537302388728302,0.0005576346048321398,-0.01646271321998638,-0.1596069053159355,21.693304230743035,0.4337789675488613,0.0005472633145546555,0.006734101762573608,0.11397508832172108,14.152811936858747,2
0.6284755492022757,4.901894778951405e-06,0.0010910435225635062,-0.08470458918054403,29.62397643609628,0.6283994244467954,5.5762154755049456e-06,0.0005933378954712243,-0.03314685877126786,29.616850388324973,0.6283636545189705,8.375199186672022e-06,0.0021941939347326356,-0.04387771010757714,29.61368593877252,0.5419039158436586,0.007193714134801297,0.053192845847183534,0.2242194238076037,22.556823896477127,0.4823536712463718,0.004144850957446492,-0.10682399101435491,-0.45389062329935004,17.756598783215008,0.4318208198673367,0.0035334077119930384,-0.0736704792073713,0.20614141905711647,14.246663706004904,0.45092272283260115,0.0014334670145383793,-0.02613052956034778,-0.2224364806490755,15.355924206583365,0.5378753584505077,0.0006636311977591675,0.06598770065847814,-0.12463719957496676,21.74735130075383,0.43498482641176767,0.0005330052789449552,-0.018355114346083667,0.05779678623094835,14.230327331277593,2
0.6285844570706624,5.073416943626015e-06,-0.000787863800941091,-0.16764290575200416,29.634256908165288,0.6286126149419127,4.955228149294958e-06,-0.003910195632710445,0.021384881622828776,29.636903161691244,0.6285041541001333,8.403584402262254e-06,-0.0013147389083297822,-0.10835533784049634,29.626932244330067,0.5367547416512664,0.0067614107156410514,0.03049328618539171,0.34286030300212533,22.108268344341262,0.4846400783787688,0.004136435957103771,0.0012959592541966214,-0.5167853500885865,17.921796678649123,0.4285627058542682,0.0033181134553483594,0.0005056184092789295,0.22500892467160308,14.020489859380678,0.4493411658063682,0.001334054308607818,0.056970347390900455,-0.1424917566662861,15.241781265453941,0.537298149771504,0.0006449005172186602,-0.0018564751862614193,-0.09717550423263115,21.699420269365305,0.4340031079556949,0.0004934975325134288,-0.004784989013484453,0.1556243796735991,14.16342114604619,2
0.6285111274856422,5.037378989183469e-06,-0.0014418262826922934,-0.08936308200432404,29.627340569040687,0.6284638001028882,4.0221113655193985e-06,-0.005182909436475036,-0.10324295055268243,29.622803739223283,0.628427957640899,8.10915720690064e-06,-0.0006638606496600641,-0.040027890244068075,29.619727423486673,0.5384553185682361,0.006444295754266226,0.08317049348640831,0.3481989013088392,22.22193764289724,0.4850597417873113,0.0034925230940004363,-0.08697818824182046,-0.39732762667904,17.904668191664022,0.43010231758264145,0.0033811883334903363,0.025162152717506325,0.1637857663901243,14.124308205925235,0.4506976507754153,0.0011527950919622133,-0.010088015317877286,-0.06053475417658447,15.319934767891066,0.5381142050018162,0.0007353209331636258,-0.010480254849987714,-0.10013031533388743,21.771931070909343,0.43433980072309786,0.00045235769082246116,0.01758416122956985,0.19528285090956066,14.182304156034387,2
0.628553939201539,5.2918055227017806e-06,0.0014532658412861332,-0.10683924117664874,29.63139568004158,0.6285530905575135,4.230525646835634e-06,0.0018179233459032496,-0.11526346546545854,29.631237132602998,0.6284358916839539,8.248574632696794e-06,0.002168394948793617,-0.0608439366138504,29.62048564126829,0.5417038697621686,0.006594947813831756,-0.010055296133418878,0.3457788910688203,22.49625732687168,0.482641033233361,0.0032625112121984507,-0.02361281689617678,-0.3301262254675983,17.712103351745153,0.4318456153063041,0.0035937292234194938,0.022077701239408498,0.19066304986504592,14.252733621979065,0.4505679069019873,0.0010173654578289684,-0.012353723781676262,-0.032071778134373764,15.301142948632181,0.5375629753603957,0.0007600339742668837,0.04814547784000711,-0.002257739379373928,21.729288949969856,0.4351577509844756,0.0004935554646529416,-0.005614953174497339,0.2437443162554478,14.238693222524336,2
0.6286015367089822,5.168696235329073e-06,0.0018405629296658343,-0.14795158215400886,29.635874379988458,0.628544307407303,4.360990272121296e-06,0.008989504692319294,0.2125485364962446,29.63041869133961,0.628545304595062,8.018734072486116e-06,0.00022443009904959954,-0.1584777488590529,29.63078338095881,0.5378439790551245,0.006183576463714272,0.011897142947392025,0.41787872605465254,22.153295593753544,0.48451729963001433,0.003088550111126647,-0.030422501331604124,-0.3362164157654463,17.835328731280452,0.42912134412149167,0.004009993662257299,-0.008239056013426505,-0.012643147482131184,14.107624129554713,0.4502455105477629,0.0009650502563024879,-0.019257750139108964,6.381447907447822e-05,15.275490201597554,0.5377873226327591,0.0007745257201247114,-0.0040850196882397105,0.0050351204296315705,21.748455232127586,0.4345423938687018,0.0004792745922527125,-0.016440724182163746,0.2492968598204432,14.197498225012346,2
0.6285226546645688,4.669008739702721e-06,0.004337977923178915,-0.3386819289496863,29.6284000636415,0.6284771537431532,4.770991801679255e-06,0.0025266927736727895,0.2572811871388726,29.624118011675453,0.6284591749585602,7.759152841629594e-06,0.002329759501153994,-0.26666156867144075,29.622644271529843,0.5365214324359185,0.0076138012421446055,-0.022589301953191865,0.3943006548956013,22.152564851650446,0.484812407295153,0.00315118088971326,-0.04988694865855092,-0.36916583878304865,17.861417655887887,0.42862903848810646,0.004078716647021344,-0.00848090082859776,0.013950374398522595,14.081038979522477,0.4501816116486205,0.000862124685395011,0.04862617134482322,-0.042369843452120734,15.26355848671043,0.5383477876155742,0.0009759354193163422,-0.03770594888687706,0.21226794401417687,21.808594753323167,0.434564404449686,0.00048150703105549595,0.021700719166785787,0.2431564438315248,14.199098141401377,2
0.6285541789038528,4.63241855719298e-06,0.0032200360750378465,-0.3349949745247965,29.63136948528547,0.6285355938631578,5.190194657780848e-06,0.0021269400774475145,0.2615032259491731,29.62965853087311,0.6284280862433095,7.73372460322203e-06,0.002794952836581821,-0.286959908731914,29.61971176407777,0.5417881568198677,0.008014233258366005,-0.02110939604102502,0.3609066233750672,22.608133776389305,0.4825789395579895,0.0032084355574898645,-0.03324371179457386,-0.32152524883479683,17.703606699122773,0.431680965037219,0.004483345922625361,0.07481355134773499,0.20252993779486383,14.307901766434128,0.4503578724443918,0.0009338967283190223,0.000655028406516045,-0.30170914277710265,15.28077435334354,0.5376424902397042,0.0012086160122319314,0.04498315265862329,-0.16332211604953348,21.768896133241437,0.4352426043901459,0.00048692646860402976,-0.04211361911787753,0.2747367663242087,14.24374190940048,2
0.6285783453090094,4.5929954842023266e-06,-0.0015494183079813872,-0.3811531929346852,29.633645096021752,0.6285142992357439,5.104282271495513e-06,-0.0017440304917811789,0.2942390915333923,29.627644542672957,0.6285081826094988,7.835245365234263e-06,-0.0026268932888345864,-0.3343177697017895,29.627269978689164,0.5362848420893486,0.00807553082104451,-0.026597889067667857,0.4158554815163124,22.167696669867112,0.48518681314338463,0.003289789779706963,0.055680842403278086,-0.38630443759180977,17.89891271731584,0.4283022197145982,0.004776268675323955,0.0026707440308158525,0.20050563509981295,14.11165323790787,0.4496857531040513,0.0009223460515817673,0.020686696624713174,-0.3346502091527188,15.234549348673886,0.5374693294547256,0.0012265897864638352,0.005415466711875205,-0.14418093904817966,21.756263652036754,0.4340789244395046,0.0004753159909872734,0.014020774695487015,0.3328981473612701,14.167011831524844,2
0.628523552439374,4.535143750206854e-06,-0.0004559658500377095,-0.34352465407554417,29.628474798463305,0.6283766750516749,6.1691732718733e-06,-0.006560946361978681,-0.16119651777064495,29.614749949996988,0.6283984979818533,7.688620263839642e-06,0.00017592065849314498,-0.31793543354777515,29.616919377838215,0.5399660308205397,0.00843895566849181,0.130440150434458,0.3491469411098129,22.491731302474992,0.4837447867108743,0.0032295214322480654,-0.06361784286824868,-0.348303418885861,17.789660986232544,0.4291301365559222,0.004880279655962504,0.002616034977446502,0.1778263297689361,14.172591252079057,0.45098463712010034,0.001064164616112692,0.024473470883812798,-0.3459902056214877,15.332783900468481,0.5379960149603202,0.0012440161080886087,-0.005221016753937269,-0.17338983910786385,21.80003560048744,0.43432884607552635,0.000466561788329099,0.051016774332481585,0.22123764558428582,14.182641562333732,2
0.628692487476238,3.7067021175498895e-06,0.0027825887052498333,0.5246165030511337,29.64434258163616,0.6286665710015097,6.578802467669649e-06,-0.003407427960222642,-0.0015998319787743406,29.64211114349233,0.6286182753270493,6.596263596983409e-06,0.005337528300538907,0.02396238971894867,29.63755832914272,0.5379463252579394,0.009543479894965559,-0.3142746618651588,0.2512224762333052,22.4101861766165,0.4835269415141726,0.003333083652943011,0.12383090024666432,-0.17673423501635355,17.78152092807154,0.4277891862382333,0.005588097936437107,-0.16282870801087623,0.1957675197395506,14.13878833697408,0.44847033277096493,0.0015945056802512685,-0.09708506218382879,-0.10259653716221331,15.202416373516092,0.5382764652436087,0.0012609493301958448,0.022527314316295732,-0.16920535049871727,21.82392672807104,0.43378733038639167,0.0005540534651129608,-0.08743869578619912,0.06544555142828605,14.153858556699797,2
0.6284959851047641,3.2203619260944313e-06,0.0011209821848681134,0.34040376605121325,29.62577855374312,0.6284800940292411,6.599694985273077e-06,0.002620018663339163,-0.035652620469910336,29.624530521754203,0.6283980681593615,6.390450916536505e-06,-0.0004765725803359544,-0.10556196430403253,29.616782798349135,0.5383688282866401,0.01007994768072606,0.19837225872387743,0.2139278155244532,22.483990773678467,0.4848868219372604,0.0033336324070394156,-0.02736339696565876,-0.2749683090869297,17.880331054752155,0.42972549263234217,0.006261532586909743,0.03320249176286194,0.2390235270045645,14.313153337789512,0.4507192386894382,0.002411678315844386,0.06961950323212374,-0.024790767700432943,15.41455160473149,0.5369499732751558,0.0012225913297691272,0.009112565270448347,-0.16638473302899284,21.714117293417207,0.43529466950187906,0.0005736379289428901,0.034677497085424946,0.060579695860805895,14.253557903998038,2
0.6285764819555854,3.209305286632523e-06,-0.0001748744675685865,0.2727112586010479,29.633367013665737,0.6285140335998695,6.686799011636857e-06,-0.0006079057344795524,-0.05433651976959333,29.627736605525197,0.6284869563663145,6.2750607313646e-06,0.0009462127507809948,-0.19619224855305184,29.625153428688648,0.5374548115104506,0.010555255374024497,-0.11822878714863821,0.17353474747271963,22.44541447885787,0.48339815312678885,0.0032724143830297142,-0.027675409040767707,-0.16696056666452638,17.767691747823488,0.4285104806335846,0.006684514406159145,-0.084316122042569,0.29776361325653006,14.266246467017707,0.4490032684809567,0.003014532876022522,-0.05665352496156639,-0.055352527521175365,15.343370565819324,0.537845846211901,0.0011081864613310592,-0.0033377741395574922,-0.18565136440594981,21.777867369693194,0.43379323334285763,0.0006431599007341675,0.003289926898037976,0.152830753068628,14.160836529708147,2
0.6285166857081156,3.654967407917941e-06,0.003474741554047256,0.22611701601411374,29.627762283601758,0.6284655359279754,6.89419830405784e-06,0.0034598926495588156,-0.015334843860115629,29.623179909367295,0.6284221420027314,6.846932554988466e-06,0.00512863604072078,-0.13737348793148327,29.619085814956648,0.5415706414403846,0.011339541908347168,-0.005067621964344293,0.07753354217731002,22.83653307647892,0.4836264266296978,0.0035477379180257865,-0.0427025323795735,-0.11581298774837175,17.804621646029695,0.43231553288291574,0.007139900399444636,-0.04112680262226642,0.20798797273149391,14.545606627446858,0.4507773286634974,0.00353427747536599,-0.0405331786898151,-0.016865089914406755,15.501551535951991,0.5382101458621686,0.001099046156386927,0.03443642186012502,-0.20351770242753991,21.806591498745902,0.43517007763590176,0.0007076174765372557,-0.005508936305894996,0.054838156294278004,14.255338428486516,2
0.6285843697628031,3.84993205520219e-06,-0.004235105377904835,0.1634312908792573,29.634158138229623,0.6285619500727144,6.742498988479022e-06,-0.005551636414084515,-0.08225372116315671,29.632258325866164,0.6284892602076871,7.2846939972321675e-06,-0.002777981926165629,-0.13943058249069992,29.625445332086223,0.5366147310811181,0.011816708227205278,-0.0702095840051889,0.15087247949182203,22.471089129807737,0.48414162658619875,0.0037801166712674583,0.05176661297786578,-0.1657563212225444,17.85921222818857,0.42795947719787686,0.007345041639472893,-0.026783227300891,0.27654635507148634,14.279731640582002,0.4505235891395105,0.004174381969909226,0.16302262513901955,-0.006965619984021509,15.531767093609275,0.5375193876293696,0.0009718122017616978,0.04530357703933674,-0.23300688610038447,21.741446008739302,0.4337085262356079,0.0007987631222608761,0.025073779271482022,-0.004244399431235988,14.166839900757028,2
0.6285331588613726,3.6989497730165386e-06,-0.0007196222637274596,0.21280502511025778,29.62931860640235,0.6285305223556518,6.64830470170951e-06,0.00573869350412981,-0.09123063373612077,29.629288289498056,0.6284417311504082,6.96308184482598e-06,0.0007858968633307484,-0.07593592611955272,29.62094097690566,0.539752926624387,0.01130874476537847,0.07465761627245554,0.053170465341097796,22.686838747607325,0.4840860027634692,0.003818680457235137,-0.10623978259448819,-0.08390406804180861,17.858026709198924,0.4305643733980746,0.006732645017767737,-0.026884671545031547,0.2949204591648735,14.402141704290552,0.4503711307347336,0.00449343306305945,-0.10161871257840638,-0.02205260713434089,15.54507570161259,0.5384473800863144,0.0009522988835481161,-0.018676586791097183,-0.31169913119085074,21.81488870151876,0.43385409258633095,0.0009080911906173658,0.0109548506604496,0.19300228878170025,14.184401772148835,2
0.6285246018377241,3.683919380299613e-06,0.004094541178175537,0.18757966638562923,29.62851074367935,0.6284478924193997,5.808664959432657e-06,0.0034710893022484868,-0.4088441629832082,29.621436352685894,0.6284454176408646,7.330548700958716e-06,0.007785861176509257,-0.056192056036604536,29.621315682138935,0.5403617532138772,0.011978628418622123,-0.1353589495940934,0.02713277650041093,22.78573032820617,0.48239074003257687,0.003975073245389892,0.04023137918337094,-0.034843815354086836,17.746717375347142,0.4301725844426735,0.006672546242834335,-0.08702151762805066,0.32221655733775884,14.372402352426425,0.449389040274332,0.004710808482203321,-0.03022369795373786,-0.017040642057073875,15.494888041584439,0.5375462783085333,0.0009382235439854224,0.034771243362506477,-0.2510539007493386,21.74112864150655,0.43499098949638,0.0009752296562408901,-0.046102500108312794,0.13233676669861094,14.26345406528981,2
0.6285307259302538,3.534415786475413e-06,0.0014310374545852822,0.06277263049445264,29.629077054649073,0.6284496990692487,5.240815551643649e-06,-0.0003327637086349977,-0.4387895784540717,29.621564639868026,0.6284246961442871,7.067015659179554e-06,-1.2978291213827653e-05,0.04993775288012645,29.619342863461743,0.5371071085308704,0.011757231813005814,-0.03187923501987655,0.08789189040211165,22.50633860674184,0.48512536746844725,0.004384004183458535,0.0412302686854874,-0.12661365967453808,17.975412971680623,0.4302393708755695,0.007755874910916127,0.15905467203310142,0.25749063862939575,14.456878462263228,0.45056490443826114,0.005119355214930538,0.13119371591920537,-0.09613034694317028,15.604487269264318,0.5363087742986515,0.0007662776316023251,0.0864439764940037,-0.5966601351929665,21.62873714896772,0.43442335949910454,0.0009831081111616171,0.021087532555425836,0.18086808908584723,14.227024146112582,2
0.6285017896913477,3.7230792496639917e-06,0.0014915038666111213,0.025264733575555462,29.626362981256502,0.6285559835179066,5.323823421071909e-06,0.0008496280016394575,-0.5558279535838416,29.631590794145364,0.6283922956400316,7.310988827226341e-06,0.002191484618608963,0.06903545190010686,29.6163068046544,0.5403688014703618,0.012426842253237739,0.2264799890906694,0.06317764732804736,22.819469446928245,0.48326297911191723,0.004505573421155398,-0.1934601573427721,-0.11731257491570617,17.849145456674908,0.4307009820716912,0.00787232382438054,-0.18440512658887687,0.22211209516396446,14.495302159818108,0.45033043883225066,0.005408061769694342,-0.17246234271316163,-0.1420293979291022,15.61000938137094,0.5378895255811272,0.0006404919524591937,-0.025051819177057455,-0.0797813054402995,21.74678203422374,0.4350067190217133,0.0009514315975138156,-0.028051779276596467,0.12143780203172387,14.262719357768708,2
0.6286104422793133,3.885046012232226e-06,0.0004964347689201398,-0.06275775719006774,29.63661910409945,0.6285088997026748,5.709278349092786e-06,-0.0029018459121222806,-0.4768078201072622,29.627180262007847,0.628575131186583,7.5526316583901635e-06,0.001519846780792089,0.014900317407372781,29.633561060709983,0.5371439656018778,0.01288442151865064,-0.3172023298182453,0.04697240407566894,22.592720176068497,0.48340223807011395,0.004536699101721966,0.1744837322829988,-0.20228115412053457,17.861545016367053,0.4283338557614137,0.008848603217283866,-0.048751528317682646,0.16278881789265287,14.415038537436974,0.4489105813050953,0.00559804885320451,0.036866388072725964,-0.11023291291419297,15.528308865713024,0.5384936876823215,0.0006901241813908685,-0.032393135330854084,-0.25524621600416786,21.79922806495084,0.4338374970085811,0.0009398217932753439,-0.034190206959105185,0.21095346877377333,14.18566984850267,2
0.628508731701151,4.092586824739006e-06,-0.0003925998097764616,0.009911228179377863,29.627044788269234,0.6285451014238077,4.335288582507557e-06,-0.003954836167585851,-0.03809579602833182,29.630491650644956,0.6284087842528732,7.910240303174392e-06,-0.0019486236077818075,0.07666913903922758,29.61790536724549,0.5375530749949355,0.012354695471034035,0.17533028875846085,0.060591749783601184,22.58649559759482,0.4858189553375837,0.004815347926702367,-0.10882293925667985,-0.2906385457415539,18.057840048973553,0.4305800618956763,0.009338353892852208,0.17729293502067955,0.1356017495384093,14.595977415727402,0.45192821687141865,0.005938944968130638,0.07937577361335896,-0.20762981179290033,15.75741541798516,0.5374889305976659,0.0007069033586596763,-0.013468437718344384,-0.26782093395796275,21.719387137167498,0.435012034481335,0.0009517780822868762,0.010858393208006523,0.07485955949858482,14.263091838858495,2
0.6285623940234185,3.844669868718318e-06,0.0019456642412933878,-0.06094487186808367,29.632085744104128,0.6285894743779216,3.2954574904254623e-06,0.0028475206409582787,-0.07494608514060692,29.634598411257667,0.6284958407008122,7.90284263370839e-06,0.0025650564122424724,0.04033985957392861,29.62611144372144,0.53991787656269,0.012154440664071679,-0.07635901742813944,0.02981016217347771,22.762777116538608,0.482065528419308,0.005149354439125687,0.1887046463899491,-0.269222360661591,17.810090255259293,0.4292682310014692,0.008659299940883925,-0.22786539183310922,0.16607464735304875,14.461129256660216,0.4477962572281421,0.005717605706896431,-0.11104012406698255,-0.2341626075519273,15.462214421375267,0.5375108547451535,0.0007268479244543585,-0.010876519280920594,-0.013334632329329863,21.722630669074537,0.4342161361939305,0.0008335749022675354,-0.005213499738228933,0.13278838312561939,14.20245851260675,2
0.628557691515388,3.866196690739703e-06,0.0012507021230970805,-0.02742951293451277,29.631643965791632,0.6284451481096834,3.5551578829435026e-06,-0.0009913570260953186,-0.0742952986449636,29.62101089537848,0.6284651082733348,8.157358222844258e-06,0.001362025068331052,0.09237266894249833,29.623233068284573,0.5376999425140808,0.01279757127776722,-0.03996434897896156,0.08219464979752615,22.631112388028207,0.48496329660545323,0.005045052004809367,-0.05905114829670777,-0.2600815567276019,18.012538777438053,0.429615110599338,0.008310500927640022,0.04066491012060697,0.1280966580499703,14.457662812791467,0.45101399072320497,0.005425777990405251,0.033805253155069825,-0.3247345798698901,15.65752905839533,0.5381887192861214,0.0008064564976853141,-0.004971481004543699,-0.06228504402408046,21.783210098341378,0.4347271787244471,0.0008243880206671165,-0.001612619619190403,0.0749593682228206,14.235083707658172,2
0.6285410979025855,3.862404560365833e-06,-0.004518385794354263,-0.03473432364388849,29.63007919938154,0.6284971085650082,3.5483209671781792e-06,0.0018304384082475922,-0.09096684451067429,29.62590873634475,0.628453351017154,8.344796182590723e-06,-0.005819845718870731,0.10511252168981965,29.62213859526927,0.5384462661079604,0.012805221435638755,0.055379346961200615,0.056880870960827806,22.6919149976576,0.4833447981884663,0.00495187192891384,-0.019505283770697934,-0.23335238912363296,17.888103067928316,0.4309758246315238,0.007897682267133027,0.09759997855767788,0.10095094400987034,14.514940594029488,0.4499234312114902,0.00511798726498718,0.05435167844877964,-0.35233672587686493,15.56106310409309,0.5378017468911472,0.0008528637958761826,0.04718418625047305,-0.027672176129183428,21.755415842832566,0.4345269570320973,0.000809349676546345,0.02822362226877706,0.07786166310856557,14.220917605132492,2
0.6285395791334946,3.783808137003918e-06,0.005530130238546649,-0.017809830322353275,29.629930192100435,0.6285596026447476,3.9004253905162e-06,0.0028251207653435806,-0.05260380397972274,29.63182668724813,0.6284449543818108,8.592354359973002e-06,0.009222776748072703,0.12517645791409196,29.621365385819345,0.5390941899148654,0.01386330115195102,-0.1886629171435406,-0.003678517203935909,22.82257520524175,0.4838280955928411,0.004691887356912283,-0.08049750682393542,-0.2711875937796123,17.903921620786164,0.4289335455500543,0.00783597597964169,-0.11707669517692232,0.08961834667576281,14.378661209854025,0.4486135156458867,0.005452918911503222,-0.1933987851971405,-0.3740382892520141,15.497572480963404,0.5374848768429289,0.0010864322120673008,-0.11030676169514447,-0.2913309040584929,21.74714544630736,0.43479198123014867,0.0007803346531186765,-0.0453614257635091,0.0032356173419650787,14.236049784983628,2
0.6285806811337842,3.711159963561873e-06,-0.0023378829412197266,-0.05078564799793065,29.633800077933227,0.628517215999738,4.294421037513169e-06,-0.0008684615010300378,-0.08822862407397027,29.627859597761372,0.6285069208822698,8.648033568733247e-06,-0.003560978995668984,0.10823576708621858,29.627211174252466,0.5385666710238081,0.014328768947935165,0.07262216394356347,0.051361070739055166,22.814383337472204,0.4840713825738969,0.004429037313056359,0.07259282432978131,-0.31395172695211393,17.90213151819148,0.4289884649239652,0.008041715105081795,0.04977906555242689,0.056951347176702714,14.397419645612565,0.45020927042120273,0.005279393638054355,0.1471537775027943,-0.44985350012565756,15.592304167205402,0.5377943092713489,0.0011120464065078127,0.003361522153884744,-0.3055941305113283,21.773995365430103,0.4336388771406622,0.0005841723387277698,0.046660061140605835,-0.22044984275891663,14.146429435651926,2
0.6285140767942958,3.81357387053908e-06,0.00025071279155364223,0.018978267988962707,29.627528059110368,0.6284789030575613,4.175228874502773e-06,0.003885677576409119,-0.09140024003887608,29.62423883606937,0.6283944293634092,9.185584595832098e-06,0.0006182900571501948,0.18826362176947695,29.616646647382446,0.5399862836898155,0.014946555477220475,0.05256491009139874,0.04476737828066079,22.97493409829966,0.4835024721052444,0.00444887462151076,-0.08340669396579042,-0.34827899931002837,17.86231476188298,0.42981243857347146,0.009058781147365863,-0.08146507345641607,0.028744691687712424,14.525754731340633,0.45040817331475,0.005326917391053718,-0.1333219756675007,-0.4769492761521017,15.60925608109273,0.5379383226519345,0.0011888935143225233,0.08368848261193151,-0.2702384491696612,21.791301043378134,0.43541995942926254,0.0005380133638934271,-0.024053253360520555,-0.24290589156532585,14.259103569131657,2
0.628549530781918,3.83030509267404e-06,0.0034029538936847237,-0.029190686917313857,29.63087189103956,0.6285387152981791,4.296927813097752e-06,-0.0006847724942463662,-0.10005285382741604,29.629886719809566,0.6284986764932948,9.488647570684279e-06,0.006209299674236002,0.11612524423759747,29.62649613645697,0.5390709083421594,0.01540540691162296,-0.18064579577908846,0.05515763899206295,22.934808428023164,0.4834381653923971,0.004500531183887003,0.15251321370161203,-0.40471588140646797,17.861473789455143,0.43046631125494894,0.009674828615315264,-0.06784671107524637,0.014334664883583011,14.61353070194152,0.44841014059568407,0.005235960494117015,-0.0006898063714187441,-0.4207819039081461,15.467835140742746,0.5383440345195908,0.001331530230719394,-0.07133844221476471,-0.03165899039006967,21.8346056997855,0.4337789642696626,0.0004926756630264101,-0.023797962449245258,-0.27399048367035533,14.148772237278546,2
0.6285717288714868,3.465895356527964e-06,-0.004611522319998618,0.04011773338248826,29.632937851493136,0.6285412455614441,4.183384080490811e-06,-0.005728476292537921,-0.0022650850840593402,29.630116873316826,0.6284932132304581,9.19552143864675e-06,-0.007089298990125337,0.13837345838229978,29.625959399342413,0.5369071292374296,0.014299554132134868,0.20164922650104472,0.05807910896700236,22.67836191272633,0.48412628403389374,0.004398190763230609,-0.1009270609574553,-0.4376395755072566,17.90383553341404,0.4297414170923927,0.008557296101104245,0.14953119170898949,0.07156510954634067,14.484066328825051,0.4509246211602589,0.0049147648126160685,0.10450392293273619,-0.4594112116479237,15.613668643772817,0.536984410076735,0.001561585830883452,0.032072002999594784,0.1880577645418445,21.741976601394818,0.4342116984101198,0.0004825386762739211,0.02170330334293974,-0.3094535564111349,14.176192789759337,2
0.628513938944854,3.262632907093044e-06,0.0016402011226480662,0.054212757672628197,29.6274742934333,0.6284838938979961,4.0932454844927626e-06,0.004857582082504863,-0.009152172461097612,29.62470326685491,0.6284041555518372,8.790072612939669e-06,0.0024155226773248106,0.1669768741324495,29.61753416898468,0.5399865602293784,0.014212589078486968,-0.0911977756746572,0.053049985417765066,22.920642983934744,0.4832288495365551,0.004284560006475188,-0.04465821795733721,-0.3919815628618968,17.83031651731085,0.42988123004595785,0.008020565510593936,-0.2162758910062147,0.01435675523980384,14.45336224372088,0.45049646651162467,0.004605119394607196,-0.0941326309544997,-0.4592574774498818,15.56180881066038,0.5388570050994027,0.001723845062104815,0.0666893636831225,0.19569604834004,21.905079930448082,0.43512787154123733,0.000471409066191579,0.0018862350453440202,-0.39968368896852413,14.23510411529874,2
0.6285775015881208,3.0280178465584135e-06,0.001462918197633667,-0.0017650509086912008,29.63344973602795,0.6285014276659154,3.974989972785321e-06,-0.003117623429105487,0.01168357195571871,29.626347492615032,0.6285101478951148,8.322814202890216e-06,0.0036723643111550297,0.10676665745087528,29.62749133878645,0.5386365267024238,0.014307226462805491,-0.20048149454509012,0.12123435014446428,22.818432850601415,0.48358454566601483,0.00421005222545814,0.21929466637357975,-0.3569933232900027,17.850594825209352,0.42783225203297093,0.007250416753376818,0.12142818545370737,0.0609844802172756,14.264563530720153,0.4483383047869039,0.004361028264979998,0.10191517439371356,-0.4087023447956509,15.398258757048122,0.5381614181375188,0.0017966771691972725,-0.022172385779449355,0.22841334993358248,21.85428250840451,0.43399794466482633,0.0004489291521875491,-0.03856535420794799,-0.28337101004016235,14.159786955258898,2
0.6285400570373068,2.685915548031774e-06,-0.003220890351525507,0.00439117669800989,29.62989400528512,0.6284965276428541,3.897867729774412e-06,-0.00014794208126367447,0.028426036216173508,29.625879836646355,0.6284706889500782,7.688170982716573e-06,-0.006129228259479702,0.1275486736232887,29.623724439856666,0.5373223670661769,0.013969748259703535,0.3328428467147022,0.17671116717564786,22.687410832438015,0.4844548965438935,0.003596318616612901,-0.21230189583648962,-0.2046137298804769,17.868368586530945,0.43055750588498776,0.007141953712507491,0.07240953812896234,0.027020838827499852,14.431987015268149,0.450979285053711,0.003790853866802029,0.02877440037696738,-0.47076011866626183,15.534196852210071,0.536550377618835,0.001994838292405902,-0.0858036139114498,0.3711538028971225,21.73909111285661,0.4345155610002784,0.0004094109303118759,0.044133828297150235,-0.179302996741665,14.190579365197078,2
0.628506498060277,2.5945256172081075e-06,0.0015845970302501566,0.004470017288821713,29.626723352695144,0.6285032261801865,3.5629384023753914e-06,0.0007757911250536598,-0.013656922486699332,29.626486556359474,0.6283877789962485,7.545011172062959e-06,0.001942198741782919,0.14099830872005575,29.615898390214582,0.5414199890339289,0.014001591307068018,-0.01603698921013519,0.1680275913006664,23.0212880961355,0.4816300441760772,0.003520780844979464,0.06311513531892826,-0.430874330573298,17.65810024150724,0.43117563533556647,0.007466033413210556,-0.18402815134848255,0.008519169329888665,14.495918610604786,0.45039748027670506,0.003570965339976218,-0.10087807874829086,-0.44149599501118686,15.47859320312861,0.5383630936371205,0.0022403733704190907,0.14714506355999302,0.3477596775406439,21.903399173700848,0.43493688767310573,0.00038096613698208724,-0.01711260315044494,-0.1710798107205841,14.21594871354426,2
0.6285887557320774,2.254510922352094e-06,-0.0002851819273693712,-0.09897112240505786,29.634453621268342,0.6285510585650994,3.1244865650860443e-06,-0.001413467543786906,-0.06253515799622798,29.63096370375385,0.6285274360358307,7.198926100356485e-06,0.0012137190208145743,0.015596887122653473,29.629038059264573,0.5373741006214502,0.014302721036278552,-0.26189859649966474,0.2750960189864719,22.716220658088055,0.48463663620232816,0.003826475089062016,0.044300597012245646,-0.5518425228692109,17.898609342803674,0.42800577613204877,0.007626550198789058,0.08710165634410388,0.11783360881077641,14.303535544890202,0.4486782365477732,0.0033334834302174666,0.09587645146092322,-0.36689050513084864,15.345089770207556,0.5374669251822047,0.0023846453586411497,-0.04884346514961285,0.31241526114467905,21.841765931400467,0.4343300393340231,0.00035816248897297136,-0.020679990492971367,-0.20473361576973392,14.174697754276055,2
0.6285608157256902,1.9585114273569134e-06,0.0005731564618118856,-0.14216414569753763,29.631797359776506,0.6284884633742376,3.108145968083176e-06,0.0023097254887106677,0.006021251440858561,29.625061147389914,0.62846974962085,6.622971428834927e-06,-0.00030995071310657707,0.019171122456456496,29.623557064022762,0.5362385616559832,0.013222766466363285,0.1088157770165612,0.35181429979696466,22.544869344026726,0.48539614467198827,0.003775429792218084,-0.029423497695121537,-0.5886678831577912,17.950088099306374,0.4293748801973306,0.007177922639024197,-0.05985262502963107,0.07505561434643078,14.358375356123192,0.45111157809189756,0.0028212548823295966,-0.07420301649518629,-0.37053208003128474,15.471397052934556,0.5376720633461892,0.0024309759742683497,-0.041495146111587444,0.3024224845949291,21.861735799816998,0.4346301959929399,0.0002881379773734293,0.018854319280893983,-0.08301517031185954,14.189077755490233,2
0.6285189175492784,1.8956411214820463e-06,0.0016545937760932272,-0.15332681494809125,29.62784250624173,0.6285542027045926,2.4258736595498444e-06,0.0034099559057575446,0.04472791437061351,29.63120844497126,0.6284186731162142,6.499449199727848e-06,0.0017670536047401653,0.016038531262000718,29.618733113326524,0.5392732381839973,0.012485108173313924,0.043993519546220994,0.38272547478357427,22.735069911434312,0.4824380553108749,0.004024891072547951,-0.0176837392123812,-0.44103996779809057,17.753827730278953,0.42992554273685984,0.006817247369734247,-0.09550347106802065,0.14365040199031728,14.367174227679097,0.4496128434444288,0.0023012381160637508,-0.0605335930230283,-0.4276290528947294,15.331669794852552,0.53792920462027,0.0023614026458030554,-0.029387774469070926,0.4477255502766152,21.87733098454416,0.43519880815368966,0.00032801459066298527,0.03830656289943113,-0.09605251025124635,14.229123276088458,2
0.6285894391610076,1.8953248613122436e-06,-0.0002899375871620036,-0.15774700175116205,29.634491480895996,0.6285217841077417,2.4229048450150745e-06,-0.0018284782897836083,0.074816966566771,29.628151777306933,0.6285295471773131,6.243822599245294e-06,-0.0010027657735329765,-0.043456829041618524,29.62916641849123,0.5363401037383305,0.01300864278207988,0.00378109478088573,0.4223334679013249,22.537192581727155,0.4845900918299384,0.004148528435167331,-0.026216625468360344,-0.40944543152610463,17.9190578866835,0.4286744431756438,0.006322980980879608,0.021884688418142062,0.23620379593765237,14.250033959981211,0.4492732527936085,0.0024087119522977624,0.014170952286795213,-0.34542307853421317,15.316728860151258,0.5374224559628964,0.002368828838554189,0.01471980800448941,0.479094917176809,21.83701054704235,0.434101554916012,0.00041061209390004733,0.003431651064231489,-0.5780133976218987,14.163697293486061,2
0.6285392337225348,1.775182034047752e-06,-0.0004588696036165185,-0.13574381415560602,29.629748988108865,0.62846786165803,2.4390394571124163e-06,-0.0011267249344126817,0.11043917095858424,29.62306947419609,0.6284461792028517,5.722442495382554e-06,0.0007398832752518736,-0.06663056733893036,29.621268472344358,0.5390004327941649,0.012684538798883871,-0.09065401590258532,0.44182487831382117,22.727765862539695,0.4842008414743405,0.00414860354797302,0.015954336278827308,-0.3514489884108504,17.890780778884466,0.4295370121314746,0.005872238078343446,-0.008972233480255498,0.22696403097632764,14.272198977110005,0.4503152512829702,0.002246736613006934,-0.03375829763334226,-0.39322201098878556,15.375045424715855,0.5374950448284536,0.002385835407158434,-0.019793008486504116,0.46971767193129044,21.844121061265312,0.43466859384490364,0.0004103377385679063,0.006559317790542474,-0.6585119563343805,14.200623978286961,2
0.6285302958500429,1.7529369588907244e-06,5.701056045137598e-05,-0.12709779902462146,29.628904677435646,0.6284826338455962,2.613424722493292e-06,-0.004352286903795632,-0.18356262075561053,29.624474971841803,0.6284497953718344,5.493525146909539e-06,0.001040558872212105,-0.081655821109986,29.621592418578416,0.5394453763147657,0.012273645408504326,-0.015753974762744538,0.44451740401592277,22.733348312282764,0.48339611885924644,0.004001195257066607,-0.0472355836223296,-0.3291888763242624,17.821474028636644,0.42976490414168494,0.005569154646261218,0.05137662676943683,0.1778072834791528,14.264457906216702,0.4494671613179713,0.0020846480609435294,-0.029603948217597376,-0.358563286420089,15.30581863925247,0.5390062197438865,0.0022643633847830194,-0.09058275347554595,0.45259584042704465,21.95714075966856,0.43472413312017094,0.00041852343732147126,0.035948575439676334,-0.5971775310446682,14.204851128143101,2
0.6285659444656074,1.8908346880196287e-06,-0.0007077678768093731,-0.17015008197185177,29.6322759124125,0.6285731854867131,2.6078114196675855e-06,-0.000933710131178711,-0.29667430152881735,29.633011691513595,0.628500504617693,5.501441066939473e-06,0.0007871478814157618,-0.10782437208137706,29.62637342949106,0.5375234597410052,0.013767764798366323,-0.043967163283187505,0.4537955655563816,22.688674827974612,0.4842794812381181,0.004181662346750285,0.02906411674881426,-0.2837330096251569,17.898939209779083,0.42912268817066757,0.0066013676693650915,0.0008656595130187017,0.09534198141487012,14.299472320244513,0.4493355555952577,0.002363745595713536,0.0076657686388020285,-0.2783885082308791,15.317600288240216,0.5374792529343588,0.002343856838188046,-0.033723703678191275,0.3189410934374034,21.83974145614165,0.434246800031652,0.0004779526359419773,-0.0010209075943887203,-0.6885459843622489,14.178139745389423,2
0.6285416162009578,1.8043549413970634e-06,0.0006032511557090281,-0.09953428712331697,29.629975769504085,0.6284615064567866,2.475120707807794e-06,0.0025613517563461974,-0.24920722593431222,29.622473041277395,0.6284248290649268,5.098559965860384e-06,-0.00012177795627110743,-0.036749138320474425,29.619209727333647,0.5404969889432073,0.01274281803913397,-0.02028252794855534,0.3966157181042082,22.85324316414643,0.48327699324741313,0.004135907148923371,-0.002196057529324502,-0.2754473114306156,17.822806044189846,0.4308742809274673,0.006091866310366345,-0.06968939873927743,0.0610344705450473,14.374746554324263,0.4507522279544113,0.0022838465394251625,-0.05997824561633741,-0.34541741282700816,15.40732246935738,0.53732073452708,0.0021512797722085275,0.05010732460932976,0.32133139198198707,21.8127125845975,0.43398929722321006,0.0005682494345712946,-0.025251708653061866,-0.47022637411366114,14.168053715980458,2
0.6285297322787147,1.7381832546245908e-06,-2.92635727705548e-06,-0.026651387823282097,29.628850452437298,0.628504209530002,2.4469009250197313e-06,-0.0011188897295877354,-0.2766391556067772,29.626496675438393,0.6284582023839075,4.958303842809814e-06,-0.0019669100756826152,-0.07970213662880837,29.6223453252553,0.5389730879102124,0.012555570286859259,0.16344780214902416,0.42357189646128823,22.716011413087802,0.48414223227647796,0.0038449120663315295,-0.0567417540456604,-0.2921787082230917,17.86405107343237,0.42975151025910824,0.0057707045859097614,0.0721313054196181,0.11970938261597051,14.278509182106152,0.449841902055086,0.00220830727666554,0.00726775477406677,-0.32429885294184485,15.340245001813571,0.5374002080527184,0.002321202838799664,-0.08869474136991473,0.22242027112088333,21.831692781204055,0.434813148976486,0.0005959110026024674,0.012913485614066578,-0.4898225502792323,14.223783003406165,2
0.6285638240126022,1.8951811946712288e-06,0.0007873456822803382,-0.04757393818423673,29.63207630770932,0.6284945031692634,2.37572228267202e-06,-0.0004119545352996301,-0.28299679700457026,29.62557634199736,0.628496305093524,4.896787136587114e-06,-0.0007897594344867809,-0.06573103662264922,29.625932775964003,0.537675299386587,0.011856717841905985,0.019326264527068704,0.45161507536433554,22.559501688085234,0.4842368237244813,0.003956058490047263,-0.016954432922247076,-0.2513309611400145,17.879145937071566,0.4290841125070938,0.005410587304731899,-0.042166428828454505,0.15855982274507283,14.208871631000186,0.44917132517286396,0.002219971668725744,0.028502949365880548,-0.29433606847303145,15.295893855301708,0.536832528844919,0.0019713396552016264,0.034701904959186736,0.16128281729334928,21.760066436437228,0.434340845674809,0.000739862781688888,-0.01289092408419551,-0.29228115914773106,14.203647612458093,2
0.6285662507058883,2.011969574009439e-06,0.0005833975782139067,-0.044892190635714854,29.632313750232797,0.6285383206240239,2.3910455695617612e-06,0.00031355367508489884,-0.2491289830691143,29.62970847433728,0.6284776465093048,4.910305240746052e-06,-0.00018133909634321377,-0.06325258913217643,29.624174774728427,0.5378599531712462,0.01188683321042152,-0.0005497944591426607,0.4100836231789063,22.576625349474334,0.4843548569132304,0.003603723097158966,0.001577641004821495,-0.1656407489194475,17.86164756534746,0.42875521429828684,0.005219335482770228,-0.02500098859616995,0.1109714815231202,14.173558359822733,0.4502492240831236,0.0023146455732231583,0.01507074215236176,-0.4179595170408926,15.375611056477624,0.5375110637710023,0.0018338926386435928,0.016267015405228347,0.08846811853697793,21.80456883097721,0.4344605479309766,0.0008857968723683347,-0.015742052311354726,-0.23469651343843428,14.22224654669159,2
0.6285312110964604,2.4894647206404297e-06,-0.0005943969649139236,-0.100450818728142,29.629045469568062,0.6285027931877892,2.4947710539438528e-06,-0.000884683229391614,-0.2346080894655606,29.626366691421964,0.6284402522137313,5.250495277402661e-06,-0.0009076317902709796,-0.10126895537975429,29.62067483183489,0.5400197989551732,0.011711671469784413,0.017914855250444506,0.4010965976857462,22.73826743353297,0.484345956738481,0.003527506327632916,0.011355185903322296,-0.12400990580852161,17.85536090391344,0.43007169690590596,0.006165623321204508,0.03585947553597291,-0.152002276979791,14.32838096173354,0.45061718523707567,0.0025301180633435874,0.03289023257519347,-0.3943715080990983,15.416417309011305,0.5373482769482174,0.0016144505216214935,-0.03615715751128301,0.16806247533945073,21.775207144041342,0.43485679071963695,0.0009860544467967776,0.04179054336298821,-0.2711627722007733,14.255500161686623,2
0.6285484392282709,2.4751715530095114e-06,-0.0005458378897214011,-0.16103938201896456,29.63066869691706,0.628537740979022,2.3544818192395717e-06,-0.0010938716607054033,-0.3515286825527635,29.62965111928053,0.6284801236998249,5.322683282339543e-06,-0.0024488684502964597,-0.14526489928720634,29.624438819993934,0.53734524567297,0.011334531952734948,0.1415450602843507,0.392160182723076,22.49424884305321,0.48360488686068076,0.0035563949350426323,0.050438426911053436,-0.11149094708610575,17.80369971985805,0.4276136548225308,0.006261348395467026,-0.07029052445628614,-0.2280902625400894,14.17734761556575,0.44904352196476166,0.002611931327306525,0.021364298877122434,-0.3756347556052773,15.316289264609486,0.5375237345064159,0.0015106072649862235,-0.02747976370159938,0.09813202061282925,21.781667324438263,0.43483521196635505,0.0010756634309019531,0.0321752434059861,-0.2536669945206594,14.260723711323617,2
0.6285078769022944,2.5020369987141586e-06,0.0009020821000166324,-0.13842686107444954,29.626846500355125,0.6284813280927914,2.2803241409869788e-06,0.0031065472076942102,-0.2953616660054007,29.624327226082332,0.628441282375137,5.4215056783489904e-06,0.0026208903406294004,-0.17793459213212842,29.62078459591819,0.5392171954114691,0.011214685048622667,-0.09189905485288458,0.4038222846657004,22.636525480653873,0.4838266421293038,0.003515519877544933,-0.11017425068504744,-0.18445301078227308,17.81676494349714,0.43108993121790745,0.006197990183575865,-0.03149082962956201,-0.2885754804404791,14.396540933394135,0.4500684221020023,0.0025891354586289506,-0.12896843750204656,-0.37936908366518834,15.383714866942507,0.5381059853964193,0.001560371969475009,-0.009983374839795334,0.09240117378189378,21.83232138970001,0.4345521971455696,0.0010898331120105388,-0.02902692637637505,-0.24039109008935097,14.243318553591928,2
0.6285329190382474,2.7626657975514643e-06,0.0029774103906274885,-0.14577117817665658,29.62922671087453,0.6285034147087426,2.532518028995161e-06,0.0006466749228680735,-0.21203320742445364,29.626428078875364,0.6284714650456534,5.706792759745027e-06,0.00439811886546726,-0.34289708540119485,29.62365098091146,0.5374150767515207,0.010755401589454242,-0.2556291059964595,0.47917453408121574,22.457022071607827,0.4855090027993174,0.0035488379660734283,0.16268439586564087,-0.3200818472535793,17.941538394428502,0.428579919451321,0.005719461280321156,-0.15454554226071443,-0.24407424487825102,14.199296186511328,0.4494194239152742,0.0022349699658973177,-0.029829909329010973,-0.37570992997129965,15.313724171901672,0.5382793235814185,0.0015335006521440687,-0.03766588625076339,0.0672652483918424,21.844326312903863,0.4338087098112571,0.001097886509246595,-0.012497632005256054,-0.20772895368480485,14.195493354792303,2
0.6285961957267032,2.982007950680951e-06,-0.0041132632348673814,-0.22948692353286668,29.635208964744628,0.6285251974557847,2.3604064781409047e-06,-0.0039007271523370246,-0.253947184722587,29.628468957841864,0.6285294056261822,6.159605554726064e-06,-0.006828122198123121,-0.36049111454352367,29.6291468410712,0.5370764406816131,0.01080622946477978,0.27065932157507144,0.4807220566475944,22.433493715535977,0.4850816870852091,0.003718272169749926,-0.15516675506652383,-0.31727094212847234,17.922970376468946,0.43057254831630304,0.006486231074897596,0.2828440214393148,0.19524388455110295,14.384435051812053,0.4501282107465551,0.0022539356428695066,0.10204876259862927,-0.4012800515147821,15.36294669581448,0.5368342986824163,0.001459134980040479,-0.04243516220707011,-0.007670555733468997,21.722305806661137,0.43440747952172337,0.001230862360870082,0.05770275741208519,-0.25312113371182815,14.244323184535633,2
0.6285035743428333,3.4811605021903405e-06,0.0027846307523037295,-0.27677906892794296,29.626513328005966,0.6285646730366109,2.4017644307491307e-06,0.003356769861984632,0.1516728839967981,29.632193844789494,0.6283987930755847,7.198761445285685e-06,0.0013723533209490935,-0.312264164600762,29.61691094376081,0.5407092287536758,0.011119264770797797,0.04967953034600875,0.42096383104221224,22.750310847493655,0.4836798436389088,0.003926057081058864,-0.1722103559877693,-0.2753835956311937,17.836492559690306,0.4302433303049816,0.0075732328562037494,-0.1180611279744831,-0.03165096246585941,14.44361847675319,0.45069429445988873,0.0025571103244679816,-0.18062167391904566,-0.3665817099686181,15.4236271934129,0.5377872753579906,0.0015099744883798648,-0.04911354272377644,-0.021033207741513505,21.802874627412955,0.4347170632954049,0.0012900915438840864,0.025164103154276196,-0.2909892310532717,14.268886158261003,2
0.6285680372822221,3.85718273573476e-06,0.002215300542256271,-0.34602512819401293,29.63261874348432,0.6284842053954457,2.9797191378166942e-06,0.0026185609127177267,0.246588234471376,29.62465023158206,0.6284903355646377,7.306321361624526e-06,0.002961562219082503,-0.3868667163300926,29.625548310142072,0.5379166820112458,0.009686890162300713,-0.1903423998669283,0.524697477683254,22.41840663095933,0.4836600351631531,0.0036228057122474045,0.14316763190959814,-0.3572293910617889,17.812614843757995,0.4295042197815066,0.007058178021005927,-0.0424819455634437,-0.014358252192010814,14.357845784313497,0.44968190728995117,0.0022512760451637364,0.035722688138130676,-0.4086242769670391,15.332630758136727,0.5374325261626408,0.0012571249468328613,0.08221189595588396,0.03826877126028233,21.75555625938246,0.4336300100028158,0.0013550196225306154,-0.08326199075861263,-0.26492565532571954,14.202895370195431,2
0.6286018241469974,3.952433669002318e-06,6.25734224584118e-05,-0.3509037253539646,29.635811479161458,0.6285144292334205,3.097021936782368e-06,-0.003259502241253154,0.2459316506725491,29.627508261219248,0.628544424231208,8.03183702899787e-06,-0.0018434704624603615,-0.336125781821844,29.63070134835071,0.5354715766402054,0.01061833576932437,0.034380673793633854,0.5633860985860026,22.290492551146052,0.48498500763147673,0.003722365470478882,-0.03762012005485782,-0.2925391103992235,17.916239366863202,0.42734746118103817,0.007457605897784343,0.02332009578533628,0.07726161879267243,14.248801779776961,0.4491506330498372,0.0026627479437999553,0.06630031756409627,-0.5089676063233576,15.327265185521421,0.5363119490609133,0.001252556642710938,-0.03958290411045179,-0.04818010095938359,21.664977194474282,0.433940700810891,0.0013689430431713622,0.011533225666310876,-0.3092034628850785,14.224141671713218,2
0.6284515599596223,4.695961878177077e-06,-0.005073185600956598,-0.33473766419067524,29.62169974235519,0.6284311527176941,8.66059773847098e-06,-0.012942845803076142,0.19439529075545176,29.62006941218939,0.6283793830746308,9.234567305834899e-06,-0.007194416425821859,-0.27267668020827146,29.615232038474662,0.5409709797410384,0.011599584183037435,0.22909538695232534,0.4721495627564905,22.807089298693196,0.4843091110387949,0.004000623923893454,-0.1945531154188071,-0.26099695611431545,17.887694798007193,0.4318052484297261,0.008050226815649127,0.13410303820428227,0.06617676724636035,14.579899727217345,0.451088342561287,0.0027224126211416026,-0.02156767629367934,-0.5658828254668088,15.462510493566155,0.5379116447193264,0.00111999068904008,-0.009962216898049436,0.023577342263854,21.784049625337786,0.4349351751938391,0.0014209548594204676,0.10116280799523703,-0.31106460457435486,14.292796156164279,2
0.6285343785000653,5.346376646603538e-06,0.006010894216073037,-0.23533121296209228,29.629555503606614,0.628628757429361,1.0951066933741965e-05,0.008802578717780785,0.07998513283087348,29.638868978991777,0.6284533458180497,1.0566814763808093e-05,0.009795033669297792,-0.18285482689978574,29.62230253453509,0.5395432921105926,0.012794666521571869,-0.332230754830772,0.44679885409457326,22.779827627211528,0.48313999617351944,0.004716146520170156,0.15686473376376736,-0.22634966636887852,17.85581403518372,0.4286312970373215,0.009069325158975511,-0.16387545005800763,0.06743503048534406,14.450489221756431,0.44872756392803637,0.0031419931441345286,-0.14538548642079302,-0.5102203029498914,15.3342394898252,0.5379044685871448,0.0011421882832413637,-0.055513474669247276,-0.0028911054200706373,21.785113232411256,0.43560984838711114,0.001361447319786813,-0.08821524193336389,-0.40355390350834625,14.33244260255237,2
0.6286415218892566,5.426787919931175e-06,-0.001108336885217831,-0.24776431391707407,29.639663810549127,0.6284820363921375,1.1406755199369812e-05,0.0014663105512847663,0.13840924875470964,29.625069354955354,0.6285501138339769,1.0604895556717077e-05,-0.0014392981738114985,-0.20589062708855474,29.631428182324083,0.5354168843927645,0.011980782488971574,0.062399263248757,0.5113956928443981,22.38692091114802,0.4855950152149742,0.00475905847406149,0.05673314625646558,-0.30372035995547814,18.03735923720288,0.4253697092453889,0.009297528625976484,0.13787992214546818,0.09699040354862376,14.258471334085263,0.44935107393649293,0.0032367701926335436,0.1410954525234953,-0.484368058453363,15.383250067845845,0.5378609337510716,0.0011012156703102637,-0.0024470099943861845,-0.036408140138002976,21.77856876377105,0.43376486153196064,0.0013557841271063366,0.003557203478658344,-0.3692619329543744,14.21172465789394,2
0.6284880800866668,5.645002838306089e-06,-0.0027156862440134155,-0.1370274256311782,29.625212741036865,0.6284816224243254,1.168399348054448e-05,-0.0008170942488521238,0.15664601676290918,29.62505084490099,0.6284072936926783,1.0992109943195641e-05,-0.006187442039161439,-0.09309424960119689,29.617992923597487,0.5396921552999588,0.012431088518297875,0.18144550271357313,0.3724198609092298,22.764972237277654,0.48359824066757257,0.005083618137029034,-0.14356878051828204,-0.25915549456752285,17.916232120397996,0.4293472414539929,0.008841714090070492,-0.025871036879877574,0.186802326904012,14.479715873476708,0.4500040169546255,0.0031555671993533777,-0.030032263122168557,-0.5194843048058349,15.421283118399561,0.5372281171327998,0.0010107845142931031,0.008792804834588552,-0.08621801064670291,21.720851791911688,0.43514665640574046,0.0013277187421158047,0.0917421741789679,-0.43340774532638193,14.299697130498737,2
0.6285378184999858,6.02161301791637e-06,0.0016837847367119352,-0.05689106741352743,29.6299297957174,0.6284743194070692,1.29338603894705e-05,0.0018372872172189858,0.1186635709341107,29.624454867232245,0.6284676085049362,1.143843730122301e-05,0.00361939765015451,-0.07378342098646153,29.623711564853817,0.5382324764674165,0.014121302107435871,-0.1601967520096047,0.3177290660890626,22.772041260268846,0.48322575954450914,0.005262763663685392,-0.05390701945843346,-0.24532212482165852,17.9024796126653,0.43029636559982926,0.009312899719263195,-0.07227103112298405,0.2194028545774677,14.575776747857121,0.44977494133037754,0.0034627568262971973,-0.09888222499593241,-0.44745322273424665,15.428556343801832,0.5376720564769404,0.0011778777375235732,-0.05902099453220072,-0.08167894334723381,21.769005976287403,0.43508078713101195,0.0012865734465597992,-0.019778021667225476,-0.5241505518965988,14.292353284835993,2
0.6285040456266819,5.9912098313674515e-06,0.002164943747086867,-0.03199881421143034,29.626743502210495,0.6284823706841102,1.2892185652759003e-05,0.0008053711795560359,0.0907810871384569,29.625210791292243,0.6283971363059055,1.1101778042669865e-05,0.0029312752592274283,-0.004944336882883164,29.617043600384882,0.5402862629767042,0.014207075412950377,-0.09395419978637504,0.2981399227761079,22.944517027658254,0.48371664902136197,0.00520785014012387,0.08054188421235076,-0.25427543863788443,17.934015650903326,0.4297924284236957,0.009857137676521669,0.0029141249624901056,0.2347613549368115,14.583543052837921,0.4503199666783636,0.003330898790298828,-0.050506439741760945,-0.4684186778491813,15.455591939672303,0.5378201274842704,0.001114873416962151,-0.02001349999317692,-0.04826357495557624,21.776287347394966,0.43424130544387557,0.0012698103586296576,0.00965979578287357,-0.4727376395796705,14.236379318058692,2
0.628579267028022,5.801437229362121e-06,-0.0003335019361356828,-0.08941342592001272,29.63382142666638,0.6285402634501529,1.3071068423672238e-05,6.628003156927686e-05,0.03506254591024794,29.63068196741244,0.6285013721578749,1.0616106630191674e-05,-0.0015810004093262942,-0.028571180525221063,29.626833702215507,0.5380522196365746,0.014136661810644054,0.06203259511914122,0.32592188126365224,22.758627303176016,0.48433783952220344,0.004943260287023487,-0.011100295714826014,-0.24531861768595847,17.959536970717412,0.42837584980631305,0.010045616670787133,0.0851739615285323,0.2634832718486545,14.506315785934314,0.449527403766529,0.0032382058664472057,0.009897375433849831,-0.4473242339281728,15.395243739397795,0.5380626873983045,0.0012396396375546849,0.010466519304187627,0.09515221045027787,21.805092500950472,0.4343404545388148,0.0012445306769470407,-0.013309132957289138,-0.4811439952347986,14.2409675537679,2
0.6286074693480366,5.649345274210858e-06,-0.0018365619279294698,0.005868392670892415,29.636469340560996,0.6285326680312578,1.308157242566126e-05,-0.0020032444153159634,0.05080145605201624,29.62996664504635,0.6285541447306745,9.981000595343312e-06,-0.0034248823220268676,0.04837652434389915,29.631762058402288,0.5359536529687199,0.013602582846477553,0.10084087531653607,0.3128282691545067,22.550064990427966,0.485403360473128,0.004632871341071186,0.0661594407561889,-0.2694631475201253,18.014064156134673,0.4285113945945582,0.00814451244118325,0.10914358248044731,0.23825265850223176,14.374345067950548,0.4498188639043919,0.003230529983052666,0.10194854400290443,-0.4205710495191751,15.414334993063736,0.5378410654780623,0.00117198621706587,0.0485178773838541,0.11415354182744877,21.78220285865617,0.43301174394677644,0.0011421409283315076,0.011155439750561602,-0.45530242385692066,14.146956208383683,2
0.6285066402875109,5.4812337419573594e-06,-0.003210457714606263,0.09631446088256264,29.626950377709008,0.6284561312740858,1.2408793452255004e-05,0.000837190503188201,0.0782018356122492,29.622701420914797,0.6283999664745447,9.578886097024992e-06,-0.003949219099482315,0.13737040848767945,29.61719767746185,0.5407657033175085,0.01388006846166778,0.1293770099972269,0.2243511605654246,22.95919100749939,0.4823349735795716,0.0048529145674220155,-0.12957453530805652,-0.2614005749560601,17.807642683339687,0.42981326175379525,0.008247770948918884,0.17980122746280253,0.15672209546466448,14.465793048677739,0.45061928465475387,0.003219110483138554,0.04328544605532508,-0.48339990861892884,15.467544653459411,0.5370526197382637,0.0011041661411949858,0.03632509633459291,0.12305338752158611,21.713622022028332,0.4351815053067861,0.001076836869702077,-0.013464595875589735,-0.5263164928934323,14.283406620438972,2
0.6285637788799961,5.138515079336095e-06,0.0037300687756576245,0.07943985354315573,29.63231205910844,0.6285192110078538,1.2200888765033008e-05,0.0023836307776839982,0.0484304797208444,29.628632761213733,0.6285059361767291,9.53673279213956e-06,0.007069560083516224,0.08194329370067867,29.62718410393062,0.5373023273413379,0.01394831461481657,-0.26829734220116924,0.2581641409443134,22.684209603977795,0.4838112097886641,0.005094816074020021,0.12053557127845893,-0.31739050740873664,17.932512893265294,0.42861458796884544,0.007974517806166662,-0.15053721320001412,0.20754826308880153,14.36839919413407,0.4482397986228905,0.0031767967121109817,-0.03297531827943401,-0.41725318161399855,15.304001736907908,0.5384546650374279,0.0011989837185008398,-0.08657301291724218,0.26429764907113396,21.833731767711694,0.4346631710832572,0.000977874791017879,-0.04158932652128977,-0.5326770197242269,14.242268156746798,2
0.62860958454509,4.97728572529529e-06,-0.00062898091308905,0.03571900152374481,29.636619052789968,0.6285614925872595,1.315955724604626e-05,0.004326800961064303,-0.05564841641309809,29.63269005450046,0.6285653236602661,8.987157413677557e-06,-0.0019349759141097378,0.04245251150890075,29.632742507758735,0.5346312513286035,0.013528933010746704,0.03607625148916188,0.2967462427559833,22.438434160084377,0.48544288346156167,0.005241343311699521,0.11619155164000161,-0.37051172557412587,18.061968887826417,0.42752724669510217,0.008175611312888537,0.007227056949906996,0.23429330597977494,14.31346123715586,0.44888454008168027,0.0029833387256578497,0.09641597319658174,-0.3125485744374446,15.333066840024301,0.5380526717055577,0.0011294064023722925,-0.003526299984632386,0.4631823245201627,21.79612688848721,0.4336327391611415,0.0009059364792835241,-0.014366004791549425,-0.470871582135999,14.169840734896573,2
0.6285028626096032,4.015430108923038e-06,-0.004434243109954994,0.15942149378130052,29.62648576496299,0.6284808879618492,7.5677159616230285e-06,0.006370388910455049,-0.1360252272751289,29.62467700097975,0.6283973181519616,7.808462925436215e-06,-0.004669815911498176,0.15558498588931702,29.616817035799812,0.5406804292218365,0.01303689925556391,0.21375856261287063,0.24080713293406808,22.889880035674924,0.4841185227203374,0.005043703021612922,-0.22728940732433084,-0.36156492522081674,17.951039826668502,0.4310566312852802,0.007637883439493684,0.10121090875407679,0.12959601798429607,14.500939827648581,0.4518585742865482,0.002805597276576609,-0.031184786713068013,-0.3522321253249695,15.52082703518707,0.5376121299364198,0.0012329504696723165,-0.04155940492961818,0.4108067748314713,21.768248503863806,0.435032169696984,0.000858049797271879,0.04539149299909451,-0.550798217331929,14.257469835343034,2
0.6285523988415693,3.6632946951864324e-06,0.0030967264258073834,0.21960051377271853,29.63112994051929,0.6284281188794973,6.1801342759395944e-06,0.0012683992548829792,-0.2921457395389852,29.619599874818203,0.6284237244425022,7.167389372586189e-06,0.00548310393182061,0.12430175485568891,29.619258694977514,0.5404797760450745,0.013158686301201384,-0.24813069237426333,0.23081476484837452,22.882621909818944,0.48111498256849455,0.004431854270260734,0.11231966937329702,-0.3651718510968667,17.688329199890507,0.42990904796545143,0.007172950376491477,-0.24327820369020875,0.23060345153399428,14.392432542052434,0.44972752050916615,0.0024118005063345368,-0.050284489465321824,-0.349422709659003,15.347586440217947,0.5384788253756029,0.001402951158174403,0.10027260131160054,0.4124449527941811,21.850776789046584,0.434754766174323,0.0007782172471864485,-0.04546531102242557,-0.5168787437825062,14.233466079638568,2
0.6285692951799223,3.2159580732440747e-06,-0.001682500793755204,0.14829540532701446,29.632689894121235,0.6285094499130229,5.9713802124744646e-06,-0.0036889986577456346,-0.31119552712411397,29.627251529383518,0.6285312448083138,6.6338971593186475e-06,-0.002236791914244085,0.025734281068575466,29.629355335911434,0.5358291409689553,0.013138320449260015,0.0875727842790453,0.35501054056859876,22.505700836609876,0.4851788252318087,0.004211771408440972,0.011379397502941702,-0.3992575015466303,17.966558018223473,0.42786956034225343,0.006294102396403592,0.08424284583374975,0.27616850856377884,14.196190627394351,0.4490183343658718,0.002076470362968854,0.07725675068695609,-0.3083942768772938,15.274968651612328,0.5373549817370936,0.0015163935236768653,-0.002135478185292028,0.4255246289504109,21.76849135057751,0.43416852065998635,0.0007261403093521067,-0.02976672774050343,-0.5482992917599818,14.191407207798129,2
0.6285390235943756,2.425225740841761e-06,0.0009046855737474546,-0.06815285065442647,29.629777280277647,0.6284585201157357,5.197677379966975e-06,0.00026099475419316676,-0.5398205004137026,29.622392991080655,0.6284613153784075,5.793226421264682e-06,0.001365507658844911,-0.04325269854579085,29.62270056829203,0.5386019352822858,0.012411870478178712,-0.03568498414893795,0.40406349359475,22.675381767122,0.485121999742668,0.004167865886160979,-0.039089177735449065,-0.41607464608383965,17.95917367315031,0.42909013233741394,0.006114895234585265,-0.06753976544253654,0.3146931022779064,14.261377872559768,0.45048430292298114,0.0018180031230863544,-0.0828152019498255,-0.24079176825945825,15.354740269608705,0.5379359964054938,0.0016202718284240448,-0.041819497277232665,0.39231780407609657,21.823035332461238,0.43497567017673316,0.0005831009513391303,0.03066557663484326,-0.3515011932819857,14.233436993826455,2
0.6285663052708704,2.5668307327890157e-06,0.0011056399803134331,-0.13072369184333138,29.632359954614703,0.6285316755691609,4.4663882751461e-06,-0.0027971362519871867,-0.42560224328993934,29.629235552265616,0.628441116034511,5.814693723900176e-06,-0.0005061597133022566,-0.08514150279493098,29.620798011538206,0.5403708592811046,0.011260726150077676,-0.05217722501335986,0.4437413313339912,22.733343652120706,0.4826191011690599,0.004378760527866495,-0.0368422118560065,-0.38226344939986906,17.79311804005447,0.43060307553786337,0.005996620662837996,-0.07314441320032344,0.25702042796443947,14.35017557875003,0.4500298232148418,0.0015630903283647712,-0.020190728610742337,-0.3741020610620627,15.30518181800763,0.5372456613193439,0.001497049619755337,-0.0007706909910289994,0.4634905002303703,21.75824921734633,0.4340701029308511,0.0005904769772219724,-0.0003684942636951183,-0.38543730012803407,14.174959365694399,2
0.6285435833726722,4.451838949651067e-06,0.008470907092548163,0.21526182112885645,29.63035715100423,0.6285218965996996,4.866151034373847e-06,0.005271981594694886,-0.23601004800404038,29.628343183072804,0.6284665440038427,7.446014540489798e-06,0.0041169745194094,-0.29158700591701164,29.623315774986047,0.5402967474430579,0.01111677494591421,0.30949170566519857,0.4827290366840524,22.716684493313707,0.4839904536306117,0.004204359228356402,-0.11425452969519206,-0.4007725351842999,17.879629523315778,0.4308891986458852,0.005598870840678857,0.14610524376209116,0.21535990239518865,14.339229055437219,0.4502515995080263,0.001528881871409534,0.0670072373388313,-0.3377139313690596,15.317624972949506,0.5365696596102387,0.0015741261543826392,0.1163033886443956,0.4870761165681702,21.709510306492874,0.43413604904995023,0.0005727703208582935,0.028321487577486204,-0.33988213338765877,14.177943185096073,2
0.6283426086944126,1.4158657107236978e-05,0.007137557929721816,1.1158499236748711,29.612130283193412,0.6284093658914326,7.469302494527409e-06,0.005930681789857339,0.38356119619306234,29.617927563890024,0.6282562752239704,1.659992282319966e-05,0.008083084804902607,0.5795069636995457,29.60417444616121,0.5401485140363241,0.0122683591592681,-0.1574807394284619,0.5049938615586407,22.789889868959527,0.4826396167295959,0.004340455607510389,-0.004332010943408404,-0.32905016468348974,17.791768687722602,0.4301713499227118,0.0063043576088231525,-0.09014758903077724,0.30956461253117573,14.34507673512752,0.44994774243171376,0.0017421215804349,-0.17412658064223735,-0.4555456764086373,15.312889815906875,0.5380263876583977,0.0015646184625013665,-0.018815190774863266,0.38418290207666256,21.826211302480942,0.4350095229071595,0.0006205051032005974,-0.05404475356743521,-0.3208584869061319,14.238413754130432,2
0.6286365714244377,1.610374804716987e-05,-0.0030746445457859872,1.0344377240726568,29.639987097275903,0.628562024140798,7.697958086853735e-06,-0.002425659769695554,0.2650567140112622,29.632336013296694,0.6285883240799134,1.8023991426525325e-05,-0.000698261906273312,0.5106962667529883,29.63557986308512,0.5366804553569435,0.012441886696721485,-0.08852241075439493,0.5953190628560231,22.522642952717618,0.4854364095740953,0.00522574381926782,0.14497449877071322,-0.46405074478017433,18.06034312313998,0.427638278431565,0.005965350975606347,0.14311494636544453,0.3968158830364605,14.157023260688327,0.44874587705881114,0.0015600669206960749,0.07727662299036386,-0.5352947205196414,15.218409615427637,0.5381221708826995,0.0015940410435769607,0.005250391925540443,0.39260341605730126,21.836119346887887,0.43354743483427466,0.0005958597028579714,-0.060794911368663995,-0.26875563593049917,14.141346986864958,2
0.628574931208022,1.697904119558551e-05,0.0029211770475112697,0.9811027810716969,29.63423975978619,0.6285142396932931,8.071702929099308e-06,0.0024258840874250565,0.2954245553301859,29.627858518309623,0.6284846088664265,1.9207935677868886e-05,0.001644897128273759,0.4854469273463255,29.62588915588904,0.5375144157194052,0.012275750815031765,0.004840964992214758,0.6247007498535248,22.57753659327536,0.4854088388939364,0.005977409735287514,0.06621413703744183,-0.5318135866482719,18.113958886138224,0.4286732416587685,0.005680705869308331,-0.09354288200657973,0.4732326788232354,14.202428342896587,0.4502620434594403,0.0012757818591895057,-0.015014427475593617,-0.5885381843669366,15.29960094110035,0.537696816359713,0.0015652168576542177,0.002608983755240657,0.31157522023824447,21.799666021719244,0.4341298679325976,0.0006723333660016375,0.06880279291711416,-0.2579243716682494,14.184908336422218,2
0.6285164710856395,1.6952659612503625e-05,0.00017292859777673364,1.0251969117987036,29.628726078757243,0.6284340294070199,7.49871674729936e-06,0.006432228205893065,0.3454181347498288,29.62025460379502,0.628436831226397,1.9164925776787545e-05,0.0005076316981830198,0.5128519678961944,29.62138201764811,0.5400778247830513,0.012245062951417035,-0.09159704204061675,0.5668398339734806,22.78243892008428,0.48297844969289705,0.0065216330172839015,-0.015262577091947338,-0.4720370258874176,17.977714558360578,0.43124914748084286,0.00578136952505103,-0.08405358815185449,0.39885306945478183,14.376008385075309,0.4500841362949808,0.001261138812756158,-0.04406808582504479,-0.5563112110092238,15.28650400297387,0.5372855454168279,0.001625732358513584,6.956545960634664e-05,0.23002458266472148,21.77098599306938,0.43493413206511716,0.0007333912062905145,0.0037499795049656393,-0.3822376219783432,14.24184839190825,2
0.6285921987035299,1.676832767589473e-05,-0.0015493944302037432,0.9895448006442488,29.635852276568368,0.628445741750703,6.702832313322167e-06,-0.0009830181126002646,0.5990724420996626,29.621299783935537,0.6284993599359565,1.876762098781097e-05,-0.003713537162004732,0.49005183411021785,29.627247211946145,0.5373267472654626,0.01118521744966045,0.21458114318666244,0.6617950116630419,22.481708590791044,0.4844039014698759,0.006298637037898083,-0.04705061058984533,-0.5629477310926919,18.064634622747253,0.42818268612967797,0.005062254439976182,0.18557709096605307,0.46947855206973615,14.125137781150205,0.4494921765127276,0.0010640279442720054,0.09859297590406246,-0.5461548793642416,15.23197932383731,0.5372859366748998,0.0014531429816230781,-0.06783865299082004,0.23616367853918405,21.75824591178694,0.4340059959857,0.0007414533403721754,0.021940813233743695,-0.34328586203283723,14.181957888553,2
0.6285908269686339,1.6685336762554654e-05,-0.0013805763923357972,1.0001557002673556,29.63571679610375,0.6285188435802588,6.2907066998639275e-06,-0.0015920522421107863,0.5439068261834032,29.628160767455718,0.6285066753215499,1.8522559965619517e-05,-0.004192321526233944,0.4941629576078619,29.62791873871857,0.537002076845886,0.010805008903205729,0.15952672842595306,0.6608137579901261,22.427412949096833,0.4850798407642609,0.006125125620605639,-0.07081473175563785,-0.5940466719828602,18.100943189615876,0.42938059699076625,0.005245796863063367,0.16349077711923582,0.3644552373304191,14.215766248277701,0.4504466200333571,0.0011096247791759792,0.04947404370930253,-0.7001305053221923,15.299774046119687,0.5376056957124637,0.0014235993496148555,-0.0330484017993905,0.2648125218360803,21.781837656557666,0.43336710261938055,0.0007327354723663002,0.04752220383889305,-0.30833021425451135,14.139750847408857,2
0.6285939498161494,1.796311154658968e-05,0.005111991701157503,0.9459173913782659,29.63610580116452,0.6284479978522594,5.69989216482383e-06,0.0024585308602270706,0.748349436652981,29.621438242358703,0.6285295504724253,1.9370812219925132e-05,0.004628542545321079,0.5063549038744415,29.63013812638446,0.5382309590787737,0.01035875082086692,0.03824885614742313,0.629155825821308,22.493489959058387,0.48405130063080254,0.006081365752336725,0.0037996017632723755,-0.5689031769099606,18.022945688850783,0.42921366768268077,0.005588945031538856,0.03784681169687276,0.19988860354540453,14.230409871755285,0.4500453650655021,0.0012786989224081674,0.030310600054524184,-0.6797354550749679,15.28518601652878,0.5371795006654267,0.001562436016509663,0.014657166343722772,0.16022565352943605,21.757756460358515,0.4341975543260641,0.0008069005079440274,-0.010217392680903936,-0.2865617891118958,14.19927435129301,2
0.6284796073699233,1.8366605043117716e-05,-0.0015618716883600836,0.9830549532851958,29.625355394762156,0.6284917426887867,5.897042822190273e-06,-0.0013919948912706204,0.6480240930615049,29.625576678267947,0.6283921129647833,1.948859029145302e-05,-9.355975764069324e-05,0.5835896663526089,29.617190728407422,0.5389351916959959,0.010058394809386532,-0.10776087919561422,0.5728354352944632,22.5281567795246,0.4835443850635783,0.006806504813333371,-0.039415765001311776,-0.5572923278908225,18.039819280675225,0.42983396830250276,0.005529156196833076,-0.04434707446527092,0.06609963858968061,14.26595058156642,0.4493959308045065,0.0013807756654443924,-0.06904545581210142,-0.5540413446470812,15.248930096016547,0.5378872776445263,0.0017190817599625635,-0.10425531905725488,-0.0417317175388445,21.826416309125218,0.43453870517873044,0.001017688581105273,0.044412600193687424,-0.3422678922854209,14.237100427382359,2
0.6286083717406991,1.9098111915487463e-05,-0.0030753927564869388,0.8758154991900602,29.637549636968718,0.628498610401481,5.802392046871007e-06,-0.0023489156768745634,0.6428727134452648,29.626217122755907,0.6285016850100857,2.022901904708091e-05,-0.005454040450114217,0.5060294552673156,29.627574551948268,0.5388702558456246,0.010622019988233086,0.21537994698962337,0.5946805252669087,22.564615926763913,0.4841927578221627,0.006944998940260218,-0.09625833314141274,-0.6153262673928197,18.097126926136617,0.4309338926747055,0.00668954689303081,0.248376652182777,0.653235494942605,14.422827959267375,0.450690806625183,0.0014128586386705914,0.06310246967423372,-0.44703813726751085,15.338716777495982,0.5386296966605658,0.0017254231477649372,0.029099233609639064,-0.16740993867200224,21.8868275722836,0.4339914843477851,0.0012051530147505522,0.03457108696196043,-0.3783249992715207,14.215326959571076,2
0.6285272583731767,1.9272169868615133e-05,0.0006918259760172463,0.9088076600352524,29.629914729427927,0.6284723565643656,6.458094770647465e-06,-0.002788523066257209,0.49195937493718545,29.62379062143055,0.628463893439632,2.0419033141143105e-05,0.0014319533770655868,0.5123194933711843,29.624025910250026,0.5381696283961181,0.010663387941762786,-0.020429241695457623,0.58535846721262,22.511081877291637,0.48428078843509925,0.007088728041750444,0.06412528164398595,-0.5817880151120467,18.114157028638623,0.4292974396690161,0.00762080399044414,-0.008765954078112426,0.2850171825689598,14.386161373270808,0.44947758297086743,0.0015579069113641662,-0.015862701616995822,-0.42576872541004035,15.26754243094092,0.5372979250063064,0.0017804083358418106,0.0020100247757508516,-0.05876914938907292,21.783429733058473,0.434403232018214,0.0012056596684942584,0.02052507265154646,-0.390644486956675,14.242181414558845,2
0.628357106176958,1.221547160869575e-05,0.011563762501579533,-0.44112259437093826,29.613352911130093,0.6283983189720197,4.6304973970140994e-06,0.007511802685628122,-0.7124087971191256,29.616676203321905,0.6282950876143562,1.438865351078484e-05,0.01054805424924199,-0.5012553241628733,29.607668544384655,0.5381891610921737,0.009954359988969387,-0.011569819259443226,0.5669098508312519,22.460190622966064,0.48563813180063725,0.007380255854582482,0.0024709485260636654,-0.5924027876332771,18.23446856265009,0.4294434752603462,0.008226622894167715,-0.017142355547347055,0.25734276715589155,14.440397477444671,0.4498533643788909,0.0015617782808836,-0.04490770502285585,-0.4649048902518961,15.293175301010923,0.5383465651247671,0.001695871955577278,0.0168120501006519,-0.19760937963082095,21.861771338335345,0.4338416677419176,0.0012893445948297833,-0.050413708436695015,-0.3920985930573662,14.211805950199041,2
0.6285022442983552,5.68492038161214e-06,-0.003317049146534523,0.3782370439085535,29.62655101571345,0.6284853361021903,2.9227132535022928e-06,0.0003339663003988358,-0.40553897906682085,29.624752607941986,0.6284452240813565,8.354447506029573e-06,-0.002818724450895038,-0.04490573653423414,29.621373204415423,0.5388066579622033,0.008882261796678573,-0.04571794879248958,0.5157241598586303,22.430733472784134,0.4848991054299099,0.007832842921655685,0.20855367378336565,-0.6168613658887576,18.214166059707033,0.4298500708471003,0.008778775200732395,-0.06283370483294526,0.21088907251539388,14.507460620398478,0.4503042692098805,0.0013323830417781705,-0.01782304136678936,-0.35065724063015763,15.30664146023992,0.5377104167607565,0.0017001526640482505,0.02282084616319685,-0.15588271598816,21.810748219116547,0.43412474125031925,0.0014139712089975115,-0.005362001816188289,-0.48293302354118356,14.239455691890061,2
0.628589590569283,5.102001328072044e-06,0.0013805842822498526,0.4082366282071328,29.634743051002697,0.6285228044582652,2.905482083390478e-06,0.0014577805769102614,-0.4144568973422663,29.628283684980378,0.6284731394007298,8.351461925155443e-06,0.0005494809296276992,-0.020167674656671446,29.62400452929815,0.5402676555423217,0.0096027461542454,0.1033298601947294,0.5860159371311723,22.60228868730391,0.4830959104263148,0.0075168030795546015,0.05924485642214289,-0.6128422816217476,18.059867828184284,0.4305197362433263,0.009200737135055313,0.14251178599188918,0.2855039194533892,14.581897795120836,0.4510239983515872,0.0013257794552190485,0.0015253672118420991,-0.3650149561077977,15.354806211365146,0.5371879290220962,0.001657146298315506,-0.05288118108122408,-0.12801955991234612,21.765444157604005,0.4343402516646453,0.001457172326998166,0.019448214921274964,-0.5065869434014652,14.256689818405924,2
0.6285022407322067,4.6265042482406105e-06,7.449961857419751e-06,0.499547658463055,29.626472356719734,0.6285061495103059,2.6062313606184496e-06,0.0004976851542065619,-0.5219984466788308,29.626691359041004,0.6284353856887772,7.882537059393527e-06,-0.0009871895693897015,0.004168973505281329,29.62041085667756,0.5386587588459921,0.01051449801357904,0.07875815364458588,0.5481943167343811,22.539567239117705,0.4846476033180474,0.006531552134335885,-0.08354362664589199,-0.6013639648816522,18.09958231308541,0.42817974403620895,0.009416086726955722,0.03908842718567579,0.2881171979513146,14.44713240801323,0.44940503215203215,0.0013362288279976015,-0.06377224870799286,-0.3450729765396097,15.246247152539496,0.5380322961734121,0.0017431783577119891,-0.0661142270674791,-0.09607069726551025,21.839901577893247,0.43510487606850223,0.001501322520172039,0.008446126972613321,-0.4470722085396816,14.309816854886733,2
0.6285486320440561,5.015625043559697e-06,-0.0005153768151959781,0.3503549705933043,29.630874869587295,0.6285133192269053,2.619701602816682e-06,0.0008152987642956466,-0.5007041777869039,29.62736829134024,0.6284990669664561,8.477227281654145e-06,0.0012583788203458512,-0.11344520306172529,29.62645810314677,0.5377739712305495,0.011133813624590533,-0.02270352733583486,0.5728176184402054,22.513965518200397,0.484787349443032,0.006735601560598573,0.06097615113452054,-0.6105287824636276,18.124842578984325,0.4298713916102726,0.010678376692313985,0.039122041737264024,0.23553750520032166,14.649405874602666,0.4503828478554442,0.0013156001823825833,0.005886477887363628,-0.41516727749185833,15.310707636674826,0.53816960733098,0.0018591368305664628,-0.05128613663459358,0.0038089482429054956,21.8595655945705,0.4345653480709361,0.00158454309335044,0.017679365985819984,-0.4270752912050851,14.280784319708971,2
0.6285798140402988,5.30844400381708e-06,0.0025106799992178352,0.2849507501164357,29.63383652127653,0.6284985140725673,2.8757221073779356e-06,-3.3176101061904717e-06,-0.5518231061476995,29.625991467792836,0.6285216042136706,8.901219148674442e-06,0.0021014229501588044,-0.13108304957348615,29.628614212466474,0.5366792195928369,0.012140275051821664,-0.11021779376281993,0.5443123330693662,22.500224209543035,0.48483120057018,0.006918984028120847,0.04995370408667332,-0.5576551192941285,18.1416017965551,0.42892763323869065,0.011353571064313969,-0.11446012832273028,0.2100843816543957,14.638582850440088,0.449018003845106,0.0014738707992005696,-0.02067310911099518,-0.30428677886290934,15.230354022419112,0.5377920357888328,0.0018063949760840704,0.000945749082347791,-0.012106893338672363,21.825193760072523,0.43297955735949906,0.001642797079233423,-0.050930288756601994,-0.35676965632949864,14.181914265705355,2
0.6285826020517958,5.447601140606614e-06,0.005743570436336332,0.2511072327746817,29.63410969264988,0.6286009666468835,3.924157467885659e-06,0.004672988950640278,-0.1731233345774537,29.635728532857335,0.6285832317366998,9.199387552575838e-06,0.0037033558496082364,-0.1950950992955393,29.63444669622041,0.5348121475749673,0.012241414117623143,-0.008101435018970926,0.6058524085297504,22.357667134235257,0.48656294424295604,0.0075580039601550195,-0.06722804194575727,-0.5745353497619277,18.31505469632952,0.42730367073313724,0.010933525803273555,-0.16227489336670048,0.2670963498384185,14.503212936093249,0.44966744349687143,0.0012775081603040427,0.0019476471703061549,-0.226070409738262,15.25959633443841,0.5386556112102813,0.0017410463223261983,-0.07361675981081262,-0.0035577636180386687,21.890077489476266,0.43331847719138344,0.001718597826904248,-0.04654958287942912,-0.35340457909832507,14.209543939850379,2
0.6284582856298212,4.203620543858509e-06,-0.00040319878657413266,0.04070669965893896,29.622297326178302,0.6285321297691925,5.680550003294143e-06,-0.0010463516114670446,-0.10464235826025502,29.629368222115012,0.628419763671574,8.92936547115499e-06,-0.00042159930636898046,-0.33312067410555607,29.619015726022635,0.5378388457434252,0.01230667679626837,-0.0033762893854156206,0.5308792034507536,22.605990882220357,0.48591678866801014,0.007678710197310333,-0.06928504205528091,-0.5084117026586213,18.27685896780833,0.42982395725466543,0.011714656798538748,0.16913696145533763,0.30447047006507905,14.723032170346404,0.448708411403339,0.001068199745559189,-0.017681749673084557,-0.11597715120825908,15.179489665979492,0.5384702700468225,0.001578389220615188,-0.11386380309797661,-0.04959671998936716,21.86306818164787,0.4336667990643273,0.0017203036465348463,0.03732113935960302,-0.42945742196506603,14.232319415646044,2
0.6286533311709127,3.689262031145112e-06,-0.005508968304162587,-0.008222501270880173,29.640648814811698,0.6285427687645521,5.537792511235187e-06,-0.00132780826848522,-0.08118934896490518,29.630360709111525,0.6285436690286497,8.729511030417294e-06,-0.008643529449613108,-0.4096654096163168,29.630681774515992,0.5382595621674926,0.011990741140302422,0.2090435951150707,0.5189152838076004,22.616566564237942,0.4843728888696981,0.006911194676638052,-0.10612570156421414,-0.4577049862631929,18.10771056646949,0.4301749788963764,0.01177763538459062,0.028329972086356126,0.3137137591225668,14.75033345359705,0.450346786536417,0.000991527207484704,0.04198476569705056,-0.23051313025480127,15.284290124129663,0.5380906234151245,0.0013433318933161662,0.113700087002501,0.1415091266433744,21.815020485651203,0.43314103762827033,0.0015820971781185232,0.005863710685806434,-0.42284512126407026,14.187912077007875,2
0.628496519989909,2.9168127072408346e-06,0.00031123272717614725,-0.31471296237183916,29.625806517097278,0.6284431823083455,5.254695163656606e-06,-0.003251090907982146,0.010134260142365523,29.620951351680127,0.6284048661854041,7.709606396425117e-06,-0.0011564492595741438,-0.47265785064926774,29.617521199285516,0.5392990295762592,0.010861902453543322,0.15371890686401868,0.5128549010106275,22.617039029204328,0.4833435464615298,0.0066137041203076,-0.1766772068414893,-0.4396516031972594,18.010987897853447,0.4302735406453675,0.009326108982183752,-0.019276967724568106,0.2824121879790116,14.575281048144156,0.4504507317834777,0.0007830686429605191,0.04246464136967287,-0.23233293496914306,15.275886711899371,0.5375253494351173,0.0012501366697844493,0.0095381508471849,0.1975915489891028,21.76252270996493,0.43487455032992545,0.0014583835518187781,0.07039045661407328,-0.4232142700117851,14.291610972183713,2
0.6285207968877627,2.611903187151587e-06,0.0007482521614943227,-0.3004913672596081,29.628072689867977,0.6284505055156894,4.787126087485215e-06,0.0009961247919900718,0.02641405856371161,29.621607088549894,0.6284068555963045,7.348436256063291e-06,0.002190214046463912,-0.4826775800384653,29.61768199631557,0.5413672797290618,0.01087231377865157,-0.14508368761605905,0.4960491072721134,22.78544108671354,0.48236244137606427,0.006325679362927235,0.002226438941876796,-0.4478305570382759,17.918614636627392,0.4311757414867349,0.00920626614986603,-0.27218632773423257,0.2535295296034057,14.62470269858776,0.4499100583610174,0.0007398790268171767,-0.036196957091733706,-0.18840335659078108,15.236180594065528,0.5375548536189372,0.001345629059863505,0.14210348037456605,0.07076959334892693,21.771968099125658,0.43542949116835095,0.0014599576240488252,-0.0007761803370757159,-0.4507254768440491,14.327949997614285,2
0.6285310386762513,2.418443752113005e-06,0.002308233439259011,-0.3328976947429383,29.629023958296198,0.6284989949445293,4.6706459873355604e-06,-0.0016749665808772907,0.015480127618634884,29.626169626274336,0.6284499903593393,6.8826469886516256e-06,0.005854141378752953,-0.5381372160090971,29.621713594576196,0.5394667026710336,0.01028919988953419,-0.1551532876767283,0.5597883257659263,22.58822503863233,0.48381925487348126,0.005702440117832243,0.15449834474629942,-0.5085881987707223,17.978060922694386,0.42910689259102897,0.007440492282176858,0.02164446491104388,0.19698524366029382,14.360550824065752,0.4507550984695461,0.0006967040410082177,0.026056444863893302,-0.08001268256573443,15.29006800875637,0.5379805167893074,0.001371546859852356,0.014548464871364297,-0.10483378491181938,21.808222200995846,0.43537168900322676,0.0014620254702824716,-0.012588080251704381,-0.3712022134172813,14.324327953715079,2
0.6285783612082301,2.294266893093752e-06,-0.0009357017602141804,-0.32952523789387006,29.633476489191903,0.6285409964703448,4.984101422117057e-06,-0.00021029640909819847,-0.05554008906177913,29.63015264180029,0.6285166594845892,6.042063005662916e-06,-0.0011472267725977092,-0.622077939580271,29.627936456387456,0.536710200132874,0.009577313310735264,0.0350389572216781,0.6325280240655349,22.313059104494627,0.4856270065031889,0.004413115029976696,-0.05223618642730854,-0.3970554615771206,18.014089720611892,0.42853978663310066,0.0069196630007758485,0.060083161116042616,0.3287243193577287,14.285531216623166,0.4504737188028765,0.000771803666283691,0.058962962542875974,-0.08430020165029897,15.276606321211977,0.537849253017297,0.001394345934995107,0.002678146912006185,-0.06962300257037292,21.79931802203446,0.4349255883576303,0.0014435423157839974,-1.882021415922086e-05,-0.23358426925731693,14.293842186985332,2
0.6285834005392955,2.1794447946761465e-06,-0.00097987370935404,-0.30607442211653596,29.63394313643064,0.6284094418228835,6.091021104570489e-06,0.00029092231622429576,0.018738287729680687,29.61783272847284,0.6285071183605146,5.3063980735668665e-06,-0.0036723892273489156,-0.6251608221729862,29.626982510695278,0.5374604156142024,0.007409578629891934,0.18426423410484177,0.5668518380325676,22.213086195026342,0.4845015869347562,0.003800707156339512,-0.06643704175391146,-0.3877243241725511,17.886886410241406,0.42935430127769775,0.005787325876536113,0.05269192896198954,0.2742270961982513,14.254145816788174,0.45012031439353223,0.000685607723863153,0.039258154081225516,-0.06794470973059659,15.246357278795804,0.5368192383611429,0.0012883721096882844,0.039510230532732615,-0.07210743637429454,21.70845663671474,0.4344658983969662,0.0013718908252824474,0.056457199287946125,-0.18778268821505348,14.25856618631212,2
0.6285167989157228,2.053872862556016e-06,-0.0003707223523219394,-0.37265451661980004,29.627654475536858,0.6284460768880785,9.626465092065969e-06,0.0034039863019623695,0.22290374576933764,29.621547725118067,0.6284519528998175,4.711419331811989e-06,-0.00140943586481046,-0.6998546239161987,29.621737927800126,0.5375678286790329,0.0065543498796390934,0.04982149118150614,0.5914879900935868,22.158459673395047,0.48439641842612985,0.003470626984098524,-0.04648571184652417,-0.4224022050133941,17.854818160627957,0.4290868429064284,0.0057181391936421775,0.05206859108920181,0.2634286631195227,14.231806206984972,0.4498292100112987,0.0007583259887066396,0.014597995013417908,-0.19092353429248834,15.23208998661847,0.5379125424986391,0.001270048533653961,0.008750176925867992,-0.14085282518261927,21.79522634479166,0.4346187151101487,0.0011484955585798918,0.03686006665882807,-0.1459750437523289,14.251995735634658,2
0.6285237490435756,1.8879265165718127e-06,-0.002375807805206409,-0.3266907001272934,29.628297439946586,0.6284681752382465,1.0259123271694477e-05,-0.0037854524675556833,0.23899433780019722,29.623677721668955,0.628423898082424,4.686648519033657e-06,-0.0027198498180401876,-0.45708651725324034,29.619091488073572,0.5409884783082329,0.006549920989923727,0.07130991430795142,0.49445381678346534,22.434834177923666,0.48308856200747036,0.003339233293085863,-0.031935591107438155,-0.3705157372020159,17.75019516937176,0.43248708267900166,0.004247815365872167,0.018781088739538543,0.40647908997309945,14.342719088389059,0.45094897026137254,0.0008187086472220612,-0.014131125762451069,-0.12742314525577883,15.312207473378848,0.5378678728109849,0.0011243821670178828,0.02011460557373823,-0.31738713490023374,21.78084292552534,0.43421103773934194,0.001141459888470056,0.017541050536177216,-0.18890547656277093,14.224909928847502,2
0.628508529915404,1.965977655756255e-06,0.003625845978062703,-0.34846237137879993,29.626868395578192,0.6284613108543227,1.078103237243709e-05,0.0017992351095832415,0.1391848917642113,29.623069239450583,0.6283874454771535,4.789910196671859e-06,0.005543212467989167,-0.53231771062425,29.61566307585224,0.5414808918604509,0.006403825341982838,-0.11753652985946073,0.4661550702398417,22.463999794055926,0.4816381383633569,0.0033086717349812725,0.13202146148558824,-0.6607392469104343,17.64298893284763,0.4288178197769622,0.004698581212417183,-0.12016291152258929,0.36766594202000624,14.139049201588916,0.45093326477783185,0.0008504520693428877,-0.0019104806352344683,-0.1371543933330459,15.31349414937094,0.5384864670689626,0.0011849385313533434,0.03524563610879794,-0.3078117691218829,21.835261092551114,0.43553915988973824,0.0011064954536225597,-0.013391706009020121,-0.22100807671482933,14.308957648377486,2
0.6285615631092115,1.6393530764389032e-06,-0.000326543053317474,-0.3539277635342246,29.631844208499807,0.6285946159323974,9.641516347459235e-06,0.0062884854396951795,0.10113740810008486,29.63555281064958,0.628533115357401,3.906836708837238e-06,-0.00025843113447276966,-0.3573506512191736,29.62932988848245,0.5369373750255353,0.0058879910827721,-0.022866871626721408,0.49231303042655566,22.05834219257356,0.4848712631969653,0.0031423181914163162,0.04250433095424527,-0.4039393728081427,17.86504218673137,0.4280290093078411,0.003933348802714523,0.19429160086660624,-0.004878954521136801,14.03173027207977,0.4496248008140183,0.0008994882070861739,0.0024677755916657773,-0.20267799763134722,15.228746740352797,0.5384024462042132,0.0011171450394449282,-0.023004501865761195,-0.24064452684924503,21.82345828881997,0.43485888881853507,0.0010139027935205645,-0.056487046868383683,-0.24886992773062824,14.25769779555735,2
0.6285663593904119,1.5216831836839584e-06,-3.7967552345863353e-05,-0.383900208102886,29.632287716354334,0.6284880947599717,9.775087662939647e-06,0.0019636233429830563,-0.14360425060736148,29.625519750613496,0.6285105412469534,3.6427372198878513e-06,-0.0004989860855264538,-0.38784772736132184,29.627182096944647,0.5367280641359549,0.00645631066032573,-0.005793944242962923,0.586594662163001,22.08354310119882,0.4857884813615845,0.0027152775036949103,0.007071423830880663,-0.4308792293497788,17.90021418204301,0.42941165667622905,0.003479530428906383,-0.048821080894338176,0.007576367692153041,14.087063068445842,0.4501874510583371,0.0009045226398553841,-0.0611213791658774,-0.2542530940698847,15.267090257129492,0.5386108500496016,0.001257376298527287,-0.021656749702697375,-0.04111757748212435,21.8506694304276,0.432889159429999,0.0008685158605838308,-0.016362283435936154,-0.11810339047160978,14.118747000084038,2
0.6286173067902888,1.6453014136297835e-06,0.0003161330211822744,-0.36686766994466113,29.63710063202531,0.6284952986194495,1.0330207753956e-05,-0.0020090093532481035,-0.0760350642577546,29.62623996438012,0.6285299122996196,3.5750427137077328e-06,-0.001007637611435297,-0.3707601770479155,29.629003352313386,0.5357149168650066,0.006813171469229719,-0.009777134409140686,0.5922512650204527,22.028460100099068,0.48534995815137555,0.002724335445701322,-0.05608790596698726,-0.3980343972927536,17.86894446379754,0.4272352017076141,0.003400016562362505,-0.04373794717566809,-0.019998967986854355,13.941345043975753,0.4492438369422784,0.0009066809594916864,0.018659554834117964,-0.1764169331025609,15.203596268298911,0.5374827736077001,0.0014131579940168085,-0.052138894449914264,-0.15791257054630084,21.771153585934204,0.433564679445983,0.0009068118949275081,0.004501898073850652,-0.13986337317829844,14.165478924956988,2
0.6285397908023284,2.1897324585096667e-06,-0.005975312230624308,-0.5525176018608816,29.629832186839533,0.6285229220405221,1.0396379282352026e-05,-0.0013645004943109162,-0.09838300973551786,29.628849096843627,0.6284339333349972,4.676504507663859e-06,-0.007020187683769552,-0.3995172243958606,29.620036703850737,0.5393759179265721,0.008483270554794496,0.27509957328733664,0.5942917174295568,22.44724058398971,0.4832108266034478,0.003160384667164957,-0.1112671104016309,-0.25778708228977104,17.745821186379253,0.43013781868155593,0.004471309668462259,0.1998465773554472,0.22882081238529786,14.207267644975742,0.4503447151722231,0.0010361259322699697,0.07176481759295611,-0.2670437421552941,15.287450505254283,0.5370348174973029,0.0013656290415698495,0.013574080112605302,-0.10119351340913725,21.731536189403272,0.4344692366580211,0.0009304170427040704,0.08731680048363083,-0.18251848177283025,14.22611468132537,2
0.6285847612182341,2.4393587983753874e-06,0.0026909672049438838,-0.4919759774676909,29.634090665234904,0.6285704507868863,1.036410006980334e-05,0.0020835050738541305,-0.11402408383600231,29.633327813587382,0.628459187020793,5.0022798700912004e-06,0.00317306016274177,-0.33536147703161184,29.62244140002308,0.5387310620363609,0.008457893347739845,-0.06565995660626944,0.5166128473051776,22.393220897944648,0.48257694271333607,0.0032954985871745555,-0.008087920501986312,-0.23813838990940892,17.709904818342196,0.4281015590889595,0.004571172787604044,-0.015173927899238382,0.22602538394597912,14.08358765336254,0.44856774225453544,0.0013464654980556692,-0.07476785967382654,-0.3183023420765855,15.19061490120597,0.5363129100249456,0.0011574545555344488,-0.028600138959021026,-0.09846927510390693,21.65801694656646,0.43593905021353746,0.0009757734020686515,-0.0076046940419252085,-0.14477586239011897,14.325421394334166,2
