sensorStatus,cap1,cap2,cap3,counter,microseconds_since_last_tick,accX,accY,accZ,gyroX,gyroY,gyroZ,magnetX,magnetY,magnetZ,day,hour,min,sec,msec,sync,battery_fuel,crc_good
2,30965,30510,31061,41916,2770,-4554,-260,-505,14,3,22,174,508,-128,1,0,27,58,120,0,53298,1
2,30966,30504,31055,41917,2789,-4560,-258,-505,3,0,19,184,506,-144,1,0,27,58,160,0,53298,1
2,30964,30506,31051,41918,2808,-4568,-257,-510,0,0,23,171,505,-137,1,0,27,58,200,0,53298,1
2,30963,30509,31056,41919,2827,-4562,-265,-503,0,-5,22,176,510,-150,1,0,27,58,240,0,53298,1
2,30964,30520,31050,41920,2845,-4552,-256,-513,-4,-9,13,183,507,-141,1,0,27,58,280,0,53298,1
2,30965,30517,31069,41921,2863,-4558,-260,-524,0,4,17,175,507,-133,1,0,27,58,320,0,53298,1
2,30969,30512,31060,41922,2882,-4552,-254,-501,17,-5,26,175,509,-143,1,0,27,58,360,0,53298,1
2,30965,30517,31063,41923,2902,-4543,-252,-518,-2,0,34,184,516,-132,1,0,27,58,400,0,53298,1
2,30963,30516,31060,41924,2920,-4564,-267,-514,1,-9,41,187,505,-139,1,0,27,58,440,0,53298,1
2,30969,30521,31062,41925,2939,-4556,-251,-508,-3,-12,41,181,501,-133,1,0,27,58,480,0,53298,1
2,30967,30516,31059,41926,2958,-4555,-263,-512,1,-3,29,180,510,-130,1,0,27,58,520,0,53298,1
2,30964,30518,31057,41927,2977,-4541,-256,-507,17,-3,16,179,503,-139,1,0,27,58,560,0,53298,1
2,30960,30506,31047,41928,2997,-4570,-265,-505,7,0,12,176,506,-138,1,0,27,58,600,0,53298,1
2,30963,30518,31040,41929,3017,-4546,-261,-511,6,6,9,179,513,-141,1,0,27,58,640,0,53298,1
2,30967,30512,31047,41930,3037,-4555,-247,-500,12,10,21,175,507,-139,1,0,27,58,680,0,53298,1
2,30965,30514,31050,41931,3057,-4562,-252,-503,7,7,25,179,501,-149,1,0,27,58,720,0,53298,1
2,30963,30512,31045,41932,3077,-4552,-262,-517,-2,-7,19,183,509,-145,1,0,27,58,760,0,53298,1
2,30967,30519,31051,41933,3098,-4563,-269,-499,-1,-22,18,172,502,-140,1,0,27,58,800,0,53298,1
2,30964,30512,31049,41934,3117,-4558,-250,-523,0,-38,4,185,511,-145,1,0,27,58,840,0,53298,1
2,30968,30512,31052,41935,3137,-4551,-252,-511,-7,-30,4,182,500,-138,1,0,27,58,880,0,53298,1
2,30965,30509,31045,41936,3156,-4559,-276,-501,-14,-26,20,174,504,-148,1,0,27,58,920,0,53298,1
2,30964,30508,31041,41937,3156,-4553,-262,-512,8,-12,30,182,506,-146,1,0,27,58,960,0,53298,1
1,30966,30506,31044,41938,2252,-4554,-256,-501,23,33,26,175,507,-135,1,0,27,59,0,1,53298,1
2,30967,30513,31057,41939,2271,-4558,-257,-509,17,41,28,184,496,-152,1,0,27,59,40,1,53298,1
0,30967,30513,31057,41939,2271,-4558,-257,-509,17,41,28,184,496,-152,1,0,27,59,40,1,53298,1
2,30961,30488,31051,41964,1811,-4548,-253,-525,0,5,21,182,508,-142,1,0,28,0,40,0,53298,1
0,30961,30488,31051,41964,1811,-4548,-253,-525,0,5,21,182,508,-142,1,0,28,0,40,0,53298,1
2,30964,30489,31054,41966,1848,-4557,-258,-528,-3,5,25,188,494,-136,1,0,28,0,120,0,53298,1
2,30964,30484,31057,41967,1867,-4550,-263,-521,-7,-4,36,186,494,-144,1,0,28,0,160,0,53298,1
2,30963,30482,31054,41968,1885,-4553,-256,-527,4,-10,33,176,514,-136,1,0,28,0,200,0,53298,1
2,30960,30481,31057,41969,1904,-4548,-244,-518,5,-11,21,177,495,-141,1,0,28,0,240,0,53298,1
2,30963,30487,31049,41970,1922,-4561,-261,-526,-5,-11,19,181,503,-153,1,0,28,0,280,0,53298,1
2,30967,30485,31057,41971,1941,-4547,-251,-506,5,-6,23,176,512,-138,1,0,28,0,320,0,53298,1
2,30963,30479,31048,41972,1961,-4553,-258,-516,9,-2,34,184,512,-132,1,0,28,0,360,0,53298,1
2,30961,30478,31045,41973,1979,-4561,-252,-525,8,11,32,172,504,-134,1,0,28,0,400,0,53298,1
2,30964,30477,31042,41974,1999,-4547,-255,-512,8,10,24,173,505,-135,1,0,28,0,440,0,53298,1
2,30964,30469,31051,41975,2018,-4559,-266,-515,7,5,33,177,505,-135,1,0,28,0,480,0,53298,1
2,30962,30465,31050,41976,2038,-4558,-258,-507,5,3,28,174,506,-136,1,0,28,0,520,0,53298,1
2,30962,30469,31045,41977,2057,-4573,-275,-517,4,-13,35,174,506,-140,1,0,28,0,560,0,53298,1
2,30963,30465,31046,41978,2076,-4550,-251,-512,2,-6,38,177,499,-139,1,0,28,0,600,0,53298,1
2,30965,30465,31039,41979,2094,-4550,-248,-510,6,-10,34,183,491,-139,1,0,28,0,640,0,53298,1
2,30961,30460,31047,41980,2113,-4552,-247,-516,8,1,21,176,504,-142,1,0,28,0,680,0,53298,1
2,30965,30463,31035,41981,2133,-4552,-255,-517,1,2,2,184,498,-144,1,0,28,0,720,0,53298,1
2,30964,30467,31041,41982,2152,-4554,-256,-528,12,1,5,173,499,-135,1,0,28,0,760,0,53298,1
2,30965,30465,31042,41983,2170,-4548,-264,-522,9,2,17,179,503,-141,1,0,28,0,800,0,53298,1
2,30966,30456,31049,41984,2189,-4550,-244,-516,255,-6,24,181,507,-139,1,0,28,0,840,0,53298,1
2,30964,30456,31042,41985,2207,-4550,-260,-519,-247,-7,35,177,507,-135,1,0,28,0,880,0,53298,1
2,30963,30458,31043,41986,2226,-4563,-256,-513,1,-20,17,183,509,-133,1,0,28,0,920,0,53298,1
2,30961,30457,31036,41987,2226,-4556,-255,-498,254,-21,10,177,505,-135,1,0,28,0,960,0,53298,1
1,30962,30457,31041,41988,1331,-4556,-251,-518,13,-4,11,183,505,-139,1,0,28,1,0,1,53298,1
2,30960,30450,31032,41989,1350,-4548,-255,-511,31,21,26,180,508,-138,1,0,28,1,40,1,53298,1
2,30962,30450,31036,41990,1368,-4549,-252,-524,44,43,49,173,503,-145,1,0,28,1,80,1,53298,1
2,30960,30440,31039,41991,1386,-4553,-256,-517,47,52,58,177,499,-147,1,0,28,1,120,1,53298,1
2,30959,30432,31044,41992,1405,-4547,-254,-524,39,49,44,174,498,-136,1,0,28,1,160,1,53298,1
2,30962,30448,31045,41993,1423,-4562,-248,-520,37,40,38,171,509,-139,1,0,28,1,200,1,53298,1
2,30964,30450,31055,41994,1441,-4556,-257,-520,26,31,33,177,509,-135,1,0,28,1,240,1,53298,1
2,30963,30463,31049,41995,1460,-4563,-260,-525,31,35,33,184,496,-138,1,0,28,1,280,1,53298,1
2,30964,30455,31054,41996,1478,-4556,-249,-521,48,34,27,176,514,-146,1,0,28,1,320,1,53298,1
2,30961,30455,31046,41997,1495,-4553,-244,-531,42,42,15,174,506,-144,1,0,28,1,360,1,53298,1
2,30966,30451,31049,41998,1514,-4544,-247,-527,36,20,8,172,506,-144,1,0,28,1,400,1,53298,1
2,30967,30453,31054,41999,1532,-4552,-247,-537,33,13,25,179,503,-149,1,0,28,1,440,1,53298,1
2,30959,30449,31041,42000,1551,-4557,-256,-538,34,-2,29,180,514,-144,1,0,28,1,480,1,53298,1
2,30960,30458,31045,42001,1568,-4552,-258,-524,24,0,35,171,505,-141,1,0,28,1,520,1,53298,1
2,30961,30452,31044,42002,1586,-4559,-254,-524,42,8,52,176,490,-136,1,0,28,1,560,1,53298,1
2,30961,30456,31041,42003,1604,-4559,-257,-525,25,35,69,176,504,-132,1,0,28,1,600,1,53298,1
2,30960,30458,31052,42004,1621,-4559,-244,-523,32,33,72,169,505,-143,1,0,28,1,640,1,53298,1
2,30960,30450,31045,42005,1639,-4535,-252,-532,-50,22,95,178,502,-140,1,0,28,1,680,1,53298,1
2,30962,30458,31045,42006,1657,-4551,-274,-532,-24,1,93,175,501,-137,1,0,28,1,720,1,53298,1
2,30966,30463,31049,42007,1675,-4557,-255,-529,41,-11,96,173,503,-141,1,0,28,1,760,1,53298,1
2,30960,30464,31036,42008,1694,-4548,-264,-532,53,20,68,176,502,-146,1,0,28,1,800,1,53298,1
2,30965,30460,31040,42009,1713,-4557,-240,-533,58,30,35,179,499,-141,1,0,28,1,840,1,53298,1
2,30962,30450,31035,42010,1731,-4557,-237,-532,22,13,23,180,502,-144,1,0,28,1,880,1,53298,1
2,30960,30451,31040,42011,1750,-4561,-250,-539,-20,-41,77,172,502,-142,1,0,28,1,920,1,53298,1
2,30956,30460,31039,42012,1750,-4567,-242,-544,-23,-86,157,169,511,-139,1,0,28,1,960,1,53298,1
1,30964,30461,31041,42013,871,-4561,-217,-529,-358,-76,191,177,501,-137,1,0,28,2,0,0,53298,1
2,30952,30454,31031,42014,890,-4589,-265,-570,-386,-95,206,181,503,-141,1,0,28,2,40,0,53298,1
2,30952,30462,31035,42015,908,-4501,-247,-525,-55,-22,177,173,509,-139,1,0,28,2,80,0,53298,1
2,30953,30469,31032,42016,925,-4559,-198,-508,-113,113,69,177,507,-139,1,0,28,2,120,0,53298,1
2,30954,30462,31025,42017,942,-4579,-147,-321,600,-146,231,171,507,-135,1,0,28,2,160,0,53298,1
2,30953,30470,31025,42018,961,-4699,-215,-552,605,274,203,173,509,-145,1,0,28,2,200,0,53298,1
2,30958,30470,31011,42019,980,-4419,-67,-629,653,952,48,176,500,-144,1,0,28,2,240,0,53298,1
2,30959,30479,31010,42020,999,-4413,-502,-520,1210,1500,-92,179,513,-147,1,0,28,2,280,0,53298,1
2,30958,30464,31011,42021,1017,-4526,-190,-577,1275,1804,-226,177,509,-145,1,0,28,2,320,0,53298,1
2,30957,30458,31008,42022,1036,-4560,-16,-684,1036,2009,-303,175,507,-151,1,0,28,2,360,0,53298,1
2,30961,30464,31007,42023,1054,-4529,-287,-673,1235,2084,-354,184,510,-162,1,0,28,2,400,0,53298,1
2,30958,30468,31005,42024,1072,-4534,-289,-762,1315,2079,-349,172,510,-152,1,0,28,2,440,0,53298,1
2,30961,30479,31009,42025,1090,-4560,-312,-839,1571,2012,-305,174,512,-168,1,0,28,2,480,0,53298,1
2,30960,30477,31007,42026,1108,-4540,-324,-873,1665,1987,-274,171,507,-167,1,0,28,2,520,0,53298,1
2,30963,30475,31014,42027,1127,-4494,-276,-849,1648,1781,-187,176,502,-168,1,0,28,2,560,0,53298,1
2,30970,30469,31011,42028,1146,-4522,-285,-960,1233,1448,-121,175,513,-173,1,0,28,2,600,0,53298,1
2,30974,30467,30990,42029,1164,-4532,-335,-1079,938,1144,-60,179,501,-175,1,0,28,2,640,0,53298,1
2,30976,30475,30994,42030,1182,-4500,-335,-1114,1139,963,10,176,506,-176,1,0,28,2,680,0,53298,1
2,30974,30460,30996,42031,1199,-4408,-374,-1137,929,879,-19,176,510,-176,1,0,28,2,720,0,53298,1
2,30975,30480,31008,42032,1217,-4473,-301,-1256,68,834,172,178,516,-180,1,0,28,2,760,0,53298,1
2,30969,30203,31000,42033,1236,-4612,-217,-1343,-250,593,1081,172,506,-182,1,0,28,2,800,0,53298,1
2,30969,30129,31009,42034,1255,-4582,-189,-1454,1446,408,1676,170,514,-188,1,0,28,2,840,0,53298,1
2,30966,30706,31007,42035,1274,-4369,71,-1607,1729,1036,2879,169,515,-187,1,0,28,2,880,0,53298,1
2,30946,30684,30986,42036,1293,-3745,1696,-2160,-2649,2645,5251,157,517,-195,1,0,28,2,920,0,53298,1
2,30985,30403,31020,42037,1293,-3949,1130,-2147,-4343,4761,7328,138,516,-188,1,0,28,2,960,0,53298,1
1,30977,30644,31001,42038,411,-4523,446,-1930,-2228,5881,8699,124,510,-218,1,0,28,3,0,0,53298,1
2,30954,30516,30979,42039,429,-4859,164,-1507,-271,6164,8517,101,507,-231,1,0,28,3,40,0,53298,1
2,30924,30296,30933,42040,447,-4714,-393,-1644,-1502,6080,6978,82,498,-238,1,0,28,3,80,0,53298,1
2,30885,30032,30891,42041,464,-4314,-860,-1726,-2017,6378,4951,72,502,-252,1,0,28,3,120,0,53298,1
2,30920,30359,30891,42042,482,-4083,-1300,-1734,-695,6741,2556,64,498,-266,1,0,28,3,160,0,53298,1
2,30918,30248,30880,42043,500,-3893,-1338,-1161,3503,6142,-64,56,506,-296,1,0,28,3,200,0,53298,1
2,30917,30396,30882,42044,520,-4346,-1034,-1123,4915,4853,-3226,64,514,-310,1,0,28,3,240,0,53298,1
2,30924,30582,30891,42045,538,-4336,-480,-1100,6316,2770,-5895,75,521,-327,1,0,28,3,280,0,53298,1
2,30914,30442,30930,42046,556,-4229,456,-1310,6204,763,-7986,90,544,-324,1,0,28,3,320,0,53298,1
2,30934,30507,30970,42047,574,-4580,3560,-646,4782,-144,-9088,117,553,-323,1,0,28,3,360,0,53298,1
2,30984,30423,30977,42048,592,-4471,320,-2161,-2124,-4141,-6782,131,561,-333,1,0,28,3,400,0,53298,1
2,31006,30325,30941,42049,611,-3742,-562,-2304,-6094,-3144,-4531,148,558,-314,1,0,28,3,440,0,53298,1
2,30986,30529,30945,42050,630,-3440,-148,-2445,1298,-1361,-3618,147,565,-299,1,0,28,3,480,0,53298,1
2,31602,30765,32045,42051,650,-3395,481,-2253,8813,-2782,-5607,166,562,-306,1,0,28,3,520,0,53298,1
2,32425,31049,32957,42052,671,-4077,-45,-2637,5189,-1500,-7372,186,574,-306,1,0,28,3,560,0,53298,1
2,31381,30444,31957,42053,694,-4325,-356,-2065,1834,-1492,-2146,193,579,-299,1,0,28,3,600,0,53298,1
2,31464,30438,31965,42054,715,-4069,-712,-1766,-1608,-607,824,187,587,-303,1,0,28,3,640,0,53298,1
2,31768,30689,32284,42055,737,-3948,-443,-1243,-2370,367,1580,179,591,-305,1,0,28,3,680,0,53298,1
2,31338,30529,32155,42056,757,-4188,-641,-1215,408,-1377,-346,182,584,-296,1,0,28,3,720,0,53298,1
2,31827,30640,32417,42057,778,-4344,-581,-1584,854,-3249,-281,176,590,-290,1,0,28,3,760,0,53298,1
2,31847,30674,32660,42058,800,-4442,-646,-1764,6525,-3096,-65,170,584,-274,1,0,28,3,800,0,53298,1
2,31710,30789,32775,42059,822,-4351,-323,-1659,12760,-3018,1195,164,598,-258,1,0,28,3,840,0,53298,1
2,31808,30798,32956,42060,844,-4199,-574,-1856,8228,-1656,1945,166,594,-260,1,0,28,3,880,0,53298,1
2,31685,30754,33091,42061,867,-4461,-730,-1889,4494,-511,1876,165,589,-255,1,0,28,3,920,0,53298,1
2,31631,30812,33155,42062,867,-4345,-1014,-1966,2067,642,1211,146,598,-248,1,0,28,3,960,0,53298,1
1,31750,30765,33276,42063,0,-4275,-1013,-1792,519,1255,531,150,594,-262,1,0,28,4,0,1,53298,1
2,31950,30747,33557,42064,39976,-4257,-992,-1731,337,937,299,138,594,-258,1,0,28,4,40,1,53298,1
1,31918,30805,33534,42065,40000,-4270,-836,-1754,823,301,172,147,587,-259,1,0,28,4,80,1,53298,1
1,31857,30745,33476,42066,22,-4267,-835,-1820,-49,-2,181,148,592,-260,1,0,28,4,120,1,53298,1
1,31549,30684,33238,42067,46,-4264,-844,-1805,-271,-75,193,147,593,-261,1,0,28,4,160,1,53298,1
1,31341,30464,32975,42068,69,-4222,-822,-1719,126,-57,233,143,589,-253,1,0,28,4,200,1,53298,1
1,31290,30673,32869,42069,92,-4230,-751,-1712,506,-18,213,148,594,-266,1,0,28,4,240,1,53298,1
1,31245,30659,32856,42070,114,-4249,-740,-1716,497,-8,187,142,590,-256,1,0,28,4,280,1,53298,1
1,31205,30535,32821,42071,138,-4233,-784,-1725,419,-9,193,144,590,-260,1,0,28,4,320,1,53298,1
1,31184,30350,32795,42072,161,-4228,-771,-1704,382,-13,174,138,594,-248,1,0,28,4,360,1,53298,1
1,31169,30211,32774,42073,184,-4243,-764,-1693,319,-17,92,147,593,-263,1,0,28,4,400,1,53298,1
1,31166,30202,32805,42074,206,-4241,-764,-1702,201,-4,60,143,595,-257,1,0,28,4,440,1,53298,1
1,31172,30119,32793,42075,229,-4237,-772,-1705,194,37,59,147,591,-267,1,0,28,4,480,1,53298,1
1,31180,30033,32803,42076,253,-4227,-780,-1713,299,71,51,137,593,-255,1,0,28,4,520,1,53298,1
3,31188,30259,32817,42077,276,-4236,-789,-1731,348,74,66,148,594,-258,1,0,28,4,560,1,53298,1
0,31192,30391,32831,42078,299,-4236,-789,-1731,348,74,66,149,595,-261,1,0,28,4,600,1,53298,1
2,31197,30465,32843,42079,322,-4240,-781,-1729,201,41,43,138,594,-262,1,0,28,4,640,1,53298,1
2,31203,30458,32839,42080,345,-4239,-782,-1711,129,26,50,145,591,-259,1,0,28,4,680,1,53298,1
2,31206,30447,32853,42081,368,-4230,-770,-1720,96,7,43,137,601,-253,1,0,28,4,720,1,53298,1
2,31192,29969,32840,42082,393,-4234,-774,-1717,107,8,43,151,587,-257,1,0,28,4,760,1,53298,1
2,31190,29955,32851,42083,417,-4246,-792,-1721,104,32,37,135,589,-265,1,0,28,4,800,1,53298,1
2,31203,29986,32860,42084,441,-4221,-776,-1717,118,41,33,142,586,-260,1,0,28,4,840,1,53298,1
2,31212,30129,32875,42085,465,-4231,-782,-1738,117,35,19,139,591,-259,1,0,28,4,880,1,53298,1
2,31211,30020,32850,42086,488,-4231,-783,-1735,75,19,13,140,596,-262,1,0,28,4,920,1,53298,1
2,31193,30785,32855,42087,488,-4227,-788,-1725,41,16,19,140,594,-256,1,0,28,4,960,1,53298,1
1,31220,30067,32882,42088,0,-4232,-797,-1719,46,17,30,144,584,-254,1,0,28,5,0,1,53298,1
2,31219,30095,32885,42089,39516,-4231,-776,-1727,10,14,31,141,597,-263,1,0,28,5,40,1,53298,1
2,31223,30790,32877,42090,39539,-4229,-785,-1724,11,28,36,145,591,-257,1,0,28,5,80,1,53298,1
2,31220,30255,32878,42091,39562,-4234,-767,-1724,-20,36,22,130,592,-246,1,0,28,5,120,1,53298,1
2,31220,30992,32866,42092,39585,-4239,-779,-1724,-81,49,-3,141,591,-255,1,0,28,5,160,1,53298,1
2,31231,30858,32875,42093,39608,-4221,-778,-1727,-112,75,-8,140,592,-256,1,0,28,5,200,1,53298,1
2,31270,30080,32924,42094,39632,-4210,-783,-1727,-40,59,-5,143,589,-265,1,0,28,5,240,1,53298,1
2,31305,30238,32956,42095,39655,-4224,-785,-1741,-39,51,21,148,594,-252,1,0,28,5,280,1,53298,1
2,31259,30352,32899,42096,39679,-4220,-774,-1734,76,16,84,141,587,-261,1,0,28,5,320,1,53298,1
2,31290,30425,32926,42097,39702,-4221,-800,-1716,155,27,116,143,595,-259,1,0,28,5,360,1,53298,1
2,31425,30553,33099,42098,39725,-4226,-792,-1734,59,52,65,140,592,-260,1,0,28,5,400,1,53298,1
2,31447,30593,33129,42099,39748,-4212,-762,-1712,24,46,53,137,593,-269,1,0,28,5,440,1,53298,1
2,31479,30627,33165,42100,39772,-4219,-771,-1730,47,19,25,139,591,-253,1,0,28,5,480,1,53298,1
2,31510,30672,33196,42101,39794,-4234,-777,-1723,50,45,-46,148,590,-256,1,0,28,5,520,1,53298,1
2,31534,30672,33242,42102,39817,-4241,-787,-1739,68,64,-59,151,595,-261,1,0,28,5,560,1,53298,1
2,31564,30662,33285,42103,39841,-4234,-807,-1748,120,78,-12,133,583,-273,1,0,28,5,600,1,53298,1
2,31515,30607,33216,42104,39864,-4218,-808,-1741,127,81,34,147,595,-261,1,0,28,5,640,1,53298,1
2,31393,30586,33107,42105,39888,-4228,-810,-1742,25,40,70,135,593,-253,1,0,28,5,680,1,53298,1
2,31385,30572,33082,42106,39912,-4237,-798,-1740,-75,-7,85,138,590,-246,1,0,28,5,720,1,53298,1
2,31457,30594,33169,42107,39935,-4204,-773,-1729,-389,-65,8,141,595,-271,1,0,28,5,760,1,53298,1
2,31666,30658,33346,42108,39958,-4233,-766,-1754,-852,-91,-122,146,590,-262,1,0,28,5,800,1,53298,1
2,31420,30580,33012,42109,39981,-4371,-635,-1866,-1488,-13,-100,135,595,-253,1,0,28,5,840,1,53298,1
1,31352,30652,32669,42110,2,-4668,-312,-2280,-5352,-53,576,143,585,-269,1,0,28,5,880,1,53298,1
1,31644,30444,32432,42111,23,-4611,-417,-2017,-18628,1807,174,147,587,-267,1,0,28,5,920,1,53298,1
1,31685,30389,32173,42112,44,-4320,758,-1876,-19948,1813,2378,134,596,-258,1,0,28,5,960,1,53298,1
1,31768,30670,32170,42113,0,-3574,1204,-1405,-7415,-137,6164,125,579,-261,1,0,28,6,0,0,53298,1
2,31755,30750,32119,42114,39054,-4063,1574,-1073,-3073,-1263,8680,113,561,-259,1,0,28,6,40,0,53298,1
2,31701,30446,32080,42115,39074,-4404,-46,-1691,-8643,-1519,8885,86,540,-254,1,0,28,6,80,0,53298,1
2,31650,30669,32073,42116,39094,-4558,-757,-1154,-7730,-2019,7031,82,524,-240,1,0,28,6,120,0,53298,1
2,31629,30385,32088,42117,39112,-4584,-1437,-646,-6066,-2822,4324,74,516,-232,1,0,28,6,160,0,53298,1
2,31563,30460,32091,42118,39130,-4438,-1438,-1138,-3347,-3427,679,83,509,-235,1,0,28,6,200,0,53298,1
2,31548,32946,32023,42119,39148,-4175,-1047,-999,654,-4705,-2078,88,490,-226,1,0,28,6,240,0,53298,1
2,31639,30291,32128,42120,39166,-4131,-336,-1002,2286,-4985,-4312,95,505,-219,1,0,28,6,280,0,53298,1
2,31648,30296,32175,42121,39184,-4208,126,-1138,994,-5198,-5880,111,507,-203,1,0,28,6,320,0,53298,1
2,31645,30344,32170,42122,39203,-4289,388,-1254,205,-5372,-6774,127,505,-193,1,0,28,6,360,0,53298,1
2,31624,30720,32164,42123,39222,-4374,564,-1417,405,-5082,-6913,138,512,-176,1,0,28,6,400,0,53298,1
2,31689,30374,32242,42124,39241,-4274,758,-1396,1460,-4555,-6318,151,507,-173,1,0,28,6,440,0,53298,1
2,31615,30327,32207,42125,39260,-4130,1735,-1616,1525,-3572,-5167,167,509,-165,1,0,28,6,480,0,53298,1
2,31740,30313,32183,42126,39279,-4029,1649,-2173,-1129,-1,-1440,171,505,-165,1,0,28,6,520,0,53298,1
2,31696,30668,32261,42127,39297,-5318,-771,-695,3593,853,799,164,514,-160,1,0,28,6,560,0,53298,1
2,31682,30309,32249,42128,39316,-4993,-645,54,2763,766,-196,165,511,-151,1,0,28,6,600,0,53298,1
2,31679,30332,32230,42129,39334,-4141,245,-621,1019,-45,-261,159,509,-151,1,0,28,6,640,0,53298,1
2,31694,30370,32228,42130,39352,-4423,-346,-1019,-185,368,361,161,517,-163,1,0,28,6,680,0,53298,1
2,31463,30413,31955,42131,39370,-4681,-212,-880,-37,785,338,165,503,-167,1,0,28,6,720,0,53298,1
2,31481,30338,31946,42132,39388,-4568,-51,-734,1409,450,513,165,507,-179,1,0,28,6,760,0,53298,1
2,31613,30563,32121,42133,39406,-4434,-102,-840,1579,287,528,152,504,-158,1,0,28,6,800,0,53298,1
2,31600,30473,32117,42134,39424,-4479,-153,-892,884,324,296,158,510,-160,1,0,28,6,840,0,53298,1
2,31615,30498,32110,42135,39442,-4523,-87,-836,417,272,118,163,519,-167,1,0,28,6,880,0,53298,1
2,31595,30340,32092,42136,39461,-4481,-153,-896,327,88,66,153,515,-163,1,0,28,6,920,0,53298,1
2,31535,30356,32029,42137,39478,-4446,-210,-908,462,-63,67,153,517,-163,1,0,28,6,960,0,53298,1
1,31530,30411,32002,42138,0,-4476,-165,-870,357,-24,76,151,509,-173,1,0,28,7,0,1,53298,1
2,31480,30723,31952,42139,38591,-4489,-106,-816,379,-5,119,155,519,-173,1,0,28,7,40,1,53298,1
2,31520,30454,31984,42140,38609,-4498,-122,-837,283,-26,154,151,513,-169,1,0,28,7,80,1,53298,1
2,31555,30632,32033,42141,38627,-4474,-131,-869,149,-40,140,158,516,-172,1,0,28,7,120,1,53298,1
2,31572,30346,32060,42142,38646,-4489,-137,-850,137,-6,75,159,497,-165,1,0,28,7,160,1,53298,1
2,31520,30280,31997,42143,38663,-4486,-132,-852,146,24,24,154,512,-162,1,0,28,7,200,1,53298,1
2,31474,30224,31937,42144,38680,-4480,-129,-860,75,13,-22,156,516,-166,1,0,28,7,240,1,53298,1
2,31474,30218,31923,42145,38698,-4480,-137,-874,43,0,-33,163,511,-167,1,0,28,7,280,1,53298,1
2,31454,30203,31906,42146,38716,-4484,-139,-848,95,2,-8,152,512,-170,1,0,28,7,320,1,53298,1
2,31442,30205,31898,42147,38735,-4490,-142,-862,135,-14,11,151,505,-165,1,0,28,7,360,1,53298,1
2,31450,30195,31895,42148,38753,-4482,-132,-843,116,-11,21,157,503,-163,1,0,28,7,400,1,53298,1
2,31457,30208,31910,42149,38770,-4481,-128,-838,85,-9,50,152,508,-166,1,0,28,7,440,1,53298,1
2,31457,30203,31906,42150,38789,-4482,-128,-858,80,-3,66,155,507,-173,1,0,28,7,480,1,53298,1
2,31464,30202,31919,42151,38807,-4476,-140,-858,85,-1,76,158,502,-152,1,0,28,7,520,1,53298,1
2,31470,30202,31923,42152,38824,-4486,-141,-845,44,29,65,156,512,-160,1,0,28,7,560,1,53298,1
2,31482,30217,31948,42153,38843,-4485,-127,-868,39,36,51,159,513,-165,1,0,28,7,600,1,53298,1
2,31500,30207,31954,42154,38862,-4477,-125,-848,59,33,29,156,510,-168,1,0,28,7,640,1,53298,1
2,31510,30228,31976,42155,38880,-4485,-136,-863,41,32,16,151,505,-163,1,0,28,7,680,1,53298,1
2,31536,30235,32001,42156,38899,-4469,-145,-860,16,48,6,151,509,-165,1,0,28,7,720,1,53298,1
2,31546,30246,32009,42157,38918,-4491,-137,-855,52,51,15,154,500,-174,1,0,28,7,760,1,53298,1
2,31561,30262,32032,42158,38936,-4485,-137,-864,63,21,27,150,510,-170,1,0,28,7,800,1,53298,1
2,31567,30252,32026,42159,38954,-4476,-137,-873,7,9,26,165,511,-169,1,0,28,7,840,1,53298,1
2,31569,30256,32038,42160,38972,-4481,-147,-865,-9,-1,34,164,514,-158,1,0,28,7,880,1,53298,1
2,31542,30241,32003,42161,38990,-4494,-146,-866,16,-17,41,164,514,-164,1,0,28,7,920,1,53298,1
2,31538,30239,32003,42162,39008,-4472,-133,-865,6,-17,28,155,499,-173,1,0,28,7,960,1,53298,1
1,31534,30238,31999,42163,0,-4477,-143,-856,-10,-16,24,154,508,-172,1,0,28,8,0,0,53298,1
2,31525,30243,31985,42164,38132,-4468,-138,-866,-12,-13,14,150,516,-166,1,0,28,8,40,0,53298,1
2,31530,30242,31987,42165,38150,-4483,-138,-878,4,14,8,149,515,-159,1,0,28,8,80,0,53298,1
2,31538,30240,32002,42166,38167,-4485,-135,-857,35,27,0,151,515,-173,1,0,28,8,120,0,53298,1
2,31537,30237,31995,42167,38185,-4492,-147,-859,44,21,10,160,512,-168,1,0,28,8,160,0,53298,1
2,31527,30239,31984,42168,38203,-4482,-152,-871,53,18,16,154,510,-172,1,0,28,8,200,0,53298,1
2,31523,30232,31974,42169,38221,-4472,-136,-876,65,16,11,157,511,-153,1,0,28,8,240,0,53298,1
2,31526,30237,31977,42170,38239,-4486,-143,-868,48,-7,14,153,511,-173,1,0,28,8,280,0,53298,1
2,31540,30243,32007,42171,38258,-4468,-133,-865,18,-17,10,156,506,-174,1,0,28,8,320,0,53298,1
2,31532,30239,31985,42172,38276,-4478,-138,-878,14,-20,5,153,513,-161,1,0,28,8,360,0,53298,1
2,31521,30235,31978,42173,38294,-4495,-140,-871,46,-20,19,153,515,-173,1,0,28,8,400,0,53298,1
2,31528,30237,31977,42174,38312,-4480,-144,-870,40,-18,25,154,522,-158,1,0,28,8,440,0,53298,1
2,31513,30226,31965,42175,38329,-4475,-139,-884,34,-1,23,154,506,-164,1,0,28,8,480,0,53298,1
2,31514,30233,31972,42176,38346,-4484,-138,-862,54,13,-7,165,505,-163,1,0,28,8,520,0,53298,1
2,31526,30230,31979,42177,38364,-4474,-140,-863,54,22,-13,158,506,-168,1,0,28,8,560,0,53298,1
2,31524,30239,31974,42178,38383,-4478,-137,-865,50,20,-3,159,515,-169,1,0,28,8,600,0,53298,1
2,31528,30236,31983,42179,38401,-4474,-155,-872,45,14,-2,145,509,-165,1,0,28,8,640,0,53298,1
2,31526,30240,31979,42180,38418,-4497,-149,-880,41,10,15,155,511,-171,1,0,28,8,680,0,53298,1
2,31535,30264,31989,42181,38436,-4484,-145,-872,20,-5,24,157,499,-167,1,0,28,8,720,0,53298,1
2,31550,30261,31996,42182,38454,-4481,-148,-874,8,-19,31,169,507,-169,1,0,28,8,760,0,53298,1
2,31531,30274,32015,42183,38473,-4476,-147,-865,14,-26,20,153,511,-171,1,0,28,8,800,0,53298,1
2,31524,30263,31967,42184,38491,-4484,-149,-864,18,-27,28,162,514,-174,1,0,28,8,840,0,53298,1
2,31512,30261,31957,42185,38509,-4475,-139,-868,6,-16,22,154,512,-176,1,0,28,8,880,0,53298,1
2,31547,30284,31999,42186,38527,-4478,-147,-876,15,-5,26,150,508,-152,1,0,28,8,920,0,53298,1
2,31543,30303,31996,42187,38546,-4492,-154,-884,26,26,38,154,508,-166,1,0,28,8,960,0,53298,1
1,31535,30285,31982,42188,0,-4485,-140,-874,38,17,37,157,511,-173,1,0,28,9,0,0,53298,1
2,31559,30316,31999,42189,37671,-4461,-141,-874,5,6,28,159,507,-173,1,0,28,9,40,0,53298,1
2,31559,30304,32024,42190,37689,-4483,-153,-869,-4,-10,17,154,518,-168,1,0,28,9,80,0,53298,1
2,31563,30312,32024,42191,37707,-4497,-157,-875,17,-12,21,152,512,-164,1,0,28,9,120,0,53298,1
2,31552,30305,32007,42192,37726,-4466,-140,-865,21,-17,19,147,515,-163,1,0,28,9,160,0,53298,1
2,31579,30313,32033,42193,37744,-4475,-144,-859,14,15,16,158,516,-162,1,0,28,9,200,0,53298,1
2,31577,30313,32036,42194,37762,-4478,-146,-876,22,23,30,150,508,-170,1,0,28,9,240,0,53298,1
2,31582,30323,32032,42195,37780,-4467,-133,-863,50,26,23,156,506,-160,1,0,28,9,280,0,53298,1
2,31588,30322,32049,42196,37799,-4484,-143,-868,45,31,22,150,510,-172,1,0,28,9,320,0,53298,1
2,31593,30327,32055,42197,37818,-4471,-136,-871,22,11,15,154,508,-162,1,0,28,9,360,0,53298,1
2,31591,30323,32043,42198,37836,-4488,-147,-874,23,9,25,151,515,-167,1,0,28,9,400,0,53298,1
2,31591,30328,32053,42199,37855,-4473,-145,-869,23,-2,46,153,519,-163,1,0,28,9,440,0,53298,1
2,31586,30321,32043,42200,37874,-4485,-143,-869,50,17,79,148,514,-166,1,0,28,9,480,0,53298,1
2,31562,30288,32019,42201,37892,-4479,-133,-867,58,26,64,149,509,-163,1,0,28,9,520,0,53298,1
2,31565,30302,32014,42202,37910,-4479,-126,-876,42,45,13,156,508,-168,1,0,28,9,560,0,53298,1
2,31563,30298,32007,42203,37928,-4482,-144,-876,19,29,-21,165,515,-179,1,0,28,9,600,0,53298,1
2,31553,30289,31994,42204,37946,-4477,-154,-891,0,3,-43,158,512,-166,1,0,28,9,640,0,53298,1
2,31561,30300,32004,42205,37965,-4476,-146,-885,-18,-17,-37,148,514,-162,1,0,28,9,680,0,53298,1
2,31547,30294,31985,42206,37985,-4467,-149,-867,-24,-45,-13,154,502,-160,1,0,28,9,720,0,53298,1
2,31540,30280,31976,42207,38003,-4462,-142,-877,-30,-67,17,161,509,-171,1,0,28,9,760,0,53298,1
2,31536,30280,31975,42208,38021,-4503,-146,-880,-40,-60,30,161,511,-165,1,0,28,9,800,0,53298,1
2,31531,30283,31975,42209,38040,-4453,-147,-867,41,-35,13,153,509,-171,1,0,28,9,840,0,53298,1
2,31525,30276,31965,42210,38058,-4486,-135,-868,51,15,-1,152,514,-174,1,0,28,9,880,0,53298,1
2,31530,30273,31960,42211,38076,-4484,-146,-872,-33,28,-7,156,514,-164,1,0,28,9,920,0,53298,1
2,31533,30279,31974,42212,38095,-4479,-172,-885,17,-3,28,158,514,-174,1,0,28,9,960,0,53298,1
1,31533,30274,31974,42213,0,-4476,-129,-860,61,-38,61,156,496,-170,1,0,28,10,0,0,53298,1
2,31523,30266,31958,42214,37213,-4490,-132,-875,-101,-48,68,143,513,-169,1,0,28,10,40,0,53298,1
2,31523,30260,31960,42215,37231,-4460,-169,-885,-116,-91,139,154,512,-166,1,0,28,10,80,0,53298,1
2,31518,30274,31953,42216,37250,-4480,-137,-890,-68,-106,185,148,506,-164,1,0,28,10,120,0,53298,1
2,31512,30273,31944,42217,37268,-4507,-135,-914,-167,-114,235,146,514,-166,1,0,28,10,160,0,53298,1
2,31513,30274,31943,42218,37286,-4494,-81,-953,-272,-111,268,150,518,-158,1,0,28,10,200,0,53298,1
2,31503,30291,31936,42219,37303,-4562,61,-1016,-14,-87,480,149,511,-167,1,0,28,10,240,0,53298,1
2,31470,31646,31873,42220,37321,-4752,-56,-1090,-674,-289,1431,148,512,-166,1,0,28,10,280,0,53298,1
2,31522,30455,31963,42221,37341,-4231,935,-1779,437,510,2689,142,506,-172,1,0,28,10,320,0,53298,1
2,31489,30791,31939,42222,37361,-3766,2274,-1657,688,1363,5112,130,518,-178,1,0,28,10,360,0,53298,1
2,31525,30793,31931,42223,37381,-4082,1428,-2145,-5419,3242,7687,116,516,-184,1,0,28,10,400,0,53298,1
2,31524,30413,31911,42224,37401,-4216,801,-2052,-5967,5088,9894,100,506,-178,1,0,28,10,440,0,53298,1
2,31508,30528,31890,42225,37419,-4618,94,-1707,-3610,6526,10332,85,507,-203,1,0,28,10,480,0,53298,1
2,31533,30789,31969,42226,37437,-4908,-457,-1083,-948,6936,8520,56,496,-210,1,0,28,10,520,0,53298,1
2,31394,30759,31818,42227,37455,-4798,-1161,-1107,-617,7393,4824,48,494,-236,1,0,28,10,560,0,53298,1
2,31388,30764,31807,42228,37473,-4663,-1954,-1210,452,7861,188,38,492,-256,1,0,28,10,600,0,53298,1
2,31496,30600,31887,42229,37491,-4377,-1102,-1115,5366,7343,-4210,48,512,-274,1,0,28,10,640,0,53298,1
2,31499,30738,31897,42230,37509,-4145,2,-993,9428,5785,-7152,61,517,-303,1,0,28,10,680,0,53298,1
2,31467,30172,31847,42231,37527,-4234,-98,-1414,6238,4369,-9109,75,537,-327,1,0,28,10,720,0,53298,1
2,31474,30405,31862,42232,37545,-4304,-25,-1319,3525,2851,-10313,106,560,-334,1,0,28,10,760,0,53298,1
2,31441,30161,31841,42233,37564,-4466,730,-1403,2211,631,-10806,134,562,-338,1,0,28,10,800,0,53298,1
2,31431,31147,31800,42234,37583,-4347,2702,-904,-1823,-959,-10819,178,574,-348,1,0,28,10,840,0,53298,1
2,31480,30435,31805,42235,37603,-4035,267,-1345,-7938,-2912,-8793,182,582,-342,1,0,28,10,880,0,53298,1
2,31505,30251,31778,42236,37623,-4011,-572,-1492,-11292,-4742,-5613,189,583,-323,1,0,28,10,920,0,53298,1
2,31473,31456,31739,42237,37643,-3811,-624,-1751,-1761,-4650,-4741,214,582,-318,1,0,28,10,960,0,53298,1
1,31468,31077,31762,42238,0,-3616,-349,-967,4603,-5572,-3294,213,581,-287,1,0,28,11,0,1,53298,1
2,31462,32462,31861,42239,36757,-5179,-137,-3990,3317,-5882,-5739,227,591,-265,1,0,28,11,40,1,53298,1
2,31487,30321,31935,42240,36779,-3624,606,-1699,9583,-1619,1418,226,596,-256,1,0,28,11,80,1,53298,1
2,31531,30927,31912,42241,36801,-5336,-1121,-1125,3964,392,3801,211,603,-255,1,0,28,11,120,1,53298,1
2,31565,30555,32046,42242,36823,-4601,-222,-1809,7878,-1921,1483,198,600,-248,1,0,28,11,160,1,53298,1
2,31592,30230,32106,42243,36845,-4352,-846,-2124,3379,-1364,1224,193,595,-223,1,0,28,11,200,1,53298,1
2,31632,30502,32263,42244,36867,-4306,-837,-1508,3502,358,10,199,601,-235,1,0,28,11,240,1,53298,1
2,31646,30544,32302,42245,36889,-4452,-744,-1242,3124,642,-413,185,591,-237,1,0,28,11,280,1,53298,1
2,31666,30351,32295,42246,36912,-4186,-926,-1555,-130,752,-23,183,605,-237,1,0,28,11,320,1,53298,1
2,31653,30218,32273,42247,36934,-4354,-728,-1745,120,949,-343,192,596,-228,1,0,28,11,360,1,53298,1
2,31660,30230,32283,42248,36956,-4411,-764,-1639,637,622,-97,195,595,-239,1,0,28,11,400,1,53298,1
2,31667,30237,32305,42249,36978,-4296,-785,-1609,1478,172,-17,200,600,-242,1,0,28,11,440,1,53298,1
2,31670,30207,32325,42250,36999,-4290,-734,-1532,1545,77,33,193,591,-237,1,0,28,11,480,1,53298,1
2,31663,30221,32311,42251,37020,-4308,-729,-1539,460,135,124,186,604,-232,1,0,28,11,520,1,53298,1
2,31681,30253,32334,42252,37042,-4315,-750,-1573,-356,187,207,188,598,-228,1,0,28,11,560,1,53298,1
2,31656,30208,32296,42253,37063,-4306,-794,-1604,-534,107,253,191,589,-241,1,0,28,11,600,1,53298,1
2,31663,30226,32297,42254,37085,-4303,-800,-1600,-217,-69,244,186,598,-242,1,0,28,11,640,1,53298,1
2,31660,30208,32302,42255,37107,-4316,-757,-1587,312,-231,160,189,595,-235,1,0,28,11,680,1,53298,1
2,31682,30259,32347,42256,37129,-4309,-703,-1521,437,-209,85,186,606,-226,1,0,28,11,720,1,53298,1
2,31677,30242,32335,42257,37150,-4307,-716,-1520,136,-98,84,186,596,-238,1,0,28,11,760,1,53298,1
2,31702,30244,32359,42258,37172,-4301,-740,-1540,21,-35,67,187,587,-229,1,0,28,11,800,1,53298,1
2,31723,30260,32377,42259,37194,-4310,-749,-1553,253,-48,12,186,598,-228,1,0,28,11,840,1,53298,1
2,31700,30284,32374,42260,37216,-4304,-731,-1551,370,-51,-13,190,592,-228,1,0,28,11,880,1,53298,1
2,31721,30291,32386,42261,37238,-4312,-716,-1550,168,-31,-23,185,589,-237,1,0,28,11,920,1,53298,1
2,31711,30304,32372,42262,37259,-4307,-727,-1558,-52,-12,-2,186,596,-246,1,0,28,11,960,1,53298,1
1,31740,30365,32406,42263,0,-4316,-744,-1545,-60,-9,19,186,594,-242,1,0,28,12,0,0,53298,1
2,31726,30403,32388,42264,36300,-4309,-742,-1532,-31,3,9,179,607,-235,1,0,28,12,40,0,53298,1
2,31704,30377,32366,42265,36323,-4317,-746,-1551,-15,12,12,189,585,-229,1,0,28,12,80,0,53298,1
2,31747,30390,32406,42266,36345,-4325,-761,-1556,74,1,18,187,599,-235,1,0,28,12,120,0,53298,1
2,31743,30376,32413,42267,36367,-4300,-737,-1536,141,-12,14,198,594,-244,1,0,28,12,160,0,53298,1
2,31724,30347,32383,42268,36389,-4308,-742,-1538,102,-1,23,174,598,-228,1,0,28,12,200,0,53298,1
2,31705,30394,32373,42269,36411,-4317,-745,-1557,26,4,26,192,596,-238,1,0,28,12,240,0,53298,1
2,31695,30384,32361,42270,36432,-4305,-728,-1546,16,-6,19,194,600,-232,1,0,28,12,280,0,53298,1
2,31715,30375,32376,42271,36454,-4320,-759,-1542,44,-10,35,193,601,-243,1,0,28,12,320,0,53298,1
2,31711,30323,32373,42272,36476,-4327,-755,-1561,46,-26,34,196,590,-230,1,0,28,12,360,0,53298,1
2,31708,30329,32374,42273,36497,-4325,-758,-1545,46,-33,31,189,595,-233,1,0,28,12,400,0,53298,1
2,31701,30350,32382,42274,36520,-4300,-737,-1539,19,-25,25,195,601,-241,1,0,28,12,440,0,53298,1
2,31737,30364,32394,42275,36542,-4318,-734,-1542,-28,-7,25,186,598,-230,1,0,28,12,480,0,53298,1
2,31759,30381,32430,42276,36564,-4335,-757,-1548,-53,2,19,188,594,-242,1,0,28,12,520,0,53298,1
2,31792,30384,32441,42277,36586,-4314,-734,-1547,-20,2,12,182,592,-228,1,0,28,12,560,0,53298,1
2,31772,30375,32436,42278,36609,-4313,-733,-1551,19,-11,10,195,593,-231,1,0,28,12,600,0,53298,1
2,31775,30349,32415,42279,36631,-4309,-738,-1551,-4,-3,6,186,600,-236,1,0,28,12,640,0,53298,1
2,31759,30396,32414,42280,36654,-4317,-758,-1547,-46,18,17,183,593,-237,1,0,28,12,680,0,53298,1
2,31771,30396,32429,42281,36676,-4304,-741,-1553,-5,-2,31,189,597,-233,1,0,28,12,720,0,53298,1
2,31757,30423,32411,42282,36698,-4318,-737,-1554,54,-19,34,182,610,-222,1,0,28,12,760,0,53298,1
2,31764,30461,32424,42283,36720,-4334,-737,-1552,-19,-11,20,184,602,-230,1,0,28,12,800,0,53298,1
2,31792,30492,32454,42284,36742,-4310,-756,-1567,-125,24,24,185,597,-231,1,0,28,12,840,0,53298,1
2,31814,30487,32455,42285,36764,-4344,-768,-1635,-249,104,-7,194,596,-232,1,0,28,12,880,0,53298,1
2,31797,30508,32430,42286,36787,-4342,-790,-1699,-864,416,-106,183,595,-235,1,0,28,12,920,0,53298,1
2,31795,30525,32377,42287,36809,-4460,-759,-1817,-1959,976,-231,187,603,-245,1,0,28,12,960,0,53298,1
1,31759,30519,32283,42288,0,-4660,-770,-2349,-5059,2236,-858,196,596,-250,1,0,28,13,0,0,53298,1
2,31735,30395,32172,42289,35842,-4493,-748,-1941,-9508,3625,-653,200,594,-272,1,0,28,13,40,0,53298,1
2,31798,30609,32194,42290,35863,-3982,260,-1572,-8848,3928,942,202,592,-278,1,0,28,13,80,0,53298,1
2,31815,30329,32236,42291,35884,-4298,786,-1686,-2481,1418,4893,190,590,-292,1,0,28,13,120,0,53298,1
2,31834,30608,32371,42292,35904,-3574,1947,-1171,9900,-1337,9167,166,584,-282,1,0,28,13,160,0,53298,1
2,31763,30396,32295,42293,35923,-4152,1081,-1220,-804,-500,11150,137,569,-279,1,0,28,13,200,0,53298,1
2,31636,30538,32163,42294,35943,-4796,167,-1267,-5166,-786,11628,109,573,-273,1,0,28,13,240,0,53298,1
2,31613,30585,32133,42295,35962,-4940,-596,-1107,-8909,-1807,9752,87,541,-261,1,0,28,13,280,0,53298,1
2,31596,30573,32113,42296,35981,-4761,-1109,-906,-8732,-2988,6647,75,527,-251,1,0,28,13,320,0,53298,1
2,31621,30592,32128,42297,36000,-4464,-1249,-957,-5484,-4343,3231,70,514,-248,1,0,28,13,360,0,53298,1
2,31646,30598,32151,42298,36019,-4163,-963,-1098,-1705,-5255,-17,76,508,-234,1,0,28,13,400,0,53298,1
2,31683,30570,32182,42299,36039,-4297,-682,-914,1020,-5337,-2422,77,503,-215,1,0,28,13,440,0,53298,1
2,31737,30506,32238,42300,36059,-4253,-249,-919,294,-5438,-4454,95,505,-209,1,0,28,13,480,0,53298,1
2,31815,30432,32350,42301,36079,-4386,45,-1163,56,-5616,-5914,117,505,-191,1,0,28,13,520,0,53298,1
2,31881,30550,32464,42302,36100,-4511,292,-1388,2089,-5911,-6279,128,504,-182,1,0,28,13,560,0,53298,1
2,31796,30435,32472,42303,36120,-4635,548,-1172,3830,-5969,-6119,138,502,-172,1,0,28,13,600,0,53298,1
2,31543,31040,32170,42304,36140,-4558,766,-1243,1849,-5069,-5879,154,510,-164,1,0,28,13,640,0,53298,1
2,31904,30490,32538,42305,36160,-4495,393,-1242,-581,-3707,-5580,164,500,-152,1,0,28,13,680,0,53298,1
2,31911,30591,32568,42306,36181,-4367,367,-1046,-476,-2542,-4984,173,499,-151,1,0,28,13,720,0,53298,1
2,31877,30398,32526,42307,36202,-4113,264,-856,443,-1639,-3831,178,508,-148,1,0,28,13,760,0,53298,1
2,31841,30431,32439,42308,36222,-3937,136,-844,1318,-851,-2564,186,500,-146,1,0,28,13,800,0,53298,1
2,31785,30534,32515,42309,36244,-4043,683,-622,3544,294,-49,188,500,-136,1,0,28,13,840,0,53298,1
2,31859,30468,32500,42310,36264,-5436,-990,-161,4111,899,1023,179,507,-147,1,0,28,13,880,0,53298,1
2,31871,30601,32548,42311,36283,-5167,257,-580,1274,903,-442,179,501,-149,1,0,28,13,920,0,53298,1
2,31883,30824,32430,42312,36303,-4449,-352,-459,1361,344,-538,166,504,-146,1,0,28,13,960,0,53298,1
1,31571,30701,32225,42313,0,-4221,-564,-725,246,770,-565,187,501,-143,1,0,28,14,0,1,53298,1
2,31555,30716,32167,42314,35381,-4663,-450,-817,802,1066,-354,182,502,-144,1,0,28,14,40,1,53298,1
2,31561,30255,32178,42315,35400,-4696,-240,-528,1790,758,32,185,497,-149,1,0,28,14,80,1,53298,1
2,31674,30789,32296,42316,35419,-4537,-305,-598,1226,317,174,183,509,-155,1,0,28,14,120,1,53298,1
2,31904,30843,32538,42317,35439,-4453,-393,-720,401,103,164,179,501,-151,1,0,28,14,160,1,53298,1
2,31897,30910,32542,42318,35459,-4561,-344,-703,99,11,79,165,505,-147,1,0,28,14,200,1,53298,1
2,31885,30725,32518,42319,35479,-4589,-322,-622,264,-124,-4,179,501,-147,1,0,28,14,240,1,53298,1
2,31889,30690,32533,42320,35498,-4529,-345,-613,289,-175,-35,174,508,-148,1,0,28,14,280,1,53298,1
2,31879,30705,32523,42321,35517,-4531,-361,-649,115,-88,-86,173,501,-139,1,0,28,14,320,1,53298,1
2,31877,30737,32516,42322,35536,-4553,-344,-621,29,22,-96,175,501,-155,1,0,28,14,360,1,53298,1
2,31857,30711,32495,42323,35555,-4541,-360,-639,69,39,-14,182,502,-146,1,0,28,14,400,1,53298,1
2,31854,30720,32490,42324,35574,-4518,-364,-653,71,8,80,180,502,-152,1,0,28,14,440,1,53298,1
2,31858,30710,32496,42325,35593,-4545,-353,-647,105,-34,119,174,498,-150,1,0,28,14,480,1,53298,1
2,31841,30761,32485,42326,35612,-4549,-345,-627,116,-45,120,174,504,-156,1,0,28,14,520,1,53298,1
2,31837,30778,32493,42327,35631,-4543,-336,-627,62,-35,97,177,499,-149,1,0,28,14,560,1,53298,1
2,31834,30780,32474,42328,35651,-4556,-355,-627,13,-8,47,182,502,-158,1,0,28,14,600,1,53298,1
2,31810,30801,32454,42329,35671,-4545,-344,-638,47,23,20,177,509,-143,1,0,28,14,640,1,53298,1
2,31510,30716,32136,42330,35691,-4550,-351,-636,50,42,12,177,511,-147,1,0,28,14,680,1,53298,1
2,31381,30675,32031,42331,35711,-4550,-348,-627,17,43,7,176,506,-148,1,0,28,14,720,1,53298,1
2,31425,30676,32063,42332,35731,-4549,-356,-655,9,26,12,172,512,-142,1,0,28,14,760,1,53298,1
2,31520,30713,32186,42333,35750,-4552,-362,-651,26,3,31,172,502,-140,1,0,28,14,800,1,53298,1
2,31634,30742,32256,42334,35770,-4558,-339,-628,28,-11,53,180,502,-156,1,0,28,14,840,1,53298,1
2,31658,30745,32300,42335,35791,-4542,-342,-656,7,-16,45,180,500,-156,1,0,28,14,880,1,53298,1
2,31597,30727,32226,42336,35812,-4546,-348,-653,7,-8,40,180,510,-146,1,0,28,14,920,1,53298,1
2,31605,30723,32241,42337,35832,-4552,-356,-633,12,-9,32,186,504,-158,1,0,28,14,960,1,53298,1
1,31595,30736,32261,42338,0,-4552,-365,-645,0,-2,1,170,504,-146,1,0,28,15,0,1,53298,1
2,31726,30780,32382,42339,34923,-4549,-352,-642,-9,2,-7,178,502,-148,1,0,28,15,40,1,53298,1
2,31885,30810,32535,42340,34942,-4550,-353,-639,-6,6,9,175,511,-157,1,0,28,15,80,1,53298,1
2,31906,30813,32554,42341,34961,-4553,-364,-645,14,-1,37,180,508,-160,1,0,28,15,120,1,53298,1
2,31917,30812,32546,42342,34980,-4536,-332,-646,18,6,61,167,511,-145,1,0,28,15,160,1,53298,1
2,31973,30830,32611,42343,35000,-4536,-339,-634,15,7,66,179,509,-151,1,0,28,15,200,1,53298,1
2,32011,30859,32653,42344,35019,-4548,-347,-647,14,4,49,172,498,-150,1,0,28,15,240,1,53298,1
2,32044,30875,32694,42345,35039,-4561,-354,-640,6,0,42,178,512,-150,1,0,28,15,280,1,53298,1
2,32048,30868,32694,42346,35058,-4553,-348,-654,-3,-9,11,181,509,-151,1,0,28,15,320,1,53298,1
2,32021,30865,32669,42347,35077,-4558,-362,-642,4,-8,11,171,491,-149,1,0,28,15,360,1,53298,1
2,32013,30870,32687,42348,35097,-4553,-353,-641,-13,0,-7,182,508,-150,1,0,28,15,400,1,53298,1
2,31964,30850,32617,42349,35115,-4560,-367,-643,-4,11,5,176,508,-144,1,0,28,15,440,1,53298,1
2,31982,30873,32624,42350,35134,-4551,-351,-644,16,12,30,171,513,-153,1,0,28,15,480,1,53298,1
2,31985,30879,32629,42351,35154,-4545,-334,-643,25,1,56,175,511,-149,1,0,28,15,520,1,53298,1
2,32050,30906,32687,42352,35173,-4554,-359,-632,34,5,82,171,509,-149,1,0,28,15,560,1,53298,1
2,31953,30896,32660,42353,35193,-4544,-348,-639,17,3,89,178,508,-144,1,0,28,15,600,1,53298,1
2,31717,30786,32359,42354,35212,-4557,-348,-644,19,6,50,170,506,-158,1,0,28,15,640,1,53298,1
2,31470,30707,32071,42355,35231,-4558,-352,-652,8,13,-1,181,501,-155,1,0,28,15,680,1,53298,1
2,31407,30698,32035,42356,35251,-4552,-339,-648,-2,17,-54,186,506,-156,1,0,28,15,720,1,53298,1
2,31389,30698,32018,42357,35269,-4551,-352,-651,2,-8,-86,186,508,-162,1,0,28,15,760,1,53298,1
2,31389,30693,32031,42358,35288,-4549,-364,-647,-3,-27,-91,179,503,-165,1,0,28,15,800,1,53298,1
2,31403,30690,32027,42359,35306,-4558,-374,-653,-32,-48,-64,179,507,-149,1,0,28,15,840,1,53298,1
2,31419,30704,32043,42360,35325,-4550,-363,-647,-40,-88,-22,173,509,-149,1,0,28,15,880,1,53298,1
2,31442,30712,32080,42361,35344,-4557,-374,-650,-55,-134,18,167,507,-141,1,0,28,15,920,1,53298,1
2,31473,30730,32116,42362,35362,-4544,-355,-628,-48,-147,43,171,507,-147,1,0,28,15,960,1,53298,1
1,31460,30726,32096,42363,0,-4553,-357,-611,-40,-125,56,179,511,-149,1,0,28,16,0,1,53298,1
2,31485,30735,32112,42364,34464,-4549,-359,-615,-16,-63,76,184,508,-148,1,0,28,16,40,1,53298,1
2,31518,30742,32153,42365,34483,-4555,-346,-619,40,15,68,176,506,-150,1,0,28,16,80,1,53298,1
2,31588,30766,32218,42366,34502,-4558,-345,-642,64,98,46,172,506,-140,1,0,28,16,120,1,53298,1
2,31694,30800,32311,42367,34521,-4546,-341,-648,40,138,26,171,503,-147,1,0,28,16,160,1,53298,1
2,31502,30738,32147,42368,34541,-4557,-347,-644,45,116,13,178,508,-154,1,0,28,16,200,1,53298,1
2,31477,30726,32090,42369,34560,-4548,-365,-654,24,58,9,169,505,-141,1,0,28,16,240,1,53298,1
2,31518,30756,32140,42370,34578,-4550,-351,-641,-5,-3,15,179,507,-147,1,0,28,16,280,1,53298,1
2,31675,30814,32378,42371,34597,-4545,-357,-628,-12,-43,36,175,503,-149,1,0,28,16,320,1,53298,1
2,32182,30975,32838,42372,34616,-4547,-351,-646,-3,-42,42,168,498,-148,1,0,28,16,360,1,53298,1
2,32207,30980,32851,42373,34634,-4541,-340,-635,-2,-8,31,172,498,-154,1,0,28,16,400,1,53298,1
2,32198,30979,32844,42374,34652,-4556,-359,-644,5,28,24,182,504,-154,1,0,28,16,440,1,53298,1
2,32194,30969,32843,42375,34671,-4543,-347,-643,12,42,16,173,511,-143,1,0,28,16,480,1,53298,1
2,32186,30974,32835,42376,34690,-4545,-356,-644,19,30,19,178,500,-156,1,0,28,16,520,1,53298,1
2,32185,30977,32829,42377,34709,-4547,-356,-653,17,8,25,176,504,-144,1,0,28,16,560,1,53298,1
2,32188,30979,32839,42378,34728,-4544,-349,-647,-3,-19,16,165,505,-139,1,0,28,16,600,1,53298,1
2,32188,30980,32825,42379,34748,-4552,-353,-644,-11,-56,16,176,504,-160,1,0,28,16,640,1,53298,1
2,32199,30985,32836,42380,34767,-4561,-351,-641,-8,-61,24,174,508,-144,1,0,28,16,680,1,53298,1
2,32124,30961,32774,42381,34785,-4544,-348,-639,-4,-69,24,177,507,-153,1,0,28,16,720,1,53298,1
2,32199,30992,32848,42382,34804,-4559,-364,-643,-13,-37,6,175,503,-151,1,0,28,16,760,1,53298,1
2,32189,30990,32838,42383,34822,-4534,-356,-632,-5,5,-6,175,513,-145,1,0,28,16,800,1,53298,1
2,32192,30991,32832,42384,34841,-4543,-374,-631,2,36,11,174,510,-148,1,0,28,16,840,1,53298,1
2,32206,31000,32850,42385,34861,-4551,-353,-653,46,48,31,185,507,-139,1,0,28,16,880,1,53298,1
2,32206,30997,32860,42386,34881,-4552,-333,-642,46,23,9,173,507,-145,1,0,28,16,920,1,53298,1
2,32220,31003,32866,42387,34900,-4549,-361,-649,-33,-70,-24,174,508,-144,1,0,28,16,960,1,53298,1
1,32208,31001,32854,42388,0,-4549,-375,-647,-83,-179,9,174,500,-150,1,0,28,17,0,0,53298,1
2,32206,30997,32856,42389,34008,-4558,-341,-641,-78,-271,53,183,499,-149,1,0,28,17,40,0,53298,1
2,32174,30997,32855,42390,34027,-4550,-339,-578,-72,-271,35,174,512,-152,1,0,28,17,80,0,53298,1
2,32165,30987,32822,42391,34046,-4558,-343,-590,-80,-112,44,167,505,-141,1,0,28,17,120,0,53298,1
2,32025,30938,32676,42392,34065,-4556,-365,-612,38,98,51,172,500,-148,1,0,28,17,160,0,53298,1
2,32189,30998,32836,42393,34084,-4570,-336,-626,138,254,18,175,513,-157,1,0,28,17,200,0,53298,1
2,32177,30990,32828,42394,34103,-4556,-326,-680,75,214,-93,177,505,-155,1,0,28,17,240,0,53298,1
2,32184,30988,32835,42395,34123,-4563,-380,-663,-132,15,-199,175,503,-141,1,0,28,17,280,0,53298,1
2,32169,30989,32807,42396,34143,-4523,-362,-672,-157,-220,-242,182,510,-146,1,0,28,17,320,0,53298,1
2,32185,30998,32836,42397,34163,-4582,-376,-638,-69,-365,-237,175,511,-151,1,0,28,17,360,0,53298,1
2,32187,30995,32825,42398,34182,-4541,-395,-602,36,-423,-130,179,507,-149,1,0,28,17,400,0,53298,1
2,32187,30992,32835,42399,34202,-4546,-362,-587,29,-340,34,186,506,-146,1,0,28,17,440,0,53298,1
2,32190,30974,32843,42400,34222,-4568,-393,-560,2,-227,256,180,500,-156,1,0,28,17,480,0,53298,1
2,32190,30990,32822,42401,34241,-4522,-410,-585,53,-122,544,177,509,-137,1,0,28,17,520,0,53298,1
2,32198,30997,32836,42402,34260,-4555,-320,-612,298,19,624,173,497,-147,1,0,28,17,560,0,53298,1
2,32190,30993,32833,42403,34280,-4601,-281,-569,401,179,500,173,509,-149,1,0,28,17,600,0,53298,1
2,32179,30993,32813,42404,34299,-4511,-345,-580,317,232,377,176,496,-146,1,0,28,17,640,0,53298,1
2,32163,30987,32785,42405,34319,-4525,-350,-634,13,263,257,178,504,-136,1,0,28,17,680,0,53298,1
2,32156,30985,32786,42406,34338,-4573,-294,-643,24,250,182,179,511,-145,1,0,28,17,720,0,53298,1
2,32168,30847,32776,42407,34357,-4716,-77,-775,101,155,252,174,500,-144,1,0,28,17,760,0,53298,1
2,32225,30814,32856,42408,34378,-4641,-136,-987,570,-44,1375,167,503,-145,1,0,28,17,800,0,53298,1
2,32192,30781,32818,42409,34400,-4221,533,-1574,1636,870,1849,170,512,-160,1,0,28,17,840,0,53298,1
2,32157,31041,32783,42410,34422,-3924,2190,-1749,2197,2459,4367,155,505,-171,1,0,28,17,880,0,53298,1
2,32180,31033,32795,42411,34443,-4264,1301,-2329,-3311,5363,7317,139,517,-173,1,0,28,17,920,0,53298,1
2,32148,30981,32752,42412,34464,-4576,495,-2248,-4737,7967,8930,120,512,-178,1,0,28,17,960,0,53298,1
1,31823,30713,32315,42413,0,-4753,17,-1946,-3774,9435,9377,101,503,-205,1,0,28,18,0,1,53298,1
2,31470,30690,32000,42414,33551,-4791,-863,-1539,-2360,9778,7900,86,514,-220,1,0,28,18,40,1,53298,1
2,31346,30415,31881,42415,33570,-4680,-1794,-1248,-1309,9762,4450,79,507,-249,1,0,28,18,80,1,53298,1
2,31282,30523,31825,42416,33589,-4642,-2138,-883,312,9282,-38,67,515,-269,1,0,28,18,120,1,53298,1
2,31274,30707,31802,42417,33608,-4682,-1603,-364,3401,7823,-4319,80,520,-292,1,0,28,18,160,1,53298,1
2,31245,30082,31767,42418,33627,-4587,-1154,-275,4426,5341,-8260,93,539,-317,1,0,28,18,200,1,53298,1
2,31233,30442,31717,42419,33647,-4729,-524,-331,4861,2310,-10959,126,564,-330,1,0,28,18,240,1,53298,1
2,31301,30104,31804,42420,33666,-4471,436,-501,3649,-1020,-12488,167,575,-339,1,0,28,18,280,1,53298,1
2,31343,30234,31849,42421,33687,-3263,4947,-62,2708,-3394,-13800,202,584,-324,1,0,28,18,320,1,53298,1
2,32375,33892,33095,42422,33709,-3061,451,-2194,10821,-12914,-8864,223,589,-275,1,0,28,18,360,1,53298,1
2,32382,30811,33251,42423,33734,-5991,840,-5181,19823,-14245,-3162,207,601,-239,1,0,28,18,400,1,53298,1
2,32257,30662,33439,42424,33758,-4396,-1506,-2039,10444,-1355,5155,199,609,-231,1,0,28,18,440,1,53298,1
2,32187,30686,33289,42425,33780,-4933,-652,-998,6180,3072,1969,187,601,-247,1,0,28,18,480,1,53298,1
2,32425,30646,33385,42426,33801,-4481,-527,-502,-5084,2606,1861,189,609,-247,1,0,28,18,520,1,53298,1
2,32345,30523,33261,42427,33822,-4420,-1716,-1640,-6550,-377,1106,184,594,-238,1,0,28,18,560,1,53298,1
2,32262,30466,33227,42428,33845,-4183,-1022,-2107,2066,-2043,816,172,598,-232,1,0,28,18,600,1,53298,1
2,32150,31687,33108,42429,33867,-4524,-785,-1658,414,424,363,178,604,-242,1,0,28,18,640,1,53298,1
2,32091,31700,33053,42430,33890,-4466,-807,-1396,-46,465,459,175,597,-229,1,0,28,18,680,1,53298,1
2,32124,30735,33135,42431,33913,-4226,-843,-1535,1247,-219,528,173,599,-241,1,0,28,18,720,1,53298,1
2,32151,30407,33217,42432,33936,-4309,-759,-1429,2308,-304,340,171,595,-233,1,0,28,18,760,1,53298,1
2,32208,30439,33351,42433,33959,-4353,-659,-1369,1918,-505,249,171,605,-237,1,0,28,18,800,1,53298,1
2,32236,30511,33392,42434,33983,-4415,-700,-1427,837,-466,272,168,596,-224,1,0,28,18,840,1,53298,1
2,32230,30521,33404,42435,34005,-4392,-747,-1408,309,-346,444,166,598,-236,1,0,28,18,880,1,53298,1
2,32091,30417,33358,42436,34028,-4340,-781,-1394,-148,-142,398,164,600,-228,1,0,28,18,920,1,53298,1
2,31691,30754,33078,42437,34051,-4380,-788,-1425,56,2,188,167,595,-231,1,0,28,18,960,1,53298,1
1,31793,30347,33185,42438,0,-4380,-792,-1486,558,-28,186,164,610,-228,1,0,28,19,0,1,53298,1
2,31696,30456,33200,42439,33097,-4393,-757,-1443,902,-13,126,161,601,-227,1,0,28,19,40,1,53298,1
2,31683,30341,33225,42440,33121,-4350,-729,-1401,594,48,94,157,595,-223,1,0,28,19,80,1,53298,1
2,31731,30335,33245,42441,33145,-4340,-736,-1398,72,141,49,161,597,-223,1,0,28,19,120,1,53298,1
2,31766,30343,33267,42442,33169,-4364,-783,-1432,-48,180,32,157,599,-225,1,0,28,19,160,1,53298,1
2,31759,30344,33282,42443,33193,-4368,-806,-1440,261,124,102,159,601,-223,1,0,28,19,200,1,53298,1
2,31695,30434,33258,42444,33216,-4378,-799,-1448,482,109,37,161,599,-233,1,0,28,19,240,1,53298,1
2,31734,30365,33325,42445,33240,-4383,-784,-1439,490,113,-23,154,596,-232,1,0,28,19,280,1,53298,1
2,32045,30526,33530,42446,33264,-4378,-753,-1435,534,96,20,162,592,-228,1,0,28,19,320,1,53298,1
2,32322,30531,33671,42447,33288,-4357,-747,-1426,494,60,75,166,594,-234,1,0,28,19,360,1,53298,1
2,32317,30442,33647,42448,33312,-4363,-780,-1431,159,45,82,154,592,-226,1,0,28,19,400,1,53298,1
2,32293,30384,33620,42449,33337,-4359,-799,-1445,17,37,37,162,602,-232,1,0,28,19,440,1,53298,1
2,32272,30388,33612,42450,33361,-4360,-774,-1442,208,4,-13,158,604,-228,1,0,28,19,480,1,53298,1
2,32250,30394,33595,42451,33384,-4357,-752,-1433,334,35,-45,162,604,-226,1,0,28,19,520,1,53298,1
2,32265,30385,33613,42452,33407,-4362,-773,-1430,344,53,-6,156,596,-230,1,0,28,19,560,1,53298,1
2,32235,30404,33599,42453,33430,-4352,-791,-1432,414,61,21,152,598,-230,1,0,28,19,600,1,53298,1
2,32235,30406,33604,42454,33453,-4354,-787,-1439,361,36,9,159,607,-221,1,0,28,19,640,1,53298,1
2,32216,30424,33587,42455,33476,-4348,-787,-1432,187,-2,29,159,597,-233,1,0,28,19,680,1,53298,1
2,32199,30449,33563,42456,33499,-4340,-782,-1444,67,-41,35,156,604,-216,1,0,28,19,720,1,53298,1
2,32186,30428,33577,42457,33522,-4357,-791,-1439,67,-56,35,156,596,-230,1,0,28,19,760,1,53298,1
2,31970,30434,33460,42458,33545,-4371,-776,-1422,172,-33,36,158,604,-234,1,0,28,19,800,1,53298,1
2,31939,30473,33432,42459,33568,-4361,-772,-1416,158,15,27,158,602,-232,1,0,28,19,840,1,53298,1
2,31935,30426,33430,42460,33592,-4366,-787,-1418,55,67,21,162,592,-224,1,0,28,19,880,1,53298,1
2,31929,30374,33444,42461,33615,-4347,-785,-1443,54,56,16,151,607,-227,1,0,28,19,920,1,53298,1
2,31969,30377,33453,42462,33639,-4355,-786,-1462,93,15,4,157,601,-221,1,0,28,19,960,1,53298,1
1,31944,30348,33463,42463,0,-4346,-787,-1441,13,-17,2,159,591,-221,1,0,28,20,0,0,53298,1
2,31870,30320,33425,42464,32640,-4362,-811,-1437,33,-28,17,158,592,-238,1,0,28,20,40,0,53298,1
2,31889,30329,33430,42465,32665,-4368,-802,-1434,145,-29,27,165,605,-231,1,0,28,20,80,0,53298,1
2,31905,30331,33472,42466,32689,-4371,-802,-1444,178,-4,33,159,597,-223,1,0,28,20,120,0,53298,1
2,31948,30350,33487,42467,32714,-4347,-790,-1423,43,7,24,162,592,-228,1,0,28,20,160,0,53298,1
2,32070,30375,33557,42468,32738,-4344,-784,-1430,-66,15,4,158,598,-234,1,0,28,20,200,0,53298,1
2,32105,30405,33588,42469,32762,-4358,-782,-1421,14,3,18,159,601,-237,1,0,28,20,240,0,53298,1
2,32117,30419,33597,42470,32787,-4353,-795,-1423,14,9,4,155,593,-229,1,0,28,20,280,0,53298,1
2,32159,30442,33615,42471,32811,-4353,-805,-1453,31,4,24,162,600,-220,1,0,28,20,320,0,53298,1
2,32125,30431,33625,42472,32834,-4356,-792,-1443,177,-9,41,164,594,-236,1,0,28,20,360,0,53298,1
2,32099,30436,33591,42473,32856,-4367,-781,-1435,159,-3,14,160,594,-222,1,0,28,20,400,0,53298,1
2,32085,30428,33593,42474,32880,-4359,-790,-1433,-8,10,20,159,597,-235,1,0,28,20,440,0,53298,1
2,32062,30427,33571,42475,32905,-4353,-791,-1441,-47,4,19,149,597,-223,1,0,28,20,480,0,53298,1
2,32069,30424,33570,42476,32929,-4366,-788,-1434,-21,2,7,159,597,-229,1,0,28,20,520,0,53298,1
2,32050,30416,33578,42477,32953,-4360,-786,-1435,51,-13,13,158,600,-238,1,0,28,20,560,0,53298,1
2,32059,30420,33585,42478,32976,-4358,-786,-1436,142,-14,26,158,606,-230,1,0,28,20,600,0,53298,1
2,32034,30400,33541,42479,32999,-4353,-789,-1418,75,3,15,163,601,-235,1,0,28,20,640,0,53298,1
2,32048,30402,33544,42480,33022,-4358,-787,-1455,-9,14,20,151,593,-221,1,0,28,20,680,0,53298,1
2,32015,30394,33539,42481,33046,-4356,-795,-1448,6,12,26,157,595,-233,1,0,28,20,720,0,53298,1
2,31990,30382,33545,42482,33070,-4356,-799,-1442,47,1,25,154,590,-228,1,0,28,20,760,0,53298,1
2,32018,30376,33508,42483,33093,-4360,-779,-1434,61,-17,29,159,593,-227,1,0,28,20,800,0,53298,1
2,32026,30369,33554,42484,33117,-4349,-791,-1422,45,-14,26,156,610,-228,1,0,28,20,840,0,53298,1
2,32004,30357,33548,42485,33142,-4361,-798,-1443,56,-4,18,158,602,-226,1,0,28,20,880,0,53298,1
2,32028,30370,33551,42486,33166,-4356,-782,-1435,83,-4,11,156,594,-232,1,0,28,20,920,0,53298,1
2,32000,30365,33557,42487,33190,-4352,-788,-1440,38,13,6,147,591,-229,1,0,28,20,960,0,53298,1
1,31995,30356,33519,42488,0,-4349,-795,-1427,-15,14,11,156,604,-222,1,0,28,21,0,0,53298,1
2,32017,30357,33543,42489,32182,-4359,-788,-1436,23,12,13,157,599,-225,1,0,28,21,40,0,53298,1
2,32008,30358,33541,42490,32205,-4353,-779,-1431,36,3,8,156,592,-228,1,0,28,21,80,0,53298,1
2,32006,30344,33529,42491,32229,-4353,-790,-1425,-19,7,21,163,595,-229,1,0,28,21,120,0,53298,1
2,32012,30341,33518,42492,32252,-4352,-787,-1435,-72,7,20,154,596,-228,1,0,28,21,160,0,53298,1
2,31989,30332,33515,42493,32275,-4360,-796,-1427,-37,-15,14,163,603,-229,1,0,28,21,200,0,53298,1
2,31986,30331,33510,42494,32298,-4371,-807,-1443,-4,-18,13,150,598,-226,1,0,28,21,240,0,53298,1
2,31967,30331,33505,42495,32322,-4369,-786,-1439,18,-27,48,162,606,-238,1,0,28,21,280,0,53298,1
2,31970,30336,33509,42496,32345,-4366,-778,-1448,-32,-23,33,155,601,-229,1,0,28,21,320,0,53298,1
2,31961,30326,33480,42497,32368,-4363,-828,-1434,-225,19,-16,150,606,-232,1,0,28,21,360,0,53298,1
2,31924,30331,33420,42498,32391,-4353,-811,-1408,-449,74,-91,154,604,-226,1,0,28,21,400,0,53298,1
2,31949,30334,33402,42499,32414,-4377,-766,-1452,-603,69,-76,151,597,-225,1,0,28,21,440,0,53298,1
2,31906,30316,33341,42500,32436,-4351,-703,-1452,-768,114,-59,155,603,-229,1,0,28,21,480,0,53298,1
2,31680,30311,33200,42501,32458,-4426,-683,-1552,-1240,166,46,149,603,-223,1,0,28,21,520,0,53298,1
2,31935,30706,33199,42502,32480,-4463,-586,-1648,-3599,560,504,151,593,-241,1,0,28,21,560,0,53298,1
2,31995,30635,32913,42503,32502,-4576,-762,-1711,-9112,2125,-336,157,603,-231,1,0,28,21,600,0,53298,1
2,31887,30844,32709,42504,32524,-4401,1487,-1509,-10658,3405,1756,158,594,-248,1,0,28,21,640,0,53298,1
2,32285,30856,32872,42505,32546,-4415,1401,-1213,-10426,3960,5858,145,587,-251,1,0,28,21,680,0,53298,1
2,32314,30964,32836,42506,32566,-4373,2357,-620,115,-391,10678,116,570,-252,1,0,28,21,720,0,53298,1
2,32290,30521,32746,42507,32587,-4759,83,-1509,-9375,-709,11521,91,551,-247,1,0,28,21,760,0,53298,1
2,32259,30694,32713,42508,32607,-4854,-608,-1128,-9654,-1949,9994,73,527,-239,1,0,28,21,800,0,53298,1
2,32128,30644,32664,42509,32626,-4707,-1270,-650,-10006,-3007,6559,80,514,-226,1,0,28,21,840,0,53298,1
2,32179,30613,32646,42510,32645,-4476,-1295,-818,-5826,-4591,2821,75,499,-213,1,0,28,21,880,0,53298,1
2,31304,30222,31678,42511,32664,-4305,-991,-911,-1184,-6177,-295,87,493,-215,1,0,28,21,920,0,53298,1
2,32155,30500,32698,42512,32684,-4147,-420,-1052,502,-6559,-2427,81,491,-197,1,0,28,21,960,0,53298,1
1,32174,30461,32736,42513,0,-4111,-43,-1108,-345,-6144,-4052,107,491,-181,1,0,28,22,0,1,53298,1
2,32123,30399,32683,42514,31722,-4141,130,-1231,-557,-5560,-4880,120,486,-178,1,0,28,22,40,1,53298,1
2,32104,30581,32703,42515,31743,-4216,218,-1296,388,-4810,-5430,133,487,-173,1,0,28,22,80,1,53298,1
2,32082,30652,32655,42516,31762,-4293,388,-1331,2641,-3828,-5717,133,489,-155,1,0,28,22,120,1,53298,1
2,32032,30754,32634,42517,31781,-4255,1139,-1414,3880,-2610,-5640,142,490,-148,1,0,28,22,160,1,53298,1
2,32202,30616,32845,42518,31800,-4770,3178,-1701,526,814,-1980,138,494,-150,1,0,28,22,200,1,53298,1
2,32102,30656,32719,42519,31820,-5307,-294,85,4409,34,498,145,491,-155,1,0,28,22,240,1,53298,1
2,31994,30518,32641,42520,31839,-4479,-708,57,1787,241,64,140,500,-142,1,0,28,22,280,1,53298,1
2,31991,30647,32639,42521,31858,-4038,93,-611,457,-119,-236,135,491,-135,1,0,28,22,320,1,53298,1
2,32021,30820,32665,42522,31876,-4564,95,-883,167,436,431,137,493,-149,1,0,28,22,360,1,53298,1
2,31999,30773,32645,42523,31895,-4810,129,-597,88,644,436,144,494,-152,1,0,28,22,400,1,53298,1
2,31982,30771,32627,42524,31913,-4412,74,-552,833,130,485,137,489,-151,1,0,28,22,440,1,53298,1
2,32011,30818,32636,42525,31932,-4396,83,-733,944,-51,451,140,490,-150,1,0,28,22,480,1,53298,1
2,32006,30865,32649,42526,31951,-4545,186,-629,489,-42,165,132,486,-140,1,0,28,22,520,1,53298,1
2,31974,30681,32607,42527,31969,-4511,144,-532,-37,-132,-111,140,498,-150,1,0,28,22,560,1,53298,1
2,31732,31898,32350,42528,31987,-4451,51,-632,-164,-139,-181,138,486,-156,1,0,28,22,600,1,53298,1
2,31917,30383,32563,42529,32006,-4475,73,-619,145,-33,-110,134,488,-156,1,0,28,22,640,1,53298,1
2,31962,30666,32584,42530,32024,-4492,119,-563,245,97,5,134,498,-150,1,0,28,22,680,1,53298,1
2,31951,30695,32579,42531,32042,-4476,112,-599,74,165,76,134,484,-146,1,0,28,22,720,1,53298,1
2,31945,30535,32572,42532,32061,-4480,88,-643,40,165,83,136,486,-158,1,0,28,22,760,1,53298,1
2,31947,30529,32569,42533,32079,-4496,104,-638,139,127,7,142,490,-154,1,0,28,22,800,1,53298,1
2,31948,30497,32570,42534,32098,-4495,100,-614,148,74,-64,136,484,-154,1,0,28,22,840,1,53298,1
2,31955,30607,32581,42535,32116,-4478,80,-629,61,51,-98,141,491,-149,1,0,28,22,880,1,53298,1
2,31952,30655,32573,42536,32134,-4477,70,-631,3,43,-67,133,481,-149,1,0,28,22,920,1,53298,1
2,31943,30586,32564,42537,32152,-4491,85,-614,46,37,-15,140,496,-154,1,0,28,22,960,1,53298,1
1,31951,30643,32572,42538,0,-4482,96,-626,61,13,36,142,488,-160,1,0,28,23,0,1,53298,1
2,31969,30779,32589,42539,31264,-4489,95,-641,37,3,45,141,483,-153,1,0,28,23,40,1,53298,1
2,31957,30627,32572,42540,31282,-4481,91,-615,30,-22,27,134,492,-146,1,0,28,23,80,1,53298,1
2,31934,30495,32553,42541,31301,-4474,101,-638,18,-8,0,137,491,-157,1,0,28,23,120,1,53298,1
2,31938,30487,32559,42542,31320,-4481,85,-637,16,1,-15,139,487,-151,1,0,28,23,160,1,53298,1
2,31960,30607,32571,42543,31338,-4483,87,-622,12,20,-2,140,478,-148,1,0,28,23,200,1,53298,1
2,31952,30594,32584,42544,31358,-4492,90,-634,14,29,8,146,486,-160,1,0,28,23,240,1,53298,1
2,31981,30577,32607,42545,31377,-4488,82,-638,18,26,25,137,479,-157,1,0,28,23,280,1,53298,1
2,31968,30528,32596,42546,31396,-4497,78,-637,18,14,25,131,487,-159,1,0,28,23,320,1,53298,1
2,31965,30413,32580,42547,31416,-4482,90,-643,13,-5,8,144,478,-154,1,0,28,23,360,1,53298,1
2,31946,30381,32571,42548,31434,-4473,86,-626,-20,-14,8,139,493,-153,1,0,28,23,400,1,53298,1
2,31962,30431,32577,42549,31454,-4486,84,-639,-35,-16,18,139,495,-147,1,0,28,23,440,1,53298,1
2,31961,30415,32578,42550,31473,-4488,83,-627,-7,-26,21,136,482,-146,1,0,28,23,480,1,53298,1
2,31984,30581,32596,42551,31492,-4495,79,-618,6,-6,29,144,486,-146,1,0,28,23,520,1,53298,1
2,31933,30324,32539,42552,31512,-4483,89,-633,-6,6,40,151,493,-153,1,0,28,23,560,1,53298,1
2,31957,30398,32572,42553,31533,-4488,84,-625,-1,28,48,141,491,-159,1,0,28,23,600,1,53298,1
2,31967,30408,32579,42554,31552,-4497,68,-626,17,14,63,137,481,-151,1,0,28,23,640,1,53298,1
2,31976,30456,32589,42555,31571,-4485,90,-637,10,3,50,141,487,-155,1,0,28,23,680,1,53298,1
2,31972,30499,32586,42556,31590,-4493,90,-621,8,-12,43,136,496,-150,1,0,28,23,720,1,53298,1
2,31955,30410,32572,42557,31610,-4486,101,-619,-5,-6,33,135,483,-141,1,0,28,23,760,1,53298,1
2,31963,30391,32554,42558,31628,-4475,87,-623,-9,-5,11,141,487,-151,1,0,28,23,800,1,53298,1
2,31940,30368,32560,42559,31647,-4479,87,-623,48,21,1,134,488,-152,1,0,28,23,840,1,53298,1
2,31951,30379,32563,42560,31666,-4482,100,-629,40,51,2,139,493,-153,1,0,28,23,880,1,53298,1
2,31963,30435,32564,42561,31685,-4478,88,-627,13,60,3,145,493,-155,1,0,28,23,920,1,53298,1
2,31975,30453,32593,42562,31704,-4479,92,-641,20,54,13,145,493,-157,1,0,28,23,960,1,53298,1
1,31986,30595,32605,42563,0,-4496,80,-652,35,24,10,141,491,-153,1,0,28,24,0,1,53298,1
2,31982,30583,32600,42564,30809,-4485,86,-642,1,-6,15,141,489,-165,1,0,28,24,40,1,53298,1
2,31984,30584,32599,42565,30829,-4485,90,-640,-19,-18,30,142,494,-146,1,0,28,24,80,1,53298,1
2,31980,30557,32594,42566,30849,-4490,93,-640,21,-19,35,146,500,-160,1,0,28,24,120,1,53298,1
2,31972,30537,32591,42567,30868,-4490,96,-625,-3,-7,33,131,493,-151,1,0,28,24,160,1,53298,1
2,31973,30518,32588,42568,30889,-4471,93,-644,-25,-3,31,148,492,-158,1,0,28,24,200,1,53298,1
2,31977,30498,32595,42569,30908,-4489,78,-635,-2,2,34,148,492,-154,1,0,28,24,240,1,53298,1
2,31976,30453,32588,42570,30928,-4494,89,-647,16,3,26,134,496,-142,1,0,28,24,280,1,53298,1
2,31962,30412,32577,42571,30946,-4491,94,-620,7,5,20,135,493,-155,1,0,28,24,320,1,53298,1
2,31953,30372,32556,42572,30965,-4493,81,-635,-10,3,22,144,484,-150,1,0,28,24,360,1,53298,1
2,31923,30355,32540,42573,30984,-4483,79,-634,0,-3,30,144,490,-154,1,0,28,24,400,1,53298,1
2,31915,30309,32525,42574,31004,-4472,98,-645,7,-8,26,142,494,-154,1,0,28,24,440,1,53298,1
2,31905,30300,32511,42575,31022,-4475,99,-634,-2,-6,25,136,488,-150,1,0,28,24,480,1,53298,1
2,31886,30301,32498,42576,31042,-4488,88,-655,-20,-5,12,131,487,-157,1,0,28,24,520,1,53298,1
2,31904,30310,32506,42577,31061,-4485,84,-632,-12,-1,19,143,479,-151,1,0,28,24,560,1,53298,1
2,31903,30307,32512,42578,31079,-4488,85,-643,8,-6,22,140,488,-160,1,0,28,24,600,1,53298,1
2,31890,30311,32497,42579,31098,-4485,83,-634,2,0,30,140,484,-154,1,0,28,24,640,1,53298,1
2,31883,30332,32488,42580,31118,-4481,91,-625,-14,3,37,137,493,-149,1,0,28,24,680,1,53298,1
2,31891,30310,32497,42581,31138,-4498,69,-636,-1,6,23,137,499,-145,1,0,28,24,720,1,53298,1
2,31901,30315,32510,42582,31158,-4466,101,-646,17,-2,26,143,489,-153,1,0,28,24,760,1,53298,1
2,31900,30315,32505,42583,31177,-4474,91,-631,-9,1,32,144,486,-162,1,0,28,24,800,1,53298,1
2,31914,30316,32518,42584,31197,-4496,74,-620,-2,1,32,143,481,-159,1,0,28,24,840,1,53298,1
2,31925,30325,32521,42585,31217,-4468,105,-634,6,-5,36,137,485,-163,1,0,28,24,880,1,53298,1
2,31927,30327,32529,42586,31236,-4497,77,-643,5,-5,24,128,494,-146,1,0,28,24,920,1,53298,1
2,31925,30334,32527,42587,31256,-4480,95,-637,-23,-9,12,136,490,-158,1,0,28,24,960,1,53298,1
1,31922,30317,32523,42588,0,-4472,87,-641,-19,-8,11,132,492,-148,1,0,28,25,0,0,53298,1
2,31927,30344,32531,42589,30352,-4478,107,-634,8,-15,25,133,491,-147,1,0,28,25,40,0,53298,1
2,31914,30313,32517,42590,30372,-4476,95,-627,7,-4,27,139,485,-151,1,0,28,25,80,0,53298,1
2,31904,30308,32513,42591,30391,-4474,95,-631,-10,-3,40,150,486,-160,1,0,28,25,120,0,53298,1
2,31902,30307,32515,42592,30411,-4489,88,-631,-3,-11,33,142,494,-158,1,0,28,25,160,0,53298,1
2,31899,30299,32510,42593,30430,-4478,89,-629,-8,-24,27,138,484,-156,1,0,28,25,200,0,53298,1
2,31914,30326,32515,42594,30449,-4488,91,-636,5,-17,28,144,490,-164,1,0,28,25,240,0,53298,1
2,31918,30342,32522,42595,30468,-4496,73,-633,-12,-2,17,142,494,-150,1,0,28,25,280,0,53298,1
2,31923,30356,32525,42596,30487,-4489,86,-641,10,5,41,141,487,-155,1,0,28,25,320,0,53298,1
2,31939,30367,32534,42597,30507,-4498,83,-629,15,17,36,143,487,-151,1,0,28,25,360,0,53298,1
2,31923,30358,32524,42598,30527,-4489,83,-628,10,14,16,133,489,-155,1,0,28,25,400,0,53298,1
2,31924,30359,32536,42599,30546,-4492,76,-642,-9,19,12,136,492,-154,1,0,28,25,440,0,53298,1
2,31931,30358,32532,42600,30565,-4480,97,-634,36,-1,20,139,495,-157,1,0,28,25,480,0,53298,1
2,31924,30351,32535,42601,30584,-4493,82,-608,21,-6,33,135,485,-145,1,0,28,25,520,0,53298,1
2,31933,30350,32532,42602,30602,-4484,87,-626,-8,-2,41,134,484,-158,1,0,28,25,560,0,53298,1
2,31913,30339,32523,42603,30620,-4483,87,-638,-19,-14,48,143,495,-147,1,0,28,25,600,0,53298,1
2,31914,30317,32516,42604,30639,-4481,88,-651,-11,-16,45,135,487,-157,1,0,28,25,640,0,53298,1
2,31862,30330,32496,42605,30658,-4488,89,-643,12,-10,23,126,494,-160,1,0,28,25,680,0,53298,1
2,31868,30380,32467,42606,30677,-4488,87,-624,-1,9,-6,148,486,-158,1,0,28,25,720,0,53298,1
2,31871,30361,32466,42607,30695,-4487,80,-634,-13,21,-8,142,486,-154,1,0,28,25,760,0,53298,1
2,31870,30427,32460,42608,30714,-4478,79,-642,-15,17,3,135,499,-147,1,0,28,25,800,0,53298,1
2,31890,30311,32489,42609,30733,-4487,85,-628,22,-3,31,147,491,-159,1,0,28,25,840,0,53298,1
2,31895,30327,32478,42610,30751,-4493,91,-646,22,-9,54,134,488,-156,1,0,28,25,880,0,53298,1
2,31868,30377,32466,42611,30770,-4477,96,-631,-23,-20,75,143,487,-165,1,0,28,25,920,0,53298,1
2,31796,30667,32386,42612,30788,-4478,107,-657,6,-19,75,143,487,-157,1,0,28,25,960,0,53298,1
1,31897,30332,32498,42613,0,-4506,87,-627,15,-9,32,137,495,-145,1,0,28,26,0,1,53298,1
2,31893,30330,32493,42614,29896,-4495,87,-651,-53,-29,-33,146,492,-154,1,0,28,26,40,1,53298,1
2,31861,30358,32451,42615,29915,-4488,82,-658,-64,-42,-61,137,479,-157,1,0,28,26,80,1,53298,1
2,31928,30346,32519,42616,29933,-4492,77,-628,-29,-46,-39,141,499,-159,1,0,28,26,120,1,53298,1
2,31925,30368,32525,42617,29952,-4490,83,-639,-3,-28,20,135,485,-143,1,0,28,26,160,1,53298,1
2,31914,30362,32510,42618,29971,-4485,93,-639,5,-5,61,152,490,-156,1,0,28,26,200,1,53298,1
2,31907,30385,32510,42619,29989,-4484,84,-635,6,5,61,139,493,-147,1,0,28,26,240,1,53298,1
2,31912,30323,32501,42620,30007,-4477,92,-637,15,1,56,139,483,-155,1,0,28,26,280,1,53298,1
2,31914,30355,32500,42621,30026,-4487,99,-631,-4,-21,32,136,490,-158,1,0,28,26,320,1,53298,1
2,31930,30371,32513,42622,30044,-4479,78,-620,-28,-32,22,139,495,-147,1,0,28,26,360,1,53298,1
2,31944,30419,32528,42623,30063,-4492,89,-640,-23,-22,23,133,483,-139,1,0,28,26,400,1,53298,1
2,31931,30444,32530,42624,30081,-4487,92,-616,13,4,20,139,489,-155,1,0,28,26,440,1,53298,1
2,31950,30449,32541,42625,30100,-4480,96,-616,1,27,22,142,496,-158,1,0,28,26,480,1,53298,1
2,31939,30462,32541,42626,30118,-4488,85,-644,9,29,23,141,493,-159,1,0,28,26,520,1,53298,1
2,31943,30482,32543,42627,30136,-4473,105,-643,26,10,36,144,482,-158,1,0,28,26,560,1,53298,1
2,31939,30486,32536,42628,30155,-4480,109,-628,35,-4,29,134,480,-154,1,0,28,26,600,1,53298,1
2,31937,30500,32541,42629,30174,-4484,86,-633,-5,-7,19,139,483,-153,1,0,28,26,640,1,53298,1
2,31943,30530,32547,42630,30193,-4482,91,-629,11,2,20,134,488,-156,1,0,28,26,680,1,53298,1
2,31940,30550,32544,42631,30212,-4484,87,-637,19,1,25,137,485,-153,1,0,28,26,720,1,53298,1
2,31945,30544,32548,42632,30231,-4481,90,-636,3,5,17,139,483,-157,1,0,28,26,760,1,53298,1
2,31961,30558,32555,42633,30250,-4483,88,-646,9,1,24,144,482,-156,1,0,28,26,800,1,53298,1
2,31945,30552,32529,42634,30269,-4481,92,-643,6,-5,32,131,491,-141,1,0,28,26,840,1,53298,1
2,31919,30515,32514,42635,30289,-4486,93,-636,-2,-11,31,140,490,-150,1,0,28,26,880,1,53298,1
2,31915,30469,32522,42636,30308,-4497,83,-631,-11,-11,24,135,493,-159,1,0,28,26,920,1,53298,1
2,31889,30322,32478,42637,30327,-4485,87,-634,-1,2,21,149,489,-149,1,0,28,26,960,1,53298,1
1,31848,30281,32450,42638,0,-4492,81,-622,-3,-4,18,140,484,-154,1,0,28,27,0,1,53298,1
2,31865,30269,32466,42639,29440,-4473,101,-640,-4,-11,24,136,500,-142,1,0,28,27,40,1,53298,1
2,31864,30273,32453,42640,29459,-4491,87,-633,-10,0,34,144,492,-160,1,0,28,27,80,1,53298,1
2,31850,30265,32425,42641,29479,-4474,94,-623,-7,-13,39,128,486,-156,1,0,28,27,120,1,53298,1
2,31861,30273,32452,42642,29499,-4488,108,-639,-10,-16,32,136,496,-162,1,0,28,27,160,1,53298,1
2,31885,30299,32485,42643,29519,-4498,82,-625,1,-11,26,139,485,-157,1,0,28,27,200,1,53298,1
2,31876,30315,32473,42644,29539,-4487,79,-629,-4,-9,15,141,499,-153,1,0,28,27,240,1,53298,1
2,31905,30413,32499,42645,29559,-4480,92,-633,-11,-11,21,130,486,-160,1,0,28,27,280,1,53298,1
2,31925,30485,32520,42646,29578,-4496,96,-628,8,-2,20,138,488,-156,1,0,28,27,320,1,53298,1
2,31941,30524,32530,42647,29596,-4487,86,-646,2,-2,26,143,491,-149,1,0,28,27,360,1,53298,1
2,31940,30548,32539,42648,29615,-4491,91,-637,11,15,30,137,491,-149,1,0,28,27,400,1,53298,1
2,31937,30579,32531,42649,29633,-4493,81,-627,22,-5,30,150,486,-160,1,0,28,27,440,1,53298,1
2,31938,30569,32536,42650,29651,-4489,92,-632,-9,-21,16,142,486,-152,1,0,28,27,480,1,53298,1
2,31941,30569,32534,42651,29670,-4501,85,-630,-13,-39,-6,133,499,-147,1,0,28,27,520,1,53298,1
2,31929,30541,32524,42652,29688,-4455,101,-633,6,-75,-28,144,488,-158,1,0,28,27,560,1,53298,1
2,31926,30514,32523,42653,29707,-4482,95,-635,-59,-70,-103,139,489,-147,1,0,28,27,600,1,53298,1
2,31932,30545,32533,42654,29725,-4473,76,-628,-66,-95,-126,123,481,-153,1,0,28,27,640,1,53298,1
2,31926,30520,32520,42655,29744,-4497,83,-625,-138,-103,-126,143,481,-159,1,0,28,27,680,1,53298,1
2,31929,30537,32531,42656,29763,-4521,83,-618,-104,-142,-71,140,490,-152,1,0,28,27,720,1,53298,1
2,31938,30535,32528,42657,29782,-4536,100,-571,158,-182,65,136,480,-148,1,0,28,27,760,1,53298,1
2,31915,30538,32526,42658,29800,-4566,132,-630,43,-161,171,131,483,-157,1,0,28,27,800,1,53298,1
2,31930,30444,32545,42659,29819,-4587,174,-635,-306,-309,502,140,490,-140,1,0,28,27,840,1,53298,1
2,31907,30839,32610,42660,29838,-4589,197,-635,-651,-551,1101,137,487,-155,1,0,28,27,880,1,53298,1
2,32010,30595,32570,42661,29858,-4509,322,-756,-915,-741,1327,132,498,-154,1,0,28,27,920,1,53298,1
2,32145,30655,32716,42662,29879,-4200,1071,-1234,-1033,-146,2034,140,492,-156,1,0,28,27,960,1,53298,1
1,32137,30408,32723,42663,0,-3910,1763,-1492,-1441,924,4130,122,488,-156,1,0,28,28,0,0,53298,1
2,32096,30643,32588,42664,28985,-4095,1316,-1725,-4038,3172,6068,107,485,-153,1,0,28,28,40,0,53298,1
2,31927,32668,32526,42665,29006,-4295,928,-1705,-3721,5354,7660,99,487,-167,1,0,28,28,80,0,53298,1
2,32040,30366,32507,42666,29027,-4600,484,-1501,-1993,6882,8268,78,480,-186,1,0,28,28,120,0,53298,1
2,31957,30323,32476,42667,29046,-4647,155,-1495,527,7630,7304,64,482,-198,1,0,28,28,160,0,53298,1
2,31879,30372,32360,42668,29066,-4826,-309,-1009,2544,7920,5075,52,482,-212,1,0,28,28,200,0,53298,1
2,32211,30489,32794,42669,29085,-4423,-469,-818,3138,7683,2091,41,485,-241,1,0,28,28,240,0,53298,1
2,32233,30498,32770,42670,29104,-4406,-1324,-669,987,7791,-1573,41,511,-253,1,0,28,28,280,0,53298,1
2,32126,30412,32620,42671,29124,-4373,-1178,-684,2484,6889,-5086,40,512,-270,1,0,28,28,320,0,53298,1
2,32080,30377,32525,42672,29144,-4527,-733,-995,5715,5614,-8321,59,531,-283,1,0,28,28,360,0,53298,1
2,32062,30345,32520,42673,29163,-4791,-20,-935,8040,3459,-10994,88,550,-304,1,0,28,28,400,0,53298,1
2,32063,30348,32581,42674,29183,-4626,1023,-862,8269,685,-11897,122,568,-320,1,0,28,28,440,0,53298,1
2,32649,30813,34252,42675,29202,-1973,3372,-626,3845,-820,-14879,165,581,-315,1,0,28,28,480,0,53298,1
2,32443,30513,33433,42676,29223,-5382,463,-2193,2605,-2940,-18401,196,588,-298,1,0,28,28,520,0,53298,1
2,31833,30356,32706,42677,29246,-3688,-1043,-1339,-5649,-6287,-2372,208,588,-288,1,0,28,28,560,0,53298,1
2,32368,30688,33171,42678,29269,-3767,-333,-1742,7927,-6613,-2509,205,589,-269,1,0,28,28,600,0,53298,1
2,31652,30484,32614,42679,29292,-4293,1462,-3482,10701,-4224,-3540,214,592,-262,1,0,28,28,640,0,53298,1
2,31891,30471,33065,42680,29317,-4300,-848,-2049,694,-136,1037,201,595,-243,1,0,28,28,680,0,53298,1
2,32075,30571,33213,42681,29342,-4903,-1330,-979,3681,464,3732,190,600,-260,1,0,28,28,720,0,53298,1
2,32077,30551,33248,42682,29366,-4565,-979,-1091,6100,-585,2441,188,596,-258,1,0,28,28,760,0,53298,1
2,32140,30565,33364,42683,29389,-4130,-850,-1552,2392,-933,354,194,600,-248,1,0,28,28,800,0,53298,1
2,32290,30640,33595,42684,29413,-4290,-884,-1641,2514,-850,-57,183,605,-237,1,0,28,28,840,0,53298,1
2,31684,30558,33679,42685,29438,-4512,-859,-1522,3936,-532,773,180,596,-226,1,0,28,28,880,0,53298,1
2,32345,30634,33909,42686,29463,-4372,-927,-1564,3974,-462,1048,174,604,-238,1,0,28,28,920,0,53298,1
2,32320,30695,33930,42687,29489,-4287,-1014,-1532,2825,-200,680,186,604,-238,1,0,28,28,960,0,53298,1
1,32265,30635,33985,42688,0,-4321,-919,-1468,2484,-94,333,179,593,-235,1,0,28,29,0,1,53298,1
2,32198,30500,34030,42689,28533,-4367,-901,-1472,1930,-135,251,178,610,-240,1,0,28,29,40,1,53298,1
2,32089,30456,33972,42690,28559,-4377,-917,-1456,1257,-193,272,175,605,-233,1,0,28,29,80,1,53298,1
2,31540,30176,33195,42691,28585,-4387,-954,-1452,948,-193,250,176,606,-240,1,0,28,29,120,1,53298,1
2,32155,30508,34040,42692,28611,-4352,-933,-1429,1042,-113,224,180,604,-232,1,0,28,29,160,1,53298,1
2,32069,30499,33963,42693,28637,-4368,-901,-1413,1023,-21,244,180,598,-232,1,0,28,29,200,1,53298,1
2,31747,30463,33653,42694,28663,-4372,-915,-1451,731,45,196,179,601,-239,1,0,28,29,240,1,53298,1
2,31690,30457,33523,42695,28689,-4347,-965,-1477,599,56,192,172,594,-238,1,0,28,29,280,1,53298,1
2,31122,30320,33008,42696,28715,-4343,-975,-1454,614,37,151,174,604,-234,1,0,28,29,320,1,53298,1
2,31071,30160,33019,42697,28741,-4363,-937,-1422,332,5,21,169,607,-245,1,0,28,29,360,1,53298,1
2,31198,30198,33141,42698,28767,-4338,-933,-1429,-68,-24,-44,170,610,-230,1,0,28,29,400,1,53298,1
2,30992,30128,32935,42699,28793,-4358,-947,-1453,-107,-39,7,170,602,-230,1,0,28,29,440,1,53298,1
2,30924,30236,32895,42700,28818,-4341,-953,-1431,44,-3,31,172,610,-236,1,0,28,29,480,1,53298,1
2,30961,29919,32901,42701,28843,-4359,-933,-1433,89,41,-5,172,602,-240,1,0,28,29,520,1,53298,1
2,30938,30059,32898,42702,28869,-4348,-945,-1445,84,47,17,172,606,-234,1,0,28,29,560,1,53298,1
2,30933,29946,32894,42703,28893,-4354,-958,-1446,92,37,34,170,602,-228,1,0,28,29,600,1,53298,1
2,30948,29885,32889,42704,28919,-4340,-947,-1453,101,7,44,176,602,-232,1,0,28,29,640,1,53298,1
2,31099,29935,32903,42705,28944,-4349,-954,-1446,163,-13,59,175,607,-233,1,0,28,29,680,1,53298,1
2,31115,29882,32900,42706,28970,-4362,-946,-1432,78,-15,35,166,602,-234,1,0,28,29,720,1,53298,1
2,31129,29899,32920,42707,28995,-4353,-955,-1435,34,-12,29,179,605,-239,1,0,28,29,760,1,53298,1
2,31110,29928,32919,42708,29021,-4348,-942,-1440,67,-6,37,164,606,-222,1,0,28,29,800,1,53298,1
2,31102,29923,32910,42709,29046,-4344,-932,-1440,69,14,14,170,602,-236,1,0,28,29,840,1,53298,1
2,31076,29947,32915,42710,29072,-4362,-961,-1447,-2,-3,13,177,613,-237,1,0,28,29,880,1,53298,1
2,31090,29993,32921,42711,29097,-4354,-962,-1434,10,-23,18,174,610,-234,1,0,28,29,920,1,53298,1
2,31111,30062,32919,42712,29122,-4345,-925,-1439,29,-27,17,171,601,-235,1,0,28,29,960,1,53298,1
1,31131,29963,32919,42713,0,-4352,-939,-1428,-29,-11,2,176,604,-236,1,0,28,30,0,1,53298,1
2,31145,29984,32934,42714,28078,-4338,-951,-1440,17,-9,35,178,604,-228,1,0,28,30,40,1,53298,1
2,31145,29956,32946,42715,28104,-4360,-951,-1428,57,-10,40,174,604,-240,1,0,28,30,80,1,53298,1
2,31151,29995,32945,42716,28130,-4350,-934,-1431,42,-3,14,173,603,-237,1,0,28,30,120,1,53298,1
2,31151,30031,32948,42717,28156,-4346,-934,-1436,29,-9,-1,171,611,-225,1,0,28,30,160,1,53298,1
2,31146,30070,32952,42718,28182,-4351,-950,-1437,40,4,9,177,601,-237,1,0,28,30,200,1,53298,1
2,31148,30079,32950,42719,28207,-4347,-941,-1425,41,21,13,176,608,-234,1,0,28,30,240,1,53298,1
2,31144,30085,32967,42720,28233,-4348,-946,-1449,7,10,10,174,604,-234,1,0,28,30,280,1,53298,1
2,31148,30034,32966,42721,28260,-4347,-957,-1437,23,4,24,173,609,-235,1,0,28,30,320,1,53298,1
2,31142,30034,32974,42722,28286,-4350,-947,-1451,66,2,26,172,610,-236,1,0,28,30,360,1,53298,1
2,31143,30048,32973,42723,28312,-4350,-942,-1448,80,2,35,165,609,-225,1,0,28,30,400,1,53298,1
2,31128,30049,32972,42724,28338,-4358,-928,-1432,85,8,30,168,602,-236,1,0,28,30,440,1,53298,1
2,31112,30065,32970,42725,28364,-4345,-950,-1431,54,6,12,173,605,-235,1,0,28,30,480,1,53298,1
2,31045,30081,32969,42726,28390,-4349,-947,-1450,40,0,19,169,603,-245,1,0,28,30,520,1,53298,1
2,30929,30009,32975,42727,28415,-4342,-944,-1423,39,-10,18,168,600,-234,1,0,28,30,560,1,53298,1
2,30933,30002,32982,42728,28441,-4358,-945,-1438,2,-31,8,172,608,-236,1,0,28,30,600,1,53298,1
2,30935,29958,32980,42729,28466,-4331,-943,-1399,-66,-38,0,163,607,-227,1,0,28,30,640,1,53298,1
2,30941,29930,32992,42730,28492,-4325,-874,-1387,14,-37,-43,168,606,-224,1,0,28,30,680,1,53298,1
2,31108,29935,33005,42731,28516,-4357,-893,-1406,-294,-44,-126,170,606,-246,1,0,28,30,720,1,53298,1
2,30956,29963,32969,42732,28541,-4376,-938,-1491,-673,-81,-249,174,598,-230,1,0,28,30,760,1,53298,1
2,30982,30102,32887,42733,28567,-4467,-1012,-1623,-1119,-30,-228,170,606,-234,1,0,28,30,800,1,53298,1
2,31074,29964,32478,42734,28591,-4774,-1090,-2019,-4372,495,-595,182,604,-236,1,0,28,30,840,1,53298,1
2,30956,29948,32090,42735,28616,-4656,-618,-1795,-12060,2089,-555,187,595,-249,1,0,28,30,880,1,53298,1
2,31159,30407,31944,42736,28638,-4902,1694,-1736,-15273,3475,4018,167,603,-259,1,0,28,30,920,1,53298,1
2,32082,30485,32684,42737,28657,-3688,1184,-1372,-20975,4914,6897,144,592,-276,1,0,28,30,960,1,53298,1
1,32049,30639,32623,42738,0,-4679,1905,-521,-3524,-897,11770,124,566,-256,1,0,28,31,0,0,53298,1
2,31998,30636,32582,42739,27618,-4618,-37,-752,-7138,-2376,11682,101,549,-251,1,0,28,31,40,0,53298,1
2,31628,30437,32100,42740,27637,-4968,-1491,-3,-8583,-3434,8580,90,534,-234,1,0,28,31,80,0,53298,1
2,31476,30154,31995,42741,27657,-4916,-2212,-137,-7816,-5207,3877,100,508,-224,1,0,28,31,120,0,53298,1
2,31505,30195,32134,42742,27677,-4602,-1677,-391,-2656,-8344,-436,100,508,-206,1,0,28,31,160,0,53298,1
2,32477,30533,33076,42743,27698,-4244,-978,-970,-328,-9966,-3639,110,506,-184,1,0,28,31,200,0,53298,1
2,31452,30249,32102,42744,27718,-3837,-110,-1309,1667,-9646,-5177,119,491,-169,1,0,28,31,240,0,53298,1
2,32414,30417,32565,42745,27739,-4045,463,-1357,2662,-8282,-5434,141,495,-169,1,0,28,31,280,0,53298,1
2,32500,30763,33126,42746,27760,-4347,608,-1480,1876,-6445,-5505,146,490,-140,1,0,28,31,320,0,53298,1
2,32442,30736,33059,42747,27780,-4497,680,-1492,1356,-4569,-5446,163,491,-131,1,0,28,31,360,0,53298,1
2,32102,30570,32722,42748,27801,-4568,584,-1188,1090,-2816,-5087,175,493,-127,1,0,28,31,400,0,53298,1
2,31595,30523,31810,42749,27821,-4432,1454,-1754,-429,-70,-3526,174,488,-122,1,0,28,31,440,0,53298,1
2,31963,30456,32569,42750,27841,-4593,59,-394,4236,765,-293,173,493,-133,1,0,28,31,480,0,53298,1
2,31912,30426,32539,42751,27862,-4778,-933,331,2423,1472,150,166,498,-130,1,0,28,31,520,0,53298,1
2,31936,30404,32589,42752,27882,-4678,-39,-8,1475,243,-655,165,497,-129,1,0,28,31,560,0,53298,1
2,31513,30359,31846,42753,27902,-5008,506,-463,411,266,-148,155,495,-131,1,0,28,31,600,0,53298,1
2,31987,30338,32644,42754,27922,-4844,-273,-332,20,254,-109,162,502,-122,1,0,28,31,640,0,53298,1
2,31719,30340,32578,42755,27942,-4307,-335,-397,-285,89,-78,165,489,-121,1,0,28,31,680,0,53298,1
2,31968,30347,32600,42756,27962,-4415,-274,-462,555,22,277,168,494,-126,1,0,28,31,720,0,53298,1
2,31954,30345,32603,42757,27982,-4743,-59,-366,939,170,259,168,492,-138,1,0,28,31,760,0,53298,1
2,31950,30336,32585,42758,28002,-4612,-42,-188,1054,218,84,157,495,-127,1,0,28,31,800,0,53298,1
2,32014,30510,32650,42759,28021,-4473,-158,-331,437,425,-76,176,482,-132,1,0,28,31,840,0,53298,1
2,31942,30358,32582,42760,28040,-4574,-197,-442,264,677,-215,164,492,-138,1,0,28,31,880,0,53298,1
2,31586,30266,32221,42761,28059,-4593,-191,-437,614,830,-303,155,495,-129,1,0,28,31,920,0,53298,1
2,31608,30185,32200,42762,28078,-4548,-199,-424,951,824,-250,165,499,-137,1,0,28,31,960,0,53298,1
1,31543,30668,32115,42763,0,-4564,-223,-487,737,766,-141,169,493,-127,1,0,28,32,0,1,53298,1
2,31435,30090,32008,42764,27162,-4567,-207,-528,318,597,-76,156,496,-146,1,0,28,32,40,1,53298,1
2,31610,30234,32225,42765,27181,-4568,-222,-540,213,310,29,161,493,-141,1,0,28,32,80,1,53298,1
2,31635,30531,32226,42766,27201,-4562,-234,-526,263,17,96,159,495,-135,1,0,28,32,120,1,53298,1
2,31938,30374,32565,42767,27220,-4563,-191,-487,241,-168,136,159,497,-129,1,0,28,32,160,1,53298,1
2,31934,30495,32550,42768,27240,-4548,-190,-444,87,-199,111,158,488,-140,1,0,28,32,200,1,53298,1
2,31905,30465,32510,42769,27259,-4558,-196,-458,3,-144,91,169,487,-143,1,0,28,32,240,1,53298,1
2,31938,30364,32523,42770,27278,-4546,-181,-471,40,-43,72,171,489,-147,1,0,28,32,280,1,53298,1
2,32022,30422,32633,42771,27297,-4566,-200,-458,57,56,34,155,495,-145,1,0,28,32,320,1,53298,1
2,32007,30312,32602,42772,27316,-4544,-184,-477,35,86,-11,161,489,-139,1,0,28,32,360,1,53298,1
2,31971,30392,32610,42773,27335,-4556,-217,-499,17,69,-34,155,495,-133,1,0,28,32,400,1,53298,1
2,32011,30357,32605,42774,27354,-4571,-213,-474,19,45,-8,152,498,-142,1,0,28,32,440,1,53298,1
2,31936,30459,32539,42775,27374,-4573,-205,-480,61,39,32,157,493,-135,1,0,28,32,480,1,53298,1
2,31776,30194,32583,42776,27394,-4566,-205,-487,65,44,62,157,501,-125,1,0,28,32,520,1,53298,1
2,32004,30341,32620,42777,27413,-4555,-193,-476,0,41,54,159,499,-139,1,0,28,32,560,1,53298,1
2,31938,30318,32491,42778,27434,-4566,-213,-505,-12,15,37,169,491,-143,1,0,28,32,600,1,53298,1
2,32004,30336,32614,42779,27454,-4562,-195,-486,9,-34,33,163,499,-137,1,0,28,32,640,1,53298,1
2,32016,30338,32618,42780,27473,-4560,-194,-492,-18,-48,25,160,494,-142,1,0,28,32,680,1,53298,1
2,32006,30358,32626,42781,27493,-4550,-199,-477,-36,-46,26,152,502,-146,1,0,28,32,720,1,53298,1
2,31805,30405,32479,42782,27513,-4561,-190,-479,-14,-14,46,153,499,-127,1,0,28,32,760,1,53298,1
2,31671,30386,32217,42783,27533,-4561,-200,-475,12,14,40,161,493,-147,1,0,28,32,800,1,53298,1
2,31649,30521,32157,42784,27553,-4555,-192,-488,5,25,29,160,494,-142,1,0,28,32,840,1,53298,1
2,31630,30509,32205,42785,27573,-4571,-208,-484,7,19,20,156,494,-128,1,0,28,32,880,1,53298,1
2,31731,30675,32314,42786,27593,-4552,-201,-483,2,0,22,155,493,-133,1,0,28,32,920,1,53298,1
2,31833,30763,32419,42787,27613,-4558,-198,-492,-8,-7,31,161,489,-153,1,0,28,32,960,1,53298,1
1,31446,30583,32006,42788,0,-4563,-200,-476,3,-13,34,159,497,-141,1,0,28,33,0,0,53298,1
2,31335,30172,31875,42789,26707,-4556,-184,-496,-7,3,37,160,496,-140,1,0,28,33,40,0,53298,1
2,31281,30030,31787,42790,26727,-4562,-198,-489,-3,7,17,162,488,-140,1,0,28,33,80,0,53298,1
2,31282,30067,31796,42791,26747,-4562,-193,-487,5,1,5,159,489,-141,1,0,28,33,120,0,53298,1
2,31293,30136,31799,42792,26769,-4553,-188,-473,-1,8,5,156,492,-134,1,0,28,33,160,0,53298,1
2,31302,30194,31797,42793,26789,-4557,-198,-487,-1,22,-11,159,495,-139,1,0,28,33,200,0,53298,1
2,31315,30215,31830,42794,26810,-4565,-200,-495,-12,3,-1,160,496,-130,1,0,28,33,240,0,53298,1
2,31305,30230,31816,42795,26831,-4581,-206,-498,-53,-63,9,162,496,-140,1,0,28,33,280,0,53298,1
2,31319,30319,31834,42796,26851,-4563,-214,-475,-120,-165,19,161,491,-137,1,0,28,33,320,0,53298,1
2,31360,30338,31876,42797,26871,-4569,-189,-482,-153,-255,-3,155,491,-131,1,0,28,33,360,0,53298,1
2,31393,30340,31918,42798,26890,-4545,-205,-451,-194,-295,3,165,497,-145,1,0,28,33,400,0,53298,1
2,31416,30374,31929,42799,26909,-4566,-174,-462,-114,-252,29,155,493,-133,1,0,28,33,440,0,53298,1
2,31438,30399,31960,42800,26930,-4570,-201,-433,-68,-115,67,167,497,-137,1,0,28,33,480,0,53298,1
2,31461,30365,31988,42801,26949,-4570,-150,-420,22,49,86,157,499,-133,1,0,28,33,520,0,53298,1
2,31527,30345,32082,42802,26969,-4620,-143,-441,-27,124,200,168,488,-144,1,0,28,33,560,0,53298,1
2,31352,30258,31876,42803,26989,-4829,168,-627,-379,-31,660,156,490,-140,1,0,28,33,600,0,53298,1
2,31337,30527,31836,42804,27010,-4999,636,-702,-889,-799,2235,158,488,-148,1,0,28,33,640,0,53298,1
2,31271,30048,31793,42805,27031,-4195,1762,-1635,-4219,-1074,4300,144,496,-134,1,0,28,33,680,0,53298,1
2,31228,30022,31708,42806,27051,-3597,1900,-1906,-7005,159,7499,141,485,-131,1,0,28,33,720,0,53298,1
2,31227,30072,31702,42807,27072,-4032,1049,-2341,-10064,3701,10109,128,486,-156,1,0,28,33,760,0,53298,1
2,31205,30110,31672,42808,27092,-4584,370,-1951,-5297,6934,11827,97,493,-161,1,0,28,33,800,0,53298,1
2,31203,30315,31620,42809,27113,-5230,-353,-1292,-701,9079,10913,81,489,-181,1,0,28,33,840,0,53298,1
2,31215,30387,31628,42810,27133,-5123,-761,-584,2306,9438,7909,56,488,-192,1,0,28,33,880,0,53298,1
2,31287,30239,31731,42811,27154,-4854,-1145,-323,2756,9160,3737,40,488,-216,1,0,28,33,920,0,53298,1
2,31406,30365,31925,42812,27173,-4708,-1582,-330,2645,8645,-898,44,510,-238,1,0,28,33,960,0,53298,1
1,31748,30620,32235,42813,0,-4577,-1346,-288,4746,7656,-5377,50,530,-260,1,0,28,34,0,0,53298,1
2,31803,30650,32281,42814,26252,-4568,-690,-434,6406,6198,-9271,82,548,-282,1,0,28,34,40,0,53298,1
2,31885,30700,32359,42815,26272,-4417,212,-706,6831,4454,-11913,98,564,-312,1,0,28,34,80,0,53298,1
2,31908,30784,32367,42816,26291,-4386,684,-1355,5111,2764,-13117,148,586,-324,1,0,28,34,120,0,53298,1
2,32061,30839,32823,42817,26311,-4338,1442,-1167,4033,1130,-12910,179,593,-329,1,0,28,34,160,0,53298,1
2,32345,31482,33092,42818,26333,-5480,904,-2175,6840,-61,-17745,215,609,-315,1,0,28,34,200,0,53298,1
2,32704,30766,33268,42819,26357,-3369,335,-2031,7964,-7302,-5457,218,606,-292,1,0,28,34,240,0,53298,1
2,32220,31108,33304,42820,26382,-4430,-423,-2922,9690,-5247,-1288,226,614,-290,1,0,28,34,280,0,53298,1
2,32268,31054,33366,42821,26405,-4204,-785,-1748,7475,-322,2285,214,612,-280,1,0,28,34,320,0,53298,1
2,32223,30711,33537,42822,26429,-4339,-959,-1409,5921,1048,2296,214,614,-286,1,0,28,34,360,0,53298,1
2,31170,30945,32424,42823,26453,-4269,-1117,-818,4216,1054,2881,202,614,-294,1,0,28,34,400,0,53298,1
2,32778,31015,34133,42824,26477,-4414,-1410,-1110,4236,894,1516,210,618,-294,1,0,28,34,440,0,53298,1
2,32594,31182,33689,42825,26501,-4352,-273,-1995,8866,1627,202,197,629,-289,1,0,28,34,480,0,53298,1
2,31877,30564,33207,42826,26525,-4359,-1163,-2417,351,5821,478,194,618,-290,1,0,28,34,520,0,53298,1
2,31845,30337,33878,42827,26549,-4349,-1015,-2141,1178,3144,742,193,631,-305,1,0,28,34,560,0,53298,1
2,32055,30670,33319,42828,26572,-4198,-1044,-1853,532,1523,457,191,617,-321,1,0,28,34,600,0,53298,1
2,32052,30574,33933,42829,26595,-4041,-994,-1855,971,706,359,199,627,-317,1,0,28,34,640,0,53298,1
2,32077,30532,33739,42830,26619,-4103,-954,-1885,734,269,492,198,620,-310,1,0,28,34,680,0,53298,1
2,32033,30467,33951,42831,26641,-4196,-943,-1842,-584,-74,293,198,634,-318,1,0,28,34,720,0,53298,1
2,32246,30760,34154,42832,26664,-4185,-922,-1908,-1228,-119,102,191,627,-315,1,0,28,34,760,0,53298,1
2,32106,30453,33977,42833,26687,-4149,-926,-1941,-731,109,91,183,621,-309,1,0,28,34,800,0,53298,1
2,31970,30350,34019,42834,26709,-4168,-932,-1929,119,351,70,205,615,-317,1,0,28,34,840,0,53298,1
2,31780,31696,33902,42835,26730,-4154,-889,-1893,293,523,-26,198,628,-324,1,0,28,34,880,0,53298,1
2,31441,31731,33394,42836,26752,-4150,-885,-1890,4,434,-51,196,624,-312,1,0,28,34,920,0,53298,1
2,31172,30750,33239,42837,26774,-4132,-934,-1944,-284,151,-24,192,620,-314,1,0,28,34,960,0,53298,1
1,31109,30039,33280,42838,0,-4128,-972,-1972,-225,-8,30,200,624,-320,1,0,28,35,0,1,53298,1
2,31168,32219,33260,42839,25799,-4122,-982,-1977,60,12,61,192,626,-320,1,0,28,35,40,1,53298,1
2,31384,30144,33479,42840,25821,-4122,-961,-1923,272,89,72,191,629,-305,1,0,28,35,80,1,53298,1
2,31359,30213,33576,42841,25843,-4140,-958,-1925,294,115,120,192,622,-326,1,0,28,35,120,1,53298,1
2,31176,30078,33340,42842,25864,-4124,-943,-1930,158,61,113,190,628,-328,1,0,28,35,160,1,53298,1
2,31203,30327,33344,42843,25885,-4153,-941,-1962,28,13,96,202,628,-326,1,0,28,35,200,1,53298,1
2,31093,30017,33296,42844,25907,-4118,-930,-1930,54,-22,87,200,630,-316,1,0,28,35,240,1,53298,1
2,31189,30387,33342,42845,25929,-4122,-946,-1917,93,-4,68,192,628,-318,1,0,28,35,280,1,53298,1
2,31046,30223,33205,42846,25950,-4142,-941,-1916,43,-1,50,205,627,-321,1,0,28,35,320,1,53298,1
2,31101,30601,33243,42847,25973,-4115,-918,-1932,24,24,44,195,629,-319,1,0,28,35,360,1,53298,1
2,31045,32129,33222,42848,25996,-4128,-950,-1941,35,63,44,198,632,-322,1,0,28,35,400,1,53298,1
2,31048,30020,33253,42849,26019,-4131,-972,-1950,93,68,61,194,632,-328,1,0,28,35,440,1,53298,1
2,31085,29937,33273,42850,26041,-4137,-969,-1951,51,36,57,196,630,-324,1,0,28,35,480,1,53298,1
2,31038,30085,33245,42851,26063,-4116,-941,-1933,-57,-18,40,202,626,-328,1,0,28,35,520,1,53298,1
2,31070,29921,33253,42852,26085,-4135,-944,-1926,-87,-46,34,191,629,-313,1,0,28,35,560,1,53298,1
2,31061,30078,33267,42853,26108,-4135,-943,-1939,-60,-30,34,192,620,-328,1,0,28,35,600,1,53298,1
2,31075,29935,33263,42854,26130,-4124,-942,-1928,-17,-17,24,187,627,-317,1,0,28,35,640,1,53298,1
2,31103,30002,33275,42855,26151,-4132,-937,-1945,23,1,25,197,621,-313,1,0,28,35,680,1,53298,1
2,31139,30020,33308,42856,26173,-4128,-947,-1921,5,8,17,188,622,-322,1,0,28,35,720,1,53298,1
2,31197,30226,33356,42857,26196,-4133,-940,-1949,-45,4,19,201,627,-323,1,0,28,35,760,1,53298,1
2,31150,30071,33321,42858,26218,-4133,-952,-1941,-59,-9,22,194,628,-322,1,0,28,35,800,1,53298,1
2,31200,29985,33352,42859,26240,-4127,-934,-1946,-38,-16,27,200,632,-320,1,0,28,35,840,1,53298,1
2,31192,29998,33334,42860,26261,-4138,-944,-1958,-63,-25,20,197,627,-323,1,0,28,35,880,1,53298,1
2,31117,29953,33275,42861,26283,-4124,-943,-1950,-47,-27,20,190,628,-324,1,0,28,35,920,1,53298,1
2,31133,30035,33260,42862,26305,-4129,-943,-1927,-150,-62,-3,196,618,-320,1,0,28,35,960,1,53298,1
1,31115,30000,33190,42863,0,-4130,-920,-1907,-502,-161,-43,190,632,-318,1,0,28,36,0,0,53298,1
2,31119,30026,33075,42864,25345,-4196,-880,-1898,-1441,-502,-157,190,622,-312,1,0,28,36,40,0,53298,1
2,31143,30316,32747,42865,25366,-4246,-904,-1877,-4343,-1371,-343,198,622,-308,1,0,28,36,80,0,53298,1
2,31503,30450,32880,42866,25388,-4356,-753,-2174,-9157,-1738,-851,195,619,-315,1,0,28,36,120,0,53298,1
2,31752,30747,32255,42867,25410,-4114,684,-1987,-13630,-2792,1230,173,623,-301,1,0,28,36,160,0,53298,1
2,31186,30930,31807,42868,25430,-3534,1275,-1608,-10477,-2033,5516,151,613,-287,1,0,28,36,200,0,53298,1
2,31696,30415,32283,42869,25450,-4127,1383,-1382,-1662,-963,8868,125,615,-275,1,0,28,36,240,0,53298,1
2,31630,30647,32204,42870,25471,-4761,863,-1253,-3924,-1294,10421,98,588,-274,1,0,28,36,280,0,53298,1
2,31623,30603,32084,42871,25491,-5295,-220,-1051,-8056,-2197,9814,72,566,-240,1,0,28,36,320,0,53298,1
2,31589,30599,31976,42872,25511,-5620,-1259,-1512,-6814,-1605,7147,65,543,-239,1,0,28,36,360,0,53298,1
2,31575,30604,32080,42873,25531,-5136,18,9,-4951,-4781,4752,62,528,-228,1,0,28,36,400,0,53298,1
2,31583,30579,32089,42874,25551,-4496,-606,-179,-5864,-7764,2528,74,512,-208,1,0,28,36,440,0,53298,1
2,31558,30608,32072,42875,25571,-4022,-864,-639,-6398,-8366,-151,81,513,-195,1,0,28,36,480,0,53298,1
2,31569,30512,32105,42876,25591,-4132,-295,-653,-3933,-9038,-1947,88,496,-182,1,0,28,36,520,0,53298,1
2,31489,30187,32017,42877,25611,-4166,-88,-611,-2385,-9499,-3504,110,490,-162,1,0,28,36,560,0,53298,1
2,31520,30193,32056,42878,25632,-4336,-73,-1177,-448,-9404,-4673,131,479,-151,1,0,28,36,600,0,53298,1
2,31540,30198,32116,42879,25652,-4406,304,-1518,1995,-7839,-5735,130,482,-148,1,0,28,36,640,0,53298,1
2,31272,30193,32063,42880,25673,-4427,690,-1340,3657,-5520,-6230,155,475,-135,1,0,28,36,680,0,53298,1
2,31544,30206,32120,42881,25693,-4308,321,-1048,3197,-3366,-5960,161,481,-125,1,0,28,36,720,0,53298,1
2,31508,30226,32125,42882,25713,-3920,1633,-2074,1771,569,-3694,165,477,-117,1,0,28,36,760,0,53298,1
2,31527,30228,32158,42883,25732,-4797,353,-172,5814,2160,-234,153,477,-131,1,0,28,36,800,0,53298,1
2,31390,30217,31996,42884,25752,-5197,-431,967,4793,1740,317,147,477,-131,1,0,28,36,840,0,53298,1
2,31041,30209,31943,42885,25772,-4515,267,-209,816,252,-396,153,479,-129,1,0,28,36,880,0,53298,1
2,31080,30177,31944,42886,25791,-4419,133,-617,-554,268,-51,162,484,-126,1,0,28,36,920,0,53298,1
2,30980,30157,31966,42887,25811,-4735,-191,-296,-458,510,-117,144,478,-124,1,0,28,36,960,0,53298,1
1,31084,30410,32006,42888,0,-4592,73,-290,544,430,58,150,482,-134,1,0,28,37,0,1,53298,1
2,31096,30208,32006,42889,24888,-4449,35,-368,1207,178,279,150,480,-132,1,0,28,37,40,1,53298,1
2,31142,30225,32028,42890,24907,-4547,61,-300,505,276,81,153,485,-133,1,0,28,37,80,1,53298,1
2,31272,30248,32121,42891,24927,-4559,24,-274,89,308,-67,154,474,-130,1,0,28,37,120,1,53298,1
2,31307,30283,32274,42892,24948,-4549,21,-377,133,322,-107,148,488,-132,1,0,28,37,160,1,53298,1
2,31199,32257,32164,42893,24968,-4525,-19,-365,409,303,-117,152,486,-126,1,0,28,37,200,1,53298,1
2,30966,30438,31836,42894,24988,-4551,40,-332,409,316,-148,151,481,-133,1,0,28,37,240,1,53298,1
2,31351,30343,32350,42895,25009,-4575,-12,-385,113,291,-138,153,475,-137,1,0,28,37,280,1,53298,1
2,30929,30273,31781,42896,25030,-4540,-25,-401,5,193,-64,149,485,-139,1,0,28,37,320,1,53298,1
2,31278,31515,32183,42897,25050,-4535,-23,-391,57,77,8,151,487,-121,1,0,28,37,360,1,53298,1
2,31286,32259,32190,42898,25070,-4546,-2,-377,111,-5,55,156,482,-136,1,0,28,37,400,1,53298,1
2,31435,30683,32356,42899,25090,-4535,11,-351,98,-31,35,154,478,-134,1,0,28,37,440,1,53298,1
2,31478,30364,32419,42900,25110,-4526,2,-377,-35,-23,-6,154,484,-136,1,0,28,37,480,1,53298,1
2,31340,31203,32286,42901,25130,-4530,-26,-379,-77,-37,14,137,481,-125,1,0,28,37,520,1,53298,1
2,31189,30797,32181,42902,25151,-4548,-12,-381,-12,-74,58,150,484,-132,1,0,28,37,560,1,53298,1
2,31400,30565,32335,42903,25171,-4521,21,-354,44,-82,69,153,477,-135,1,0,28,37,600,1,53298,1
2,31413,30645,32319,42904,25191,-4527,22,-349,44,-32,47,153,483,-121,1,0,28,37,640,1,53298,1
2,31421,30348,32357,42905,25210,-4547,-3,-356,-21,45,34,147,477,-133,1,0,28,37,680,1,53298,1
2,31327,32391,32163,42906,25230,-4535,10,-376,23,79,0,157,481,-137,1,0,28,37,720,1,53298,1
2,31465,30430,32396,42907,25249,-4551,-12,-375,56,67,-26,159,467,-127,1,0,28,37,760,1,53298,1
2,31491,30449,32407,42908,25270,-4525,6,-375,-7,22,-15,158,480,-140,1,0,28,37,800,1,53298,1
2,31453,30352,32358,42909,25290,-4541,-7,-362,-22,-14,5,143,477,-127,1,0,28,37,840,1,53298,1
2,31453,30366,32371,42910,25311,-4542,1,-362,4,-28,21,149,479,-143,1,0,28,37,880,1,53298,1
2,30948,30055,31831,42911,25330,-4540,-12,-354,-7,-29,24,150,484,-138,1,0,28,37,920,1,53298,1
2,31105,30108,31910,42912,25351,-4537,-6,-368,-44,-26,36,154,476,-134,1,0,28,37,960,1,53298,1
1,31479,30438,32398,42913,0,-4535,-10,-361,3,-22,63,151,481,-139,1,0,28,38,0,1,53298,1
2,31479,30484,32406,42914,24434,-4531,12,-373,18,-24,62,146,464,-128,1,0,28,38,40,1,53298,1
2,31465,30390,32395,42915,24454,-4541,5,-375,-7,-6,51,146,484,-124,1,0,28,38,80,1,53298,1
2,31395,30521,32336,42916,24474,-4552,-1,-367,5,8,44,146,480,-140,1,0,28,38,120,1,53298,1
2,31282,31494,32243,42917,24495,-4537,1,-363,24,26,8,152,472,-126,1,0,28,38,160,1,53298,1
2,31438,30389,32340,42918,24516,-4537,2,-370,-16,32,-2,154,486,-132,1,0,28,38,200,1,53298,1
2,31468,30384,32337,42919,24537,-4544,-4,-372,-18,5,4,151,479,-135,1,0,28,38,240,1,53298,1
2,31377,30739,32263,42920,24558,-4538,5,-371,10,-29,28,151,479,-123,1,0,28,38,280,1,53298,1
2,31429,30430,32334,42921,24579,-4534,8,-373,13,-34,35,147,485,-131,1,0,28,38,320,1,53298,1
2,31465,30327,32368,42922,24599,-4528,5,-361,-7,-16,19,149,485,-129,1,0,28,38,360,1,53298,1
2,31398,30309,32270,42923,24620,-4548,-16,-365,1,15,15,148,472,-138,1,0,28,38,400,1,53298,1
2,31333,31355,32229,42924,24640,-4540,-3,-362,29,37,20,157,479,-139,1,0,28,38,440,1,53298,1
2,31386,30715,32290,42925,24660,-4545,-1,-372,29,24,19,140,476,-132,1,0,28,38,480,1,53298,1
2,31388,30546,32310,42926,24681,-4538,-10,-369,1,9,3,147,477,-131,1,0,28,38,520,1,53298,1
2,31367,31455,32307,42927,24701,-4532,4,-366,5,-6,-3,154,480,-126,1,0,28,38,560,1,53298,1
2,31472,30348,32353,42928,24721,-4542,-2,-386,-10,-7,-7,147,485,-129,1,0,28,38,600,1,53298,1
2,31468,30321,32374,42929,24742,-4541,-11,-367,-13,0,-7,150,480,-144,1,0,28,38,640,1,53298,1
2,31474,30321,32391,42930,24762,-4534,1,-366,3,0,6,158,474,-132,1,0,28,38,680,1,53298,1
2,31457,30325,32385,42931,24783,-4548,-8,-358,18,2,12,159,489,-139,1,0,28,38,720,1,53298,1
2,31455,30332,32362,42932,24803,-4549,-12,-366,27,5,11,146,476,-126,1,0,28,38,760,1,53298,1
2,31433,30355,32378,42933,24824,-4543,-7,-381,17,15,16,149,483,-129,1,0,28,38,800,1,53298,1
2,31454,30340,32385,42934,24844,-4533,-7,-359,19,25,21,149,477,-139,1,0,28,38,840,1,53298,1
2,31446,30307,32378,42935,24863,-4539,-8,-387,30,32,21,151,481,-141,1,0,28,38,880,1,53298,1
2,31450,30310,32382,42936,24883,-4537,0,-376,14,22,12,137,473,-131,1,0,28,38,920,1,53298,1
2,31459,30316,32397,42937,24903,-4541,-20,-363,2,18,3,153,481,-129,1,0,28,38,960,1,53298,1
1,31464,30319,32396,42938,0,-4548,-11,-371,20,-1,-3,151,481,-141,1,0,28,39,0,0,53298,1
2,31476,30334,32396,42939,23980,-4528,-3,-368,6,-1,7,153,471,-137,1,0,28,39,40,0,53298,1
2,31480,30415,32425,42940,24000,-4542,-1,-377,12,13,-1,150,488,-136,1,0,28,39,80,0,53298,1
2,31490,30457,32428,42941,24020,-4561,-3,-374,-12,-2,9,146,480,-142,1,0,28,39,120,0,53298,1
2,31490,30459,32441,42942,24040,-4548,-9,-377,-99,-69,53,146,476,-128,1,0,28,39,160,0,53298,1
2,31496,30506,32453,42943,24059,-4562,-16,-384,-183,-170,151,150,478,-138,1,0,28,39,200,0,53298,1
2,31512,30524,32481,42944,24078,-4549,-1,-379,-233,-312,275,153,475,-141,1,0,28,39,240,0,53298,1
2,31511,30502,32469,42945,24097,-4587,19,-405,-426,-506,410,146,482,-130,1,0,28,39,280,0,53298,1
2,31515,30484,32465,42946,24116,-4595,51,-307,-416,-748,716,145,475,-125,1,0,28,39,320,0,53298,1
2,31505,30772,32489,42947,24136,-4596,213,-349,-669,-1115,1261,146,484,-130,1,0,28,39,360,0,53298,1
2,31439,30666,32400,42948,24157,-4726,398,-318,-880,-1522,1865,131,473,-115,1,0,28,39,400,0,53298,1
2,31968,30587,32497,42949,24178,-4111,1583,-1117,-2421,-1414,2798,145,475,-127,1,0,28,39,440,0,53298,1
2,31314,30437,32360,42950,24200,-3656,2184,-1639,-4254,252,5569,131,477,-127,1,0,28,39,480,0,53298,1
2,31449,30458,32396,42951,24220,-4149,1564,-1858,-6047,3576,8182,113,473,-139,1,0,28,39,520,0,53298,1
2,31248,31727,32170,42952,24241,-4705,866,-1690,-4373,6950,10070,100,478,-162,1,0,28,39,560,0,53298,1
2,31302,30465,32264,42953,24262,-5079,203,-1367,-1570,9187,9892,72,474,-170,1,0,28,39,600,0,53298,1
2,31280,30303,32238,42954,24283,-4970,-427,-981,1532,10226,7840,53,475,-179,1,0,28,39,640,0,53298,1
2,31260,30659,32266,42955,24303,-4818,-875,-689,3577,10300,4581,37,485,-205,1,0,28,39,680,0,53298,1
2,31297,30744,32259,42956,24324,-4597,-1649,-845,2884,10420,-33,32,496,-230,1,0,28,39,720,0,53298,1
2,31307,30726,32266,42957,24344,-4562,-1662,-893,4864,10575,-5003,40,510,-264,1,0,28,39,760,0,53298,1
2,31295,30713,32251,42958,24364,-4452,-824,-733,9401,9364,-8913,62,534,-282,1,0,28,39,800,0,53298,1
2,31310,30695,32251,42959,24384,-4291,268,-637,11067,7137,-11174,79,559,-307,1,0,28,39,840,0,53298,1
2,31316,30698,32272,42960,24404,-4184,1205,-481,9604,4049,-11218,125,589,-345,1,0,28,39,880,0,53298,1
2,31401,30685,32336,42961,24423,-4283,2166,-539,4979,563,-9802,143,607,-339,1,0,28,39,920,0,53298,1
2,31332,30690,32374,42962,24443,-4296,1533,-1302,782,-3095,-6982,162,610,-336,1,0,28,39,960,0,53298,1
1,31680,30524,32567,42963,0,-4412,-44,-1111,3833,-7967,-4803,172,618,-308,1,0,28,40,0,0,53298,1
2,31994,30626,32847,42964,23528,-4134,-183,-3367,931,-6268,-3708,174,628,-294,1,0,28,40,40,0,53298,1
2,32033,30635,32827,42965,23550,-4555,240,-2758,-3513,2565,-569,162,626,-300,1,0,28,40,80,0,53298,1
2,32033,30392,32892,42966,23571,-4547,-407,-1693,-1150,766,1674,160,632,-300,1,0,28,40,120,0,53298,1
2,32015,30478,32946,42967,23592,-4360,-676,-1271,4595,-248,2234,143,615,-297,1,0,28,40,160,0,53298,1
2,31892,30382,33213,42968,23613,-3427,-1197,-2186,7440,930,2727,140,616,-294,1,0,28,40,200,0,53298,1
2,31904,30328,33340,42969,23635,-4029,-700,-2310,9109,4342,1311,132,618,-308,1,0,28,40,240,0,53298,1
2,31936,30725,33592,42970,23656,-4263,-503,-1857,2717,1628,403,143,621,-317,1,0,28,40,280,0,53298,1
2,31962,30741,33701,42971,23679,-4304,-474,-1863,1028,1218,49,143,621,-317,1,0,28,40,320,0,53298,1
2,32010,30897,33793,42972,23701,-4040,-476,-2124,696,212,228,146,626,-312,1,0,28,40,360,0,53298,1
2,31325,30448,33135,42973,23723,-4059,-571,-2110,515,-148,383,138,614,-310,1,0,28,40,400,0,53298,1
2,31358,30591,33156,42974,23745,-4087,-612,-2020,-41,-191,155,137,629,-319,1,0,28,40,440,0,53298,1
2,31334,30603,33138,42975,23768,-4103,-546,-1976,-104,-108,4,140,616,-316,1,0,28,40,480,0,53298,1
2,31270,30634,33088,42976,23789,-4117,-513,-1923,365,1,41,137,629,-315,1,0,28,40,520,0,53298,1
2,31148,30543,33039,42977,23812,-4140,-503,-1908,784,235,74,134,624,-312,1,0,28,40,560,0,53298,1
2,31479,30167,33339,42978,23834,-4142,-516,-1932,505,445,-80,135,629,-311,1,0,28,40,600,0,53298,1
2,31954,30768,33935,42979,23856,-4125,-551,-2007,186,401,-72,143,621,-323,1,0,28,40,640,0,53298,1
2,31361,30458,33315,42980,23879,-4095,-590,-2055,244,235,43,139,627,-323,1,0,28,40,680,0,53298,1
2,31282,31121,33186,42981,23901,-4085,-589,-2039,405,58,151,137,617,-319,1,0,28,40,720,0,53298,1
2,31919,30508,33895,42982,23923,-4080,-568,-2009,303,-6,130,150,626,-328,1,0,28,40,760,0,53298,1
2,31905,30483,33895,42983,23945,-4086,-581,-2007,170,5,98,138,626,-324,1,0,28,40,800,0,53298,1
2,31947,30789,33927,42984,23967,-4096,-592,-2004,182,43,114,133,623,-319,1,0,28,40,840,0,53298,1
2,31939,30657,33933,42985,23989,-4099,-587,-2029,231,54,130,134,616,-324,1,0,28,40,880,0,53298,1
2,31880,30291,33883,42986,24011,-4094,-570,-1992,147,41,107,133,619,-325,1,0,28,40,920,0,53298,1
2,31922,30569,33907,42987,24033,-4114,-575,-2003,43,12,81,143,621,-325,1,0,28,40,960,0,53298,1
1,31919,30745,33916,42988,0,-4097,-566,-1998,-15,-21,40,140,634,-328,1,0,28,41,0,0,53298,1
2,31889,30769,33880,42989,23075,-4099,-576,-2000,17,-18,28,140,622,-320,1,0,28,41,40,0,53298,1
2,31850,30394,33844,42990,23097,-4096,-585,-2017,96,29,36,140,624,-318,1,0,28,41,80,0,53298,1
2,31859,30700,33864,42991,23119,-4093,-572,-2008,93,44,42,140,628,-324,1,0,28,41,120,0,53298,1
2,31663,31431,33680,42992,23142,-4097,-586,-2020,83,26,55,137,625,-323,1,0,28,41,160,0,53298,1
2,31870,30765,33881,42993,23165,-4086,-585,-2019,55,-8,74,140,616,-322,1,0,28,41,200,0,53298,1
2,31871,30827,33869,42994,23187,-4090,-575,-1986,-36,-48,73,136,628,-328,1,0,28,41,240,0,53298,1
2,31829,30514,33838,42995,23210,-4099,-569,-2008,-74,-50,53,135,625,-325,1,0,28,41,280,0,53298,1
2,31849,30617,33857,42996,23232,-4106,-555,-2015,18,-8,44,142,618,-320,1,0,28,41,320,0,53298,1
2,31849,30449,33845,42997,23255,-4105,-582,-2002,79,22,46,142,622,-320,1,0,28,41,360,0,53298,1
2,31841,30424,33849,42998,23278,-4096,-581,-2011,80,26,45,137,621,-323,1,0,28,41,400,0,53298,1
2,31864,30726,33867,42999,23300,-4087,-554,-2004,56,7,42,140,628,-316,1,0,28,41,440,0,53298,1
2,31857,30665,33842,43000,23323,-4098,-569,-2002,-18,-17,39,144,620,-320,1,0,28,41,480,0,53298,1
2,31787,30448,33765,43001,23344,-4085,-563,-2027,-35,-34,50,139,621,-329,1,0,28,41,520,0,53298,1
2,31861,30617,33864,43002,23366,-4086,-571,-2023,-17,-20,58,146,624,-320,1,0,28,41,560,0,53298,1
2,31847,30616,33853,43003,23388,-4096,-579,-2005,-19,-38,75,142,614,-328,1,0,28,41,600,0,53298,1
2,31838,30528,33832,43004,23409,-4088,-578,-1997,-33,-48,93,138,626,-320,1,0,28,41,640,0,53298,1
2,31880,30722,33854,43005,23431,-4095,-558,-2001,-51,-49,83,145,625,-323,1,0,28,41,680,0,53298,1
2,31879,30814,33869,43006,23453,-4110,-561,-2001,-89,-32,61,132,626,-308,1,0,28,41,720,0,53298,1
2,31877,30785,33857,43007,23475,-4088,-551,-1997,-77,-42,57,139,629,-319,1,0,28,41,760,0,53298,1
2,31870,30738,33855,43008,23496,-4098,-570,-1999,-88,-46,60,143,621,-321,1,0,28,41,800,0,53298,1
2,31880,30737,33842,43009,23517,-4104,-518,-2003,-157,-97,80,128,628,-318,1,0,28,41,840,0,53298,1
2,31888,30700,33814,43010,23539,-4120,-478,-2018,-114,-165,210,138,630,-320,1,0,28,41,880,0,53298,1
2,31877,30675,33698,43011,23560,-4178,-384,-2077,-418,-465,522,141,625,-305,1,0,28,41,920,0,53298,1
2,31792,30610,33346,43012,23582,-4178,-67,-2009,-2365,-1540,1372,136,622,-308,1,0,28,41,960,0,53298,1
1,31808,30765,32728,43013,0,-4035,889,-2089,-10056,-2641,2251,117,609,-293,1,0,28,42,0,0,53298,1
2,31778,30797,32454,43014,22620,-3805,2081,-1380,-22216,-4082,4854,100,598,-262,1,0,28,42,40,0,53298,1
2,31271,30492,31987,43015,22640,-4200,717,-1209,-17069,-4335,8212,72,596,-236,1,0,28,42,80,0,53298,1
2,31167,30670,31838,43016,22660,-5018,1154,-580,-4184,-4033,9939,54,554,-224,1,0,28,42,120,0,53298,1
2,31307,30155,31934,43017,22680,-4765,-486,-1082,-7363,-5200,8675,41,537,-211,1,0,28,42,160,0,53298,1
2,31505,30257,32184,43018,22699,-5322,277,889,-11021,-6867,5548,51,511,-191,1,0,28,42,200,0,53298,1
2,31529,30250,32177,43019,22718,-4791,-385,-240,-14755,-10206,2395,60,488,-164,1,0,28,42,240,0,53298,1
2,31495,30326,32179,43020,22739,-4388,-586,-201,-10605,-10892,-165,76,472,-156,1,0,28,42,280,0,53298,1
2,31539,30704,32226,43021,22759,-4560,145,-204,-4791,-12308,-1161,94,456,-146,1,0,28,42,320,0,53298,1
2,31542,30435,32224,43022,22780,-4456,-125,-731,-3450,-11484,-2584,106,456,-132,1,0,28,42,360,0,53298,1
2,31518,30683,32255,43023,22801,-4422,-61,-872,245,-10039,-4266,117,449,-121,1,0,28,42,400,0,53298,1
2,30901,30439,32319,43024,22823,-4472,307,-1283,1107,-7474,-6063,143,443,-121,1,0,28,42,440,0,53298,1
2,31236,30620,31969,43025,22844,-4204,650,-1181,3948,-5060,-6962,158,438,-118,1,0,28,42,480,0,53298,1
2,31261,30727,31863,43026,22865,-4082,940,-1037,6230,-2888,-6695,161,439,-97,1,0,28,42,520,0,53298,1
2,31716,30629,32472,43027,22885,-3926,1049,-809,6428,-297,-6075,165,451,-95,1,0,28,42,560,0,53298,1
2,31499,30472,32125,43028,22906,-3853,814,-1089,6567,1966,-5105,155,453,-99,1,0,28,42,600,0,53298,1
2,31745,31251,31852,43029,22926,-4169,1955,450,11618,3276,-1949,151,459,-107,1,0,28,42,640,0,53298,1
2,31419,31774,32185,43030,22947,-5284,1038,2067,6652,1801,-923,140,458,-96,1,0,28,42,680,0,53298,1
2,31444,31834,32283,43031,22967,-4762,745,609,1397,326,-699,147,459,-107,1,0,28,42,720,0,53298,1
2,31525,30381,32429,43032,22986,-4346,45,-267,-1384,1127,-721,140,460,-98,1,0,28,42,760,0,53298,1
2,31637,30489,32464,43033,23005,-4537,-118,-81,-979,1796,-1197,151,453,-107,1,0,28,42,800,0,53298,1
2,31626,30434,32466,43034,23024,-4626,228,163,936,1889,-1103,147,457,-111,1,0,28,42,840,0,53298,1
2,31566,30518,32406,43035,23044,-4527,198,-18,2596,1449,-547,154,456,-116,1,0,28,42,880,0,53298,1
2,31605,30577,32426,43036,23064,-4525,198,-36,1692,1259,-419,143,461,-109,1,0,28,42,920,0,53298,1
2,31605,30359,32421,43037,23083,-4530,212,-12,99,1019,-392,155,455,-117,1,0,28,42,960,0,53298,1
1,31587,30596,32419,43038,0,-4543,106,-144,-462,641,-245,154,462,-116,1,0,28,43,0,0,53298,1
2,31570,30399,32395,43039,22166,-4539,83,-171,280,172,-70,153,461,-117,1,0,28,43,40,0,53298,1
2,31569,30385,32371,43040,22186,-4527,190,-14,634,-123,17,149,461,-123,1,0,28,43,80,0,53298,1
2,31468,32211,32203,43041,22206,-4540,208,-1,-22,-152,-5,159,463,-117,1,0,28,43,120,0,53298,1
2,31572,30417,32376,43042,22226,-4525,121,-84,-431,-136,-21,148,462,-110,1,0,28,43,160,0,53298,1
2,31596,30476,32395,43043,22246,-4517,133,-52,-100,-168,53,148,456,-122,1,0,28,43,200,0,53298,1
2,31575,30388,32368,43044,22265,-4520,184,-26,125,-177,151,146,460,-118,1,0,28,43,240,0,53298,1
2,31386,33163,32190,43045,22285,-4519,183,-32,-4,-121,166,150,462,-118,1,0,28,43,280,0,53298,1
2,31452,30773,32234,43046,22305,-4528,167,-18,-46,-56,130,157,463,-125,1,0,28,43,320,0,53298,1
2,31492,30784,32262,43047,22325,-4519,179,-27,85,25,73,138,462,-106,1,0,28,43,360,0,53298,1
2,31440,31588,32155,43048,22346,-4529,169,-30,92,102,6,151,463,-115,1,0,28,43,400,0,53298,1
2,31005,31871,32144,43049,22366,-4518,175,-55,25,136,-37,147,455,-111,1,0,28,43,440,0,53298,1
2,30888,33059,31620,43050,22384,-4533,150,-52,12,115,-48,149,459,-111,1,0,28,43,480,0,53298,1
2,30932,30749,31650,43051,22404,-4532,147,-55,14,51,-21,147,455,-121,1,0,28,43,520,0,53298,1
2,31043,30347,31770,43052,22423,-4522,156,-54,4,-19,11,151,455,-111,1,0,28,43,560,0,53298,1
2,31105,30489,31830,43053,22443,-4517,162,-43,1,-74,37,149,459,-123,1,0,28,43,600,0,53298,1
2,31370,30795,32183,43054,22463,-4525,163,-20,7,-61,36,144,466,-114,1,0,28,43,640,0,53298,1
2,31548,30475,32312,43055,22483,-4529,149,-36,2,-16,24,149,463,-117,1,0,28,43,680,0,53298,1
2,31497,30781,32265,43056,22504,-4527,167,-44,8,16,19,144,458,-108,1,0,28,43,720,0,53298,1
2,31152,30801,31856,43057,22523,-4529,158,-47,33,50,11,158,460,-116,1,0,28,43,760,0,53298,1
2,31096,30445,31813,43058,22542,-4524,166,-49,46,63,6,149,455,-115,1,0,28,43,800,0,53298,1
2,31103,31284,31830,43059,22563,-4535,157,-48,34,53,3,146,456,-114,1,0,28,43,840,0,53298,1
2,31104,30752,31812,43060,22584,-4523,158,-37,25,48,5,150,456,-112,1,0,28,43,880,0,53298,1
2,31110,30506,31790,43061,22604,-4536,150,-44,33,28,-2,146,466,-110,1,0,28,43,920,0,53298,1
2,31094,30498,31789,43062,22626,-4525,157,-51,5,11,-7,144,464,-120,1,0,28,43,960,0,53298,1
1,31126,30415,31824,43063,0,-4516,161,-49,3,-20,11,155,461,-119,1,0,28,44,0,1,53298,1
2,31123,30248,31813,43064,21713,-4522,165,-52,16,-22,22,155,465,-119,1,0,28,44,40,1,53298,1
2,31136,30194,31857,43065,21733,-4532,166,-39,5,-10,41,151,467,-119,1,0,28,44,80,1,53298,1
2,31223,30231,31937,43066,21754,-4522,159,-51,5,1,49,151,453,-117,1,0,28,44,120,1,53298,1
2,31255,30240,32039,43067,21773,-4532,153,-58,12,15,32,146,458,-114,1,0,28,44,160,1,53298,1
2,31384,30266,32137,43068,21792,-4516,173,-50,16,-1,10,148,462,-114,1,0,28,44,200,1,53298,1
2,31530,30338,32311,43069,21811,-4527,168,-58,5,-5,10,149,453,-123,1,0,28,44,240,1,53298,1
2,31615,30366,32398,43070,21830,-4523,156,-53,-6,-12,9,142,460,-122,1,0,28,44,280,1,53298,1
2,31625,30380,32403,43071,21850,-4518,165,-45,19,-5,20,153,463,-117,1,0,28,44,320,1,53298,1
2,31609,30366,32384,43072,21870,-4524,157,-41,37,23,36,151,455,-115,1,0,28,44,360,1,53298,1
2,31624,30378,32384,43073,21891,-4531,164,-52,65,41,35,152,458,-106,1,0,28,44,400,1,53298,1
2,31589,30421,32350,43074,21911,-4528,172,-53,40,33,8,143,459,-119,1,0,28,44,440,1,53298,1
2,31137,30197,31843,43075,21930,-4522,154,-69,-60,-4,-22,147,461,-117,1,0,28,44,480,1,53298,1
2,31108,30194,31797,43076,21949,-4525,156,-61,-68,-82,-14,160,456,-118,1,0,28,44,520,1,53298,1
2,31143,30182,31831,43077,21968,-4538,181,-63,-40,-113,26,149,461,-117,1,0,28,44,560,1,53298,1
2,31180,30203,31874,43078,21988,-4529,236,-9,43,-134,132,149,459,-115,1,0,28,44,600,1,53298,1
2,31228,30185,31911,43079,22008,-4644,335,-85,-201,-283,539,152,460,-120,1,0,28,44,640,1,53298,1
2,31307,30368,31976,43080,22029,-4583,383,-102,215,-847,1971,147,465,-105,1,0,28,44,680,1,53298,1
2,31214,30309,31934,43081,22051,-4340,857,-737,-683,-972,2812,141,463,-115,1,0,28,44,720,1,53298,1
2,31131,30340,31919,43082,22073,-3597,1899,-1758,-992,-440,4769,128,462,-112,1,0,28,44,760,1,53298,1
2,31187,30224,31873,43083,22095,-3684,1973,-1873,-1509,2402,7780,117,457,-127,1,0,28,44,800,1,53298,1
2,31253,30635,31960,43084,22117,-4290,1444,-2266,-1996,7363,9428,101,463,-151,1,0,28,44,840,1,53298,1
2,31176,30365,31896,43085,22138,-5038,1002,-1637,692,11813,9613,71,465,-165,1,0,28,44,880,1,53298,1
2,31491,30447,32120,43086,22159,-5447,124,-863,1774,13198,8240,43,471,-181,1,0,28,44,920,1,53298,1
2,31552,30442,32255,43087,22178,-5269,-394,-489,88,12653,5594,18,472,-200,1,0,28,44,960,1,53298,1
1,31507,30705,32243,43088,0,-4807,-637,-537,2051,10759,2825,16,470,-210,1,0,28,45,0,0,53298,1
2,31318,30483,32095,43089,21259,-4610,-1196,-686,3152,9754,-908,4,486,-244,1,0,28,45,40,0,53298,1
2,31426,30341,32154,43090,21279,-4528,-1379,-449,4549,9273,-5248,2,508,-266,1,0,28,45,80,0,53298,1
2,31405,30308,32127,43091,21298,-4726,-842,-398,6901,8052,-9547,33,531,-305,1,0,28,45,120,0,53298,1
2,31477,30289,32174,43092,21317,-4759,-199,-346,7292,6055,-13069,85,573,-339,1,0,28,45,160,0,53298,1
2,31487,30300,32127,43093,21336,-4719,1257,-343,6700,2733,-14938,118,592,-348,1,0,28,45,200,0,53298,1
2,31558,30307,32254,43094,21356,-4121,2959,70,4854,-506,-14308,156,604,-362,1,0,28,45,240,0,53298,1
2,31482,31332,32188,43095,21376,-4146,1316,-655,-156,-5271,-9834,164,622,-324,1,0,28,45,280,0,53298,1
2,31640,30614,32419,43096,21396,-4690,2786,-2009,-9406,-6905,-3594,170,630,-294,1,0,28,45,320,0,53298,1
2,31917,30585,32984,43097,21416,-2931,667,-6509,-826,-1802,-5452,176,628,-294,1,0,28,45,360,0,53298,1
2,32058,30671,32880,43098,21437,-4580,2308,-2698,15220,2831,1409,172,636,-304,1,0,28,45,400,0,53298,1
2,32090,30773,32926,43099,21457,-4884,-1044,-1023,-6159,430,1207,169,631,-305,1,0,28,45,440,0,53298,1
2,31991,30854,33097,43100,21478,-4356,-946,-1365,6452,16,1481,165,635,-301,1,0,28,45,480,0,53298,1
2,31902,31817,33161,43101,21499,-3820,-950,-2174,9423,1225,1251,165,619,-307,1,0,28,45,520,0,53298,1
2,31861,30724,33327,43102,21520,-4040,-829,-2071,3362,223,725,163,621,-309,1,0,28,45,560,0,53298,1
2,31914,30905,33395,43103,21542,-4391,-620,-1938,1644,1419,149,160,626,-310,1,0,28,45,600,0,53298,1
2,31858,30677,33445,43104,21564,-4195,-502,-1916,1451,1323,-107,162,634,-312,1,0,28,45,640,0,53298,1
2,31877,30802,33556,43105,21585,-4112,-400,-1963,3057,794,233,156,636,-304,1,0,28,45,680,0,53298,1
2,31862,30585,33622,43106,21607,-4153,-537,-1989,2920,653,341,160,636,-320,1,0,28,45,720,0,53298,1
2,31729,35036,33649,43107,21628,-4151,-653,-1898,1370,459,41,157,629,-313,1,0,28,45,760,0,53298,1
2,31725,35037,33649,43108,21650,-4109,-678,-1945,-31,93,-160,167,631,-319,1,0,28,45,800,0,53298,1
2,31401,35031,33586,43109,21671,-4121,-687,-1987,-202,-167,-88,168,632,-304,1,0,28,45,840,0,53298,1
2,31761,35084,33692,43110,21692,-4116,-677,-1981,133,-198,50,164,628,-322,1,0,28,45,880,0,53298,1
2,31732,35059,33574,43111,21713,-4136,-658,-1966,331,27,126,170,632,-316,1,0,28,45,920,0,53298,1
2,31326,34626,33172,43112,21734,-4136,-631,-1950,420,200,175,155,641,-317,1,0,28,45,960,0,53298,1
1,31704,35061,33736,43113,0,-4120,-630,-1952,731,281,209,169,631,-325,1,0,28,46,0,1,53298,1
2,31746,35084,33745,43114,20807,-4137,-623,-1925,723,207,208,161,631,-323,1,0,28,46,40,1,53298,1
2,31746,35080,33756,43115,20827,-4130,-642,-1937,395,119,133,160,632,-322,1,0,28,46,80,1,53298,1
2,31740,35078,33760,43116,20848,-4105,-653,-1988,311,79,99,162,632,-318,1,0,28,46,120,1,53298,1
2,31742,35074,33780,43117,20869,-4107,-690,-2002,551,143,124,162,632,-314,1,0,28,46,160,1,53298,1
2,31752,35084,33803,43118,20890,-4105,-700,-1987,795,241,165,159,629,-329,1,0,28,46,200,1,53298,1
2,31741,35079,33818,43119,20910,-4127,-709,-1993,944,272,208,166,640,-324,1,0,28,46,240,1,53298,1
2,31735,35072,33835,43120,20931,-4110,-691,-1998,829,229,201,165,643,-327,1,0,28,46,280,1,53298,1
2,31720,35061,33835,43121,20951,-4119,-683,-1976,561,168,147,168,638,-324,1,0,28,46,320,1,53298,1
2,31699,35049,33824,43122,20971,-4114,-676,-1985,342,103,104,169,631,-323,1,0,28,46,360,1,53298,1
2,31689,35041,33823,43123,20991,-4123,-678,-1969,226,61,70,161,633,-329,1,0,28,46,400,1,53298,1
2,31676,35010,33750,43124,21013,-4118,-680,-1987,160,50,49,155,637,-329,1,0,28,46,440,1,53298,1
2,31666,34990,33801,43125,21034,-4124,-672,-1980,142,50,29,166,634,-328,1,0,28,46,480,1,53298,1
2,31676,35009,33806,43126,21054,-4113,-677,-1973,140,62,22,168,632,-330,1,0,28,46,520,1,53298,1
2,31656,35002,33786,43127,21075,-4110,-695,-2000,106,44,16,160,634,-330,1,0,28,46,560,1,53298,1
2,31529,32171,33699,43128,21096,-4106,-706,-2012,106,34,31,160,634,-334,1,0,28,46,600,1,53298,1
2,31600,30801,33587,43129,21116,-4101,-720,-2020,118,38,51,159,635,-321,1,0,28,46,640,1,53298,1
2,31608,30694,33621,43130,21137,-4101,-716,-2009,150,30,72,167,631,-327,1,0,28,46,680,1,53298,1
2,31573,30670,33615,43131,21157,-4107,-703,-2001,74,-8,82,161,629,-329,1,0,28,46,720,1,53298,1
2,31645,30795,33695,43132,21178,-4117,-705,-2006,22,-13,71,163,641,-327,1,0,28,46,760,1,53298,1
2,31785,30827,33808,43133,21198,-4110,-688,-2003,41,-3,53,175,633,-331,1,0,28,46,800,1,53298,1
2,31735,30385,33789,43134,21219,-4094,-701,-1995,97,6,40,162,640,-334,1,0,28,46,840,1,53298,1
2,31615,30297,33666,43135,21240,-4100,-701,-2000,87,11,34,170,640,-316,1,0,28,46,880,1,53298,1
2,31622,30389,33645,43136,21261,-4108,-713,-2000,60,8,26,169,639,-329,1,0,28,46,920,1,53298,1
2,31637,30647,33675,43137,21282,-4103,-711,-2018,38,13,35,170,636,-332,1,0,28,46,960,1,53298,1
1,31551,30309,33575,43138,0,-4115,-706,-2009,1,6,43,170,630,-332,1,0,28,47,0,0,53298,1
2,31516,30616,33508,43139,20355,-4102,-697,-2008,-58,-22,38,165,633,-335,1,0,28,47,40,0,53298,1
2,31689,30649,33738,43140,20375,-4106,-706,-2001,-74,-50,41,160,640,-334,1,0,28,47,80,0,53298,1
2,31706,30654,33736,43141,20396,-4133,-706,-1966,-43,-52,53,164,632,-336,1,0,28,47,120,0,53298,1
2,31758,30690,33783,43142,20416,-4098,-693,-1986,-169,-203,80,166,634,-318,1,0,28,47,160,0,53298,1
2,31775,30679,33747,43143,20435,-4102,-693,-1972,-609,-375,-23,167,627,-327,1,0,28,47,200,0,53298,1
2,31570,30580,33452,43144,20456,-4154,-578,-2026,-1451,-532,-272,164,644,-320,1,0,28,47,240,0,53298,1
2,31856,30654,33475,43145,20475,-4288,-376,-2058,-2398,-1017,-174,166,632,-320,1,0,28,47,280,0,53298,1
2,32009,30659,33149,43146,20495,-3995,-512,-2112,-5031,-2301,425,156,632,-298,1,0,28,47,320,0,53298,1
2,32101,30898,32882,43147,20514,-4377,-262,-2536,-10718,-1995,66,155,627,-301,1,0,28,47,360,0,53298,1
2,31954,30934,32705,43148,20534,-3930,251,-2415,-14629,-1573,1184,141,617,-289,1,0,28,47,400,0,53298,1
2,31733,30792,32559,43149,20553,-3740,880,-1628,-7795,-344,4026,129,613,-291,1,0,28,47,440,0,53298,1
2,31639,30742,32459,43150,20571,-4395,1458,-1196,2517,126,7653,108,602,-286,1,0,28,47,480,0,53298,1
2,31542,30174,31654,43151,20589,-4691,1623,-489,1795,-1144,10133,87,583,-285,1,0,28,47,520,0,53298,1
2,31656,30410,32395,43152,20608,-5502,617,-1707,-1302,-356,9578,66,566,-276,1,0,28,47,560,0,53298,1
2,31513,30427,31905,43153,20626,-5100,804,570,-8553,-4485,8277,47,539,-237,1,0,28,47,600,0,53298,1
2,31520,30401,32018,43154,20644,-4591,-256,-867,-14890,-7042,6349,51,507,-231,1,0,28,47,640,0,53298,1
2,31544,30346,32077,43155,20662,-4428,-1074,-847,-11531,-8617,4109,59,499,-207,1,0,28,47,680,0,53298,1
2,31563,30376,32114,43156,20681,-4434,-1062,-916,-6178,-9670,1545,58,482,-188,1,0,28,47,720,0,53298,1
2,31645,30384,32196,43157,20701,-4419,-653,-728,-2025,-9734,-1476,75,463,-171,1,0,28,47,760,0,53298,1
2,31641,30370,32180,43158,20720,-4319,-114,-966,1227,-10042,-3829,94,472,-168,1,0,28,47,800,0,53298,1
2,31629,30335,32181,43159,20740,-4229,209,-1348,1480,-8382,-5925,106,472,-148,1,0,28,47,840,0,53298,1
2,31591,30304,32149,43160,20760,-4153,734,-1467,2516,-6245,-6902,112,464,-128,1,0,28,47,880,0,53298,1
2,31605,30278,32139,43161,20781,-4039,909,-1373,3573,-3921,-6586,137,463,-141,1,0,28,47,920,0,53298,1
2,31959,30486,32664,43162,20800,-4131,605,-1007,4781,-1847,-5459,140,466,-124,1,0,28,47,960,0,53298,1
1,31445,30080,32657,43163,0,-4177,1689,-1619,3647,1976,-2810,144,474,-136,1,0,28,48,0,1,53298,1
2,31986,30478,32690,43164,19901,-4861,758,-228,6534,1512,589,134,466,-132,1,0,28,48,40,1,53298,1
2,31777,30306,32318,43165,19920,-5199,-113,566,3110,883,819,125,467,-129,1,0,28,48,80,1,53298,1
2,31819,30358,32437,43166,19940,-4590,341,-242,87,-456,-421,135,469,-135,1,0,28,48,120,1,53298,1
2,32091,30442,32680,43167,19960,-4261,566,-487,-831,-274,-440,126,474,-140,1,0,28,48,160,1,53298,1
2,32042,30421,32664,43168,19979,-4585,171,-110,-221,-201,-254,129,471,-137,1,0,28,48,200,1,53298,1
2,32085,30554,32523,43169,19999,-4631,338,-227,120,-69,35,130,470,-138,1,0,28,48,240,1,53298,1
2,32080,30532,32671,43170,20019,-4412,271,-408,609,-57,358,126,470,-132,1,0,28,48,280,1,53298,1
2,32071,30598,32670,43171,20039,-4426,275,-353,454,182,345,126,480,-128,1,0,28,48,320,1,53298,1
2,32044,30485,32622,43172,20060,-4518,320,-319,265,288,278,127,471,-137,1,0,28,48,360,1,53298,1
2,32047,30452,32622,43173,20080,-4476,352,-352,369,215,208,130,470,-132,1,0,28,48,400,1,53298,1
2,32024,30445,32618,43174,20100,-4457,354,-338,415,151,29,129,473,-141,1,0,28,48,440,1,53298,1
2,32031,30572,32566,43175,20120,-4501,345,-288,302,182,-137,129,471,-131,1,0,28,48,480,1,53298,1
2,32000,30551,32575,43176,20140,-4491,324,-335,154,218,-216,123,465,-121,1,0,28,48,520,1,53298,1
2,32046,30456,32620,43177,20160,-4464,278,-361,7,245,-236,124,464,-136,1,0,28,48,560,1,53298,1
2,32013,30527,32556,43178,20179,-4472,278,-373,27,209,-192,133,469,-137,1,0,28,48,600,1,53298,1
2,32074,30566,32645,43179,20199,-4464,291,-360,83,169,-88,126,472,-144,1,0,28,48,640,1,53298,1
2,32095,30605,32679,43180,20219,-4475,308,-354,161,149,0,130,464,-134,1,0,28,48,680,1,53298,1
2,32089,30531,32678,43181,20238,-4480,303,-331,214,158,26,128,476,-146,1,0,28,48,720,1,53298,1
2,32087,30562,32686,43182,20258,-4471,295,-372,182,182,52,130,468,-150,1,0,28,48,760,1,53298,1
2,32075,30459,32660,43183,20278,-4472,318,-378,183,167,50,126,472,-138,1,0,28,48,800,1,53298,1
2,32066,30460,32663,43184,20298,-4485,306,-392,167,123,18,129,471,-139,1,0,28,48,840,1,53298,1
2,32051,30436,32632,43185,20319,-4490,291,-389,86,77,-11,133,469,-139,1,0,28,48,880,1,53298,1
2,32031,30429,32615,43186,20339,-4488,285,-385,-4,42,-23,131,469,-145,1,0,28,48,920,1,53298,1
2,32056,30438,32633,43187,20360,-4491,273,-378,12,12,-28,122,474,-136,1,0,28,48,960,1,53298,1
