sensorStatus,cap1,cap2,cap3,counter,microseconds_since_last_tick,accX,accY,accZ,gyroX,gyroY,gyroZ,magnetX,magnetY,magnetZ,day,hour,min,sec,msec,sync,battery_fuel,crc_good
2,31060,30641,31714,56889,9899,-4368,-714,-1138,18,-14,-3,206,450,-222,1,0,37,57,40,0,53298,1
2,31061,30645,31713,56890,9901,-4384,-721,-1140,15,-12,-13,207,443,-211,1,0,37,57,80,0,53298,1
2,31061,30644,31713,56891,9903,-4373,-710,-1145,-8,-15,10,198,456,-198,1,0,37,57,120,0,53298,1
2,31089,30646,31715,56892,9906,-4380,-730,-1144,-9,-14,16,202,442,-210,1,0,37,57,160,0,53298,1
2,31090,30645,31717,56893,9910,-4397,-712,-1136,-3,-27,16,208,442,-212,1,0,37,57,200,0,53298,1
2,31089,30646,31718,56894,9912,-4372,-713,-1140,-19,-17,27,204,442,-216,1,0,37,57,240,0,53298,1
2,31088,30650,31718,56895,9914,-4377,-702,-1132,-6,2,21,205,437,-215,1,0,37,57,280,0,53298,1
2,31095,30647,31717,56896,9916,-4378,-716,-1146,12,-4,1,209,455,-209,1,0,37,57,320,0,53298,1
2,31089,30640,31717,56897,9918,-4375,-721,-1146,0,-6,-2,203,447,-215,1,0,37,57,360,0,53298,1
2,31090,30638,31717,56898,9920,-4381,-723,-1145,2,-7,13,190,452,-216,1,0,37,57,400,0,53298,1
2,31093,30638,31718,56899,9923,-4372,-712,-1145,-16,-22,15,205,451,-211,1,0,37,57,440,0,53298,1
2,31090,30636,31716,56900,9926,-4370,-709,-1147,-3,-21,21,205,449,-219,1,0,37,57,480,0,53298,1
2,31082,30635,31714,56901,9928,-4377,-718,-1123,-8,-20,22,194,454,-218,1,0,37,57,520,0,53298,1
2,31085,30640,31716,56902,9929,-4387,-711,-1144,-12,-9,19,210,446,-210,1,0,37,57,560,0,53298,1
2,31089,30636,31715,56903,9931,-4377,-713,-1130,-5,-24,5,196,442,-220,1,0,37,57,600,0,53298,1
2,31083,30640,31714,56904,9933,-4370,-708,-1134,-2,-20,-2,196,444,-214,1,0,37,57,640,0,53298,1
2,31085,30631,31714,56905,9935,-4379,-721,-1159,-11,-16,26,205,453,-215,1,0,37,57,680,0,53298,1
2,31086,30626,31714,56906,9937,-4386,-710,-1130,1,-8,16,202,444,-218,1,0,37,57,720,0,53298,1
2,31084,30627,31716,56907,9939,-4378,-716,-1139,27,-4,-5,204,452,-214,1,0,37,57,760,0,53298,1
2,31067,30619,31712,56908,9942,-4382,-730,-1148,-8,-9,-3,204,440,-218,1,0,37,57,800,0,53298,1
2,31061,30630,31717,56909,9944,-4362,-710,-1153,-6,-6,3,203,445,-209,1,0,37,57,840,0,53298,1
2,31058,30630,31715,56910,9946,-4378,-711,-1148,4,-3,8,195,445,-205,1,0,37,57,880,0,53298,1
2,31057,30618,31712,56911,9948,-4379,-711,-1148,-2,5,8,199,451,-205,1,0,37,57,920,0,53298,1
2,31055,30632,31712,56912,9950,-4372,-711,-1141,-11,-15,23,201,455,-213,1,0,37,57,960,0,53298,1
1,31064,30629,31713,56913,0,-4378,-713,-1147,-18,-32,19,204,452,-210,1,0,37,58,0,0,53298,1
2,31059,30631,31713,56914,9389,-4371,-709,-1140,-15,-32,12,206,448,-210,1,0,37,58,40,0,53298,1
2,31056,30620,31709,56915,9390,-4387,-722,-1147,-1,-14,9,208,456,-206,1,0,37,58,80,0,53298,1
2,31059,30631,31711,56916,9392,-4372,-707,-1134,5,-1,5,205,445,-211,1,0,37,58,120,0,53298,1
2,31055,30634,31713,56917,9395,-4382,-722,-1147,3,-7,8,198,454,-204,1,0,37,58,160,0,53298,1
2,31056,30629,31711,56918,9397,-4381,-718,-1147,-3,-17,9,206,444,-218,1,0,37,58,200,0,53298,1
2,31060,30630,31711,56919,9399,-4362,-712,-1139,-5,-14,7,202,444,-216,1,0,37,58,240,0,53298,1
2,31063,30631,31712,56920,9401,-4381,-722,-1147,1,-16,5,202,446,-210,1,0,37,58,280,0,53298,1
2,31059,30630,31710,56921,9404,-4382,-714,-1132,-3,-12,16,200,450,-210,1,0,37,58,320,0,53298,1
2,31052,30627,31713,56922,9406,-4374,-709,-1126,-9,-15,24,195,443,-209,1,0,37,58,360,0,53298,1
2,31058,30628,31710,56923,9408,-4390,-703,-1137,-9,-2,21,196,446,-202,1,0,37,58,400,0,53298,1
2,31054,30628,31712,56924,9411,-4375,-709,-1146,1,-15,6,206,452,-216,1,0,37,58,440,0,53298,1
2,31054,30623,31711,56925,9413,-4383,-723,-1133,22,-11,-23,199,445,-215,1,0,37,58,480,0,53298,1
2,31056,30625,31713,56926,9416,-4376,-713,-1135,2,-20,-6,204,446,-220,1,0,37,58,520,0,53298,1
2,31054,30628,31714,56927,9417,-4378,-714,-1144,-8,-15,24,200,452,-218,1,0,37,58,560,0,53298,1
2,31061,30630,31715,56928,9419,-4392,-718,-1142,-9,-22,24,196,444,-210,1,0,37,58,600,0,53298,1
2,31055,30622,31712,56929,9420,-4398,-730,-1139,-9,-27,16,200,450,-210,1,0,37,58,640,0,53298,1
2,31058,30620,31713,56930,9421,-4385,-713,-1151,-14,-22,9,209,447,-215,1,0,37,58,680,0,53298,1
2,31049,30627,31713,56931,9423,-4385,-719,-1132,7,-1,11,202,448,-216,1,0,37,58,720,0,53298,1
2,31055,30625,31716,56932,9424,-4377,-716,-1134,13,-5,11,208,444,-212,1,0,37,58,760,0,53298,1
2,31050,30626,31713,56933,9424,-4372,-706,-1130,0,-2,10,193,449,-215,1,0,37,58,800,0,53298,1
2,31053,30620,31713,56934,9426,-4385,-730,-1145,-16,-9,23,198,442,-210,1,0,37,58,840,0,53298,1
2,31060,30618,31714,56935,9427,-4373,-719,-1152,-3,-2,32,201,449,-203,1,0,37,58,880,0,53298,1
2,31058,30625,31716,56936,9429,-4375,-714,-1131,-5,-4,16,202,448,-222,1,0,37,58,920,0,53298,1
2,31060,30615,31715,56937,9430,-4376,-713,-1136,17,-14,-9,201,457,-205,1,0,37,58,960,0,53298,1
1,31060,30607,31714,56938,0,-4381,-720,-1141,31,-11,-32,199,453,-217,1,0,37,59,0,1,53298,1
2,31055,30614,31716,56939,8880,-4375,-721,-1135,15,-19,-27,201,441,-215,1,0,37,59,40,1,53298,1
2,31057,30610,31716,56940,8883,-4384,-723,-1145,-22,-13,19,198,444,-212,1,0,37,59,80,1,53298,1
2,31063,30602,31714,56941,8887,-4377,-731,-1142,-15,-17,41,204,444,-212,1,0,37,59,120,1,53298,1
2,31054,30609,31712,56942,8889,-4373,-699,-1134,-18,-30,29,207,445,-217,1,0,37,59,160,1,53298,1
2,31069,30603,31713,56943,8891,-4375,-719,-1143,-16,-21,26,193,443,-217,1,0,37,59,200,1,53298,1
2,31081,30601,31715,56944,8892,-4385,-707,-1158,5,2,5,204,442,-208,1,0,37,59,240,1,53298,1
2,31065,30604,31712,56945,8894,-4390,-683,-1177,-36,11,87,204,448,-218,1,0,37,59,280,1,53298,1
2,31070,30599,31712,56946,8896,-4288,-748,-1158,-221,-121,324,206,448,-212,1,0,37,59,320,1,53298,1
2,31051,30606,31709,56947,8897,-4545,-650,-1172,-275,-276,434,203,447,-209,1,0,37,59,360,1,53298,1
2,31051,30610,31706,56948,8899,-4354,-680,-1193,-1084,-438,377,203,455,-211,1,0,37,59,400,1,53298,1
2,31045,30605,31701,56949,8900,-4385,-632,-1125,-1056,-355,553,198,448,-212,1,0,37,59,440,1,53298,1
2,31059,30608,31708,56950,8901,-4449,-643,-1075,-1137,-254,623,196,452,-210,1,0,37,59,480,1,53298,1
2,31058,30605,31706,56951,8902,-4456,-495,-1288,-1886,-222,681,192,444,-210,1,0,37,59,520,1,53298,1
2,31053,30602,31711,56952,8903,-4365,-489,-1400,-2233,4,1048,190,442,-200,1,0,37,59,560,1,53298,1
2,31063,30612,31717,56953,8904,-4286,-180,-1845,-1925,809,1427,185,447,-215,1,0,37,59,600,1,53298,1
2,31061,30615,31702,56954,8906,-4060,445,-2165,-1533,2335,2402,191,449,-215,1,0,37,59,640,1,53298,1
2,31052,30616,31685,56955,8907,-4216,155,-2364,-2116,4663,3365,189,443,-225,1,0,37,59,680,1,53298,1
2,31037,30616,31682,56956,8908,-4307,54,-2288,-1714,7006,4122,179,453,-235,1,0,37,59,720,1,53298,1
2,31030,30615,31683,56957,8909,-4318,-191,-2274,-1449,8890,4991,179,447,-261,1,0,37,59,760,1,53298,1
2,31023,30615,31688,56958,8911,-4232,-611,-2433,-1557,10418,5373,168,446,-278,1,0,37,59,800,1,53298,1
2,31023,30616,31700,56959,8912,-4183,-1058,-2324,-15,11897,4586,165,453,-299,1,0,37,59,840,1,53298,1
2,31010,30613,31700,56960,8913,-4024,-1246,-2114,1350,12665,2471,163,449,-301,1,0,37,59,880,1,53298,1
2,31010,30604,31693,56961,8915,-3876,-1410,-1880,3884,12543,-381,162,444,-324,1,0,37,59,920,1,53298,1
2,31001,30599,31694,56962,8917,-3708,-1106,-1467,5507,11327,-3324,176,438,-334,1,0,37,59,960,1,53298,1
1,30993,30615,31705,56963,0,-3629,-745,-1373,5972,8763,-5142,188,440,-352,1,0,38,0,0,0,53298,1
2,30995,30607,31725,56964,8371,-3765,-10,-1500,6183,5591,-5894,198,446,-352,1,0,38,0,40,0,53298,1
2,31002,30606,31767,56965,8373,-3853,257,-1838,3996,2217,-5474,206,432,-346,1,0,38,0,80,0,53298,1
2,31006,30616,31819,56966,8375,-3763,51,-2368,1048,-482,-4165,200,432,-350,1,0,38,0,120,0,53298,1
2,31024,30635,31949,56967,8377,-3796,-315,-2842,-154,-1665,-3021,209,443,-351,1,0,38,0,160,0,53298,1
2,31042,30647,32120,56968,8379,-3859,-36,-3228,2280,-1802,-2635,218,446,-348,1,0,38,0,200,0,53298,1
2,31030,30654,32405,56969,8381,-3697,-450,-2818,3555,-1384,-1836,218,434,-338,1,0,38,0,240,0,53298,1
2,30934,30644,32980,56970,8383,-3518,-1869,-2942,8946,-2842,-383,224,450,-332,1,0,38,0,280,0,53298,1
2,31006,30626,32964,56971,8388,-3475,-1536,-3512,12538,-4640,-2528,230,434,-328,1,0,38,0,320,0,53298,1
2,31031,30635,32936,56972,8392,-3603,-1115,-1650,5481,468,-2471,236,446,-326,1,0,38,0,360,0,53298,1
2,31077,30654,32988,56973,8397,-3348,-1697,-2621,3175,-2988,-831,235,455,-317,1,0,38,0,400,0,53298,1
2,31053,30556,33003,56974,8403,-3025,-2037,-2651,6636,-2745,-606,236,446,-320,1,0,38,0,440,0,53298,1
2,31048,30648,33083,56975,8409,-3267,-1621,-2361,4543,-2574,275,238,456,-310,1,0,38,0,480,0,53298,1
2,31041,30665,33194,56976,8416,-3314,-1765,-2638,1588,-3256,-115,254,450,-312,1,0,38,0,520,0,53298,1
2,31030,30669,33407,56977,8423,-3456,-1633,-2636,700,-3203,-1211,247,449,-299,1,0,38,0,560,0,53298,1
2,31008,30668,33709,56978,8432,-3630,-1603,-2618,1533,-2967,-596,242,452,-296,1,0,38,0,600,0,53298,1
2,30994,30669,33863,56979,8440,-3719,-1630,-2568,904,-2160,372,241,455,-289,1,0,38,0,640,0,53298,1
2,30975,30667,34043,56980,8447,-3684,-1509,-2525,712,-1723,424,249,453,-291,1,0,38,0,680,0,53298,1
2,30963,30665,34139,56981,8455,-3900,-1444,-2265,1708,-1337,561,243,453,-285,1,0,38,0,720,0,53298,1
2,30969,30665,34246,56982,8464,-3801,-1626,-2130,1031,-1306,1218,241,457,-293,1,0,38,0,760,0,53298,1
2,30965,30665,34365,56983,8472,-3891,-1638,-2097,-13,-1295,1497,243,451,-275,1,0,38,0,800,0,53298,1
2,30964,30588,34445,56984,8481,-3720,-1894,-2287,-436,-1455,1544,237,461,-273,1,0,38,0,840,0,53298,1
2,30957,30542,34491,56985,8489,-3690,-1857,-2349,-861,-1051,1056,237,447,-271,1,0,38,0,880,0,53298,1
2,30963,30531,34504,56986,8497,-3855,-1706,-2177,-1506,-723,467,237,457,-265,1,0,38,0,920,0,53298,1
2,30959,30503,34500,56987,8506,-3920,-1554,-2007,-1495,-604,251,230,460,-266,1,0,38,0,960,0,53298,1
1,30959,30549,34512,56988,0,-3903,-1521,-2116,-864,-687,255,237,459,-275,1,0,38,1,0,0,53298,1
2,30958,30546,34523,56989,7865,-3892,-1570,-2206,-477,-495,155,231,463,-263,1,0,38,1,40,0,53298,1
2,30960,30545,34547,56990,7874,-3755,-1531,-2180,64,-95,40,235,451,-265,1,0,38,1,80,0,53298,1
2,30951,30623,34573,56991,7882,-3770,-1507,-2102,395,318,1,239,461,-273,1,0,38,1,120,0,53298,1
2,30946,30574,34580,56992,7892,-3864,-1543,-2098,134,322,-64,230,460,-262,1,0,38,1,160,0,53298,1
2,30944,30577,34591,56993,7901,-3815,-1475,-2195,59,334,-2,238,466,-266,1,0,38,1,200,0,53298,1
2,30940,30575,34566,56994,7911,-3810,-1425,-2293,206,584,270,235,457,-279,1,0,38,1,240,0,53298,1
2,30955,30592,34466,56995,7921,-3749,-1130,-2403,-309,1275,704,233,461,-281,1,0,38,1,280,0,53298,1
2,30965,30576,34164,56996,7930,-3692,-1012,-2609,-1974,1879,1359,228,452,-286,1,0,38,1,320,0,53298,1
2,30990,30577,33758,56997,7936,-3624,-1133,-2964,-4638,2830,2471,229,451,-297,1,0,38,1,360,0,53298,1
2,31010,30564,33231,56998,7941,-3651,-545,-3131,-5634,4678,3710,220,462,-306,1,0,38,1,400,0,53298,1
2,31006,30583,32380,56999,7944,-3789,-131,-3219,-4406,6741,5945,202,458,-316,1,0,38,1,440,0,53298,1
2,31054,30579,31924,57000,7947,-4114,-268,-2945,-5474,8758,6731,188,464,-336,1,0,38,1,480,0,53298,1
2,31043,30570,31775,57001,7950,-3888,-1011,-3236,-6696,7685,8018,176,436,-344,1,0,38,1,520,0,53298,1
2,31031,30566,31711,57002,7952,-3744,-763,-2866,-2184,7487,7431,168,438,-354,1,0,38,1,560,0,53298,1
2,31023,30567,31682,57003,7954,-3795,-217,-2065,-1751,5775,7324,159,435,-367,1,0,38,1,600,0,53298,1
2,31018,30567,31663,57004,7956,-3806,-82,-1508,-5557,2685,7457,140,428,-356,1,0,38,1,640,0,53298,1
2,31032,30568,31645,57005,7958,-3543,-481,-1268,-9324,-1747,7627,121,423,-339,1,0,38,1,680,0,53298,1
2,31024,30565,31649,57006,7960,-3552,-579,-1346,-8147,-4371,6361,112,430,-338,1,0,38,1,720,0,53298,1
2,31021,30586,31648,57007,7962,-3596,-207,-1428,-5771,-7394,4527,106,430,-324,1,0,38,1,760,0,53298,1
2,31011,30568,31645,57008,7964,-3516,-226,-1957,-5451,-9438,2742,117,437,-311,1,0,38,1,800,0,53298,1
2,31005,30560,31648,57009,7966,-3605,-75,-2504,-3836,-9706,863,103,431,-303,1,0,38,1,840,0,53298,1
2,31000,30557,31649,57010,7967,-3714,139,-2700,-1427,-9176,-687,109,427,-283,1,0,38,1,880,0,53298,1
2,30990,30558,31649,57011,7970,-3586,498,-2833,-1545,-8629,-1360,115,435,-267,1,0,38,1,920,0,53298,1
2,30986,30562,31652,57012,7973,-3740,376,-2879,-2653,-7827,-1478,122,440,-264,1,0,38,1,960,0,53298,1
1,30989,30559,31649,57013,7353,-4086,187,-2610,-1798,-6491,-1948,123,439,-243,1,0,38,2,0,0,53298,1
2,30985,30561,31649,57014,7356,-4254,91,-1920,-675,-5423,-2102,127,439,-245,1,0,38,2,40,0,53298,1
2,30986,30560,31649,57015,7358,-4635,6,-1212,-1289,-5374,-2759,129,439,-237,1,0,38,2,80,0,53298,1
2,30975,30561,31645,57016,7360,-4720,267,-797,-846,-6529,-3761,128,442,-218,1,0,38,2,120,0,53298,1
2,30983,30568,31655,57017,7363,-4495,-101,-480,-1519,-7735,-4557,147,447,-203,1,0,38,2,160,0,53298,1
2,30980,30566,31668,57018,7365,-4727,453,-816,-2240,-7751,-4723,143,433,-193,1,0,38,2,200,0,53298,1
2,30981,30569,31670,57019,7368,-4494,714,-268,2951,-8043,-4355,150,436,-194,1,0,38,2,240,0,53298,1
2,30987,30574,31672,57020,7371,-4177,402,-404,1672,-8550,-4393,165,431,-175,1,0,38,2,280,0,53298,1
2,30994,30558,31679,57021,7374,-4018,213,-927,846,-8482,-4276,158,430,-164,1,0,38,2,320,0,53298,1
2,30996,30562,31680,57022,7377,-3749,194,-1352,2711,-6676,-4184,174,436,-168,1,0,38,2,360,0,53298,1
2,31040,30574,31708,57023,7380,-3572,-69,-1220,6434,-4503,-4587,164,426,-172,1,0,38,2,400,0,53298,1
2,31045,30568,31697,57024,7383,-4540,1731,-3335,5586,-558,-3842,158,432,-168,1,0,38,2,440,0,53298,1
2,31043,30571,31701,57025,7386,-5709,-1027,-633,2321,2239,-1991,175,431,-171,1,0,38,2,480,0,53298,1
2,31028,30570,31699,57026,7388,-4775,-720,462,3830,1634,-2380,174,426,-162,1,0,38,2,520,0,53298,1
2,31035,30569,31697,57027,7391,-4208,-219,-522,1458,1643,-1561,172,436,-178,1,0,38,2,560,0,53298,1
2,31035,30560,31698,57028,7394,-4312,-629,-633,609,944,-711,174,438,-178,1,0,38,2,600,0,53298,1
2,31025,30557,31702,57029,7398,-4712,-596,-503,116,465,85,176,434,-178,1,0,38,2,640,0,53298,1
2,31026,30560,31700,57030,7402,-4647,-336,-655,-147,278,524,165,431,-169,1,0,38,2,680,0,53298,1
2,31022,30559,31700,57031,7405,-4397,-535,-578,-347,93,369,177,433,-175,1,0,38,2,720,0,53298,1
2,31024,30558,31707,57032,7409,-4415,-422,-413,273,196,132,174,434,-174,1,0,38,2,760,0,53298,1
2,31019,30559,31703,57033,7412,-4573,-306,-515,51,199,-68,175,433,-171,1,0,38,2,800,0,53298,1
2,31020,30559,31703,57034,7415,-4521,-494,-608,-395,300,-69,170,432,-172,1,0,38,2,840,0,53298,1
2,31028,30556,31702,57035,7418,-4437,-370,-642,225,396,174,176,432,-186,1,0,38,2,880,0,53298,1
2,31015,30553,31695,57036,7421,-4565,-130,-939,-734,463,659,169,435,-187,1,0,38,2,920,0,53298,1
2,31004,30553,31690,57037,7421,-4322,-95,-1169,-1663,1124,1318,170,438,-184,1,0,38,2,960,0,53298,1
1,30997,30548,31681,57038,6843,-4258,373,-1061,-22,2253,2257,164,434,-190,1,0,38,3,0,0,53298,1
2,30985,30549,31673,57039,6847,-4109,573,-1181,-1514,2829,3078,157,441,-181,1,0,38,3,40,0,53298,1
2,30987,30550,31665,57040,6849,-4157,462,-1219,-3046,3566,4172,155,445,-185,1,0,38,3,80,0,53298,1
2,30990,30551,31655,57041,6852,-4311,257,-1077,-3218,4317,4931,145,437,-195,1,0,38,3,120,0,53298,1
2,30989,30552,31643,57042,6855,-4468,69,-1164,-3076,5039,5638,142,438,-198,1,0,38,3,160,0,53298,1
2,30989,30550,31632,57043,6858,-4568,-144,-1331,-3074,5568,6054,133,435,-223,1,0,38,3,200,0,53298,1
2,30981,30567,31629,57044,6861,-4563,-175,-1840,-2613,6391,6176,130,438,-230,1,0,38,3,240,0,53298,1
2,30971,30564,31634,57045,6865,-4574,201,-2047,1811,8083,5970,114,442,-238,1,0,38,3,280,0,53298,1
2,30969,30561,31635,57046,6868,-4632,801,-1718,4337,9026,5148,112,440,-250,1,0,38,3,320,0,53298,1
2,30960,30560,31625,57047,6870,-4364,962,-1748,1384,8797,4634,100,434,-264,1,0,38,3,360,0,53298,1
2,30973,30563,31624,57048,6873,-4104,839,-2019,-1638,8663,4646,106,432,-276,1,0,38,3,400,0,53298,1
2,30964,30561,31625,57049,6876,-3888,634,-2200,-2848,9123,4792,99,417,-285,1,0,38,3,440,0,53298,1
2,30958,30560,31630,57050,6878,-3738,519,-2359,-2656,9988,4961,86,424,-298,1,0,38,3,480,0,53298,1
2,30955,30560,31630,57051,6879,-3669,344,-2535,-1962,11024,4684,71,421,-305,1,0,38,3,520,0,53298,1
2,30955,30558,31631,57052,6881,-3659,62,-2267,230,11436,3913,77,417,-319,1,0,38,3,560,0,53298,1
2,30939,30560,31637,57053,6883,-3457,-146,-2390,1459,10396,2230,80,412,-336,1,0,38,3,600,0,53298,1
2,30955,30560,31645,57054,6886,-3167,-150,-2304,2738,9022,-158,84,412,-352,1,0,38,3,640,0,53298,1
2,30957,30563,31640,57055,6888,-2954,-33,-2141,5075,7517,-2401,98,406,-370,1,0,38,3,680,0,53298,1
2,30960,30563,31651,57056,6891,-2875,4,-2048,6313,5842,-4569,98,412,-366,1,0,38,3,720,0,53298,1
2,30968,30561,31657,57057,6892,-2915,301,-1975,7053,3827,-6142,102,414,-380,1,0,38,3,760,0,53298,1
2,30959,30558,31680,57058,6895,-3068,120,-2135,5661,1547,-7244,114,430,-380,1,0,38,3,800,0,53298,1
2,30966,30566,31735,57059,6897,-3385,49,-2096,5557,-342,-8392,140,426,-386,1,0,38,3,840,0,53298,1
2,30956,30565,31906,57060,6900,-3584,450,-2104,6638,-2688,-8955,155,431,-383,1,0,38,3,880,0,53298,1
2,31096,30572,32216,57061,6907,-5301,2975,-3272,10617,-5059,-10410,170,430,-374,1,0,38,3,920,0,53298,1
2,31103,30584,32198,57062,6907,-3176,-530,-3080,17292,-8668,-7945,190,432,-362,1,0,38,3,960,0,53298,1
1,31196,30555,32032,57063,6335,-4540,51,-2139,-3815,-6459,-3893,173,443,-355,1,0,38,4,0,0,53298,1
2,31228,30432,32073,57064,6338,-4130,-959,-2255,-9130,-7393,-3337,196,438,-336,1,0,38,4,40,0,53298,1
2,31176,30433,32379,57065,6342,-4132,-1128,-2896,-704,-9625,-5299,197,447,-315,1,0,38,4,80,0,53298,1
2,31121,30605,32976,57066,6349,-3953,-876,-3257,11827,-9994,-6940,208,454,-302,1,0,38,4,120,0,53298,1
2,31129,30580,32987,57067,6354,-3376,-869,-2969,6245,-9024,-5209,218,446,-300,1,0,38,4,160,0,53298,1
2,31129,30595,32962,57068,6361,-3545,-1042,-2670,-1023,-8208,-4900,222,460,-286,1,0,38,4,200,0,53298,1
2,32146,30808,33336,57069,6372,-3503,-715,-3271,-1224,-6337,-4454,239,455,-287,1,0,38,4,240,0,53298,1
2,32200,30995,34120,57070,6382,-3369,-790,-3285,2026,-4514,-4330,242,450,-280,1,0,38,4,280,0,53298,1
2,31533,30797,33318,57071,6393,-3869,-457,-3048,-3822,-3694,-3268,236,454,-280,1,0,38,4,320,0,53298,1
2,31282,30794,33811,57072,6403,-3916,-837,-2191,-4782,-3372,-1076,234,460,-268,1,0,38,4,360,0,53298,1
2,31293,30686,33079,57073,6411,-4225,-1715,-1619,-2729,-3047,359,243,449,-259,1,0,38,4,400,0,53298,1
2,31987,30912,33545,57074,6421,-3982,-1476,-1615,-2898,-3697,1109,227,447,-257,1,0,38,4,440,0,53298,1
2,31819,30838,33560,57075,6431,-3985,-1233,-1800,-3480,-3393,878,241,455,-251,1,0,38,4,480,0,53298,1
2,31969,30905,33697,57076,6441,-4331,-1174,-1706,-2588,-2717,1165,239,447,-247,1,0,38,4,520,0,53298,1
2,31269,30677,33627,57077,6450,-4230,-1165,-1839,-2741,-2087,1051,238,456,-258,1,0,38,4,560,0,53298,1
2,31945,30892,33662,57078,6460,-4157,-1200,-1730,-1221,-911,924,232,464,-256,1,0,38,4,600,0,53298,1
2,32082,30944,33512,57079,6470,-4208,-964,-1646,651,47,638,233,457,-257,1,0,38,4,640,0,53298,1
2,32267,30996,33948,57080,6479,-4041,-1042,-1741,371,547,391,231,455,-257,1,0,38,4,680,0,53298,1
2,32259,31004,33895,57081,6488,-4285,-1026,-1759,-301,1068,1041,229,455,-251,1,0,38,4,720,0,53298,1
2,32208,30899,33686,57082,6497,-4371,-1025,-1561,-1486,1147,1282,228,456,-262,1,0,38,4,760,0,53298,1
2,31657,30763,33152,57083,6505,-4132,-1204,-1745,-2563,1228,888,223,455,-259,1,0,38,4,800,0,53298,1
2,32070,30830,33549,57084,6513,-4122,-1134,-1807,-1947,1223,353,224,458,-258,1,0,38,4,840,0,53298,1
2,32041,30825,33476,57085,6521,-4161,-1012,-1891,504,969,631,224,450,-268,1,0,38,4,880,0,53298,1
2,32015,30815,33416,57086,6529,-3997,-752,-2094,-569,527,861,230,444,-268,1,0,38,4,920,0,53298,1
2,31997,30821,33425,57087,6529,-3862,-408,-2185,-1843,752,1213,215,461,-275,1,0,38,4,960,0,53298,1
1,31991,30842,33464,57088,5828,-3909,-337,-2238,-1621,1730,1588,213,455,-269,1,0,38,5,0,1,53298,1
2,31913,30734,33476,57089,5835,-3663,-448,-2431,-2356,2444,2943,218,450,-284,1,0,38,5,40,1,53298,1
2,31874,30882,33555,57090,5842,-3905,-431,-2387,-2588,3454,3735,212,456,-278,1,0,38,5,80,1,53298,1
2,31483,30785,33135,57091,5849,-3997,-434,-2456,-1197,4530,3627,202,454,-286,1,0,38,5,120,1,53298,1
2,32029,30958,33716,57092,5857,-4077,-421,-2537,1757,5862,3659,194,456,-282,1,0,38,5,160,1,53298,1
2,31052,30731,33586,57093,5864,-3778,-448,-2829,3885,7117,5021,195,449,-307,1,0,38,5,200,1,53298,1
2,31741,30743,32638,57094,5871,-3967,-247,-2885,6179,8729,6037,178,446,-334,1,0,38,5,240,1,53298,1
2,32223,30988,32395,57095,5876,-4031,-387,-3117,4794,9725,7504,164,450,-340,1,0,38,5,280,1,53298,1
2,32024,30703,31931,57096,5880,-3728,-470,-2878,3008,10257,9609,161,439,-361,1,0,38,5,320,1,53298,1
2,31878,30886,32389,57097,5882,-4461,-69,-2586,3147,9203,10958,144,430,-372,1,0,38,5,360,1,53298,1
2,31686,31180,31648,57098,5885,-2809,-1875,-4293,-470,9047,7603,134,418,-380,1,0,38,5,400,1,53298,1
2,31106,32252,31611,57099,5887,-3126,10,-2552,-2088,8385,4837,130,422,-386,1,0,38,5,440,1,53298,1
2,31096,32354,31575,57100,5888,-3352,318,-2361,-1680,5284,4952,125,411,-393,1,0,38,5,480,1,53298,1
2,31118,32477,31583,57101,5889,-3564,335,-1873,-7354,2092,4477,114,408,-370,1,0,38,5,520,1,53298,1
2,31171,31375,31611,57102,5891,-3355,404,-1451,-10782,-1829,4381,102,412,-370,1,0,38,5,560,1,53298,1
2,31147,30850,31604,57103,5893,-3349,-261,-1893,-11227,-5077,3895,90,420,-358,1,0,38,5,600,1,53298,1
2,31129,30477,31597,57104,5895,-3517,165,-1595,-7939,-6964,1783,83,411,-333,1,0,38,5,640,1,53298,1
2,31094,30797,31579,57105,5898,-3230,389,-1908,-4211,-9399,192,89,417,-321,1,0,38,5,680,1,53298,1
2,31076,31190,31574,57106,5900,-3289,540,-2070,-1690,-10643,-1443,83,427,-317,1,0,38,5,720,1,53298,1
2,31063,30777,31568,57107,5903,-3553,357,-2070,-1349,-11459,-2898,102,426,-290,1,0,38,5,760,1,53298,1
2,31054,31077,31567,57108,5906,-3582,240,-2144,-1080,-11965,-4107,107,429,-283,1,0,38,5,800,1,53298,1
2,31045,31306,31568,57109,5909,-3871,155,-2113,-317,-11949,-5352,117,437,-263,1,0,38,5,840,1,53298,1
2,31046,31671,31568,57110,5912,-4063,-14,-2177,-617,-11744,-6357,124,436,-248,1,0,38,5,880,1,53298,1
2,31042,31978,31568,57111,5915,-4196,-189,-2291,-15,-10898,-7088,138,440,-236,1,0,38,5,920,1,53298,1
2,31039,31777,31570,57112,5915,-4392,184,-1954,2947,-9621,-7418,142,434,-216,1,0,38,5,960,1,53298,1
1,31098,30624,31628,57113,5319,-4666,-7,-1322,2081,-9429,-7090,149,431,-197,1,0,38,6,0,1,53298,1
2,31070,33844,31597,57114,5322,-5058,167,-1404,-1277,-8502,-6773,162,436,-192,1,0,38,6,40,1,53298,1
2,31120,30631,31640,57115,5325,-4799,267,-634,794,-8121,-6842,169,441,-187,1,0,38,6,80,1,53298,1
2,31113,29968,31641,57116,5329,-4617,1686,-2334,-243,-7644,-6750,186,438,-184,1,0,38,6,120,1,53298,1
2,31108,32030,31617,57117,5333,-3912,1455,-1509,987,-4351,-3472,169,433,-179,1,0,38,6,160,1,53298,1
2,31134,30608,31651,57118,5336,-3777,386,-1369,3459,-3527,-2019,176,444,-170,1,0,38,6,200,1,53298,1
2,31139,30630,31642,57119,5340,-3897,-75,-1283,852,-565,-789,179,441,-185,1,0,38,6,240,1,53298,1
2,31140,30589,31640,57120,5345,-4505,-599,-857,1493,538,-367,177,443,-177,1,0,38,6,280,1,53298,1
2,31116,30597,31640,57121,5348,-5157,-791,-409,2245,1117,-184,178,438,-180,1,0,38,6,320,1,53298,1
2,31128,30588,31636,57122,5351,-4645,-92,-243,1504,734,-21,181,441,-179,1,0,38,6,360,1,53298,1
2,31123,30595,31635,57123,5354,-4250,-307,-579,415,570,344,173,425,-187,1,0,38,6,400,1,53298,1
2,31127,30588,31634,57124,5358,-4444,-593,-683,371,633,101,179,441,-183,1,0,38,6,440,1,53298,1
2,31110,30583,31637,57125,5362,-4521,-396,-680,769,642,-299,180,438,-184,1,0,38,6,480,1,53298,1
2,31103,30577,31634,57126,5365,-4555,-359,-589,592,578,-316,174,440,-196,1,0,38,6,520,1,53298,1
2,31106,30563,31637,57127,5368,-4427,-395,-623,394,386,-247,176,442,-182,1,0,38,6,560,1,53298,1
2,31102,30566,31639,57128,5371,-4540,-413,-684,90,261,-232,172,436,-186,1,0,38,6,600,1,53298,1
2,31101,30576,31638,57129,5374,-4449,-418,-612,27,176,-107,176,440,-188,1,0,38,6,640,1,53298,1
2,31090,30567,31637,57130,5379,-4543,-336,-694,-8,120,64,178,434,-182,1,0,38,6,680,1,53298,1
2,31091,30570,31638,57131,5382,-4378,-337,-697,59,409,265,180,444,-182,1,0,38,6,720,1,53298,1
2,31093,30572,31639,57132,5385,-4448,-446,-550,380,594,260,168,434,-180,1,0,38,6,760,1,53298,1
2,31090,30576,31635,57133,5388,-4549,-344,-659,415,608,121,170,438,-178,1,0,38,6,800,1,53298,1
2,31083,30576,31633,57134,5391,-4415,-359,-782,239,768,106,165,439,-185,1,0,38,6,840,1,53298,1
2,31085,30563,31633,57135,5394,-4406,-353,-763,462,841,143,168,438,-188,1,0,38,6,880,1,53298,1
2,31072,30567,31634,57136,5397,-4507,-391,-828,200,776,242,172,448,-190,1,0,38,6,920,1,53298,1
2,31102,30564,31636,57137,5397,-4404,-381,-729,220,826,330,174,448,-192,1,0,38,6,960,1,53298,1
1,31078,30550,31629,57138,4811,-4506,-362,-739,446,663,401,169,441,-189,1,0,38,7,0,0,53298,1
2,31075,30561,31635,57139,4814,-4430,-413,-771,-429,545,433,170,436,-196,1,0,38,7,40,0,53298,1
2,31077,30547,31630,57140,4816,-4448,-432,-727,9,539,537,173,433,-197,1,0,38,7,80,0,53298,1
2,31068,30531,31635,57141,4819,-4578,-506,-673,148,210,239,168,436,-198,1,0,38,7,120,0,53298,1
2,31078,30535,31633,57142,4822,-4482,-317,-798,-239,40,-42,177,443,-201,1,0,38,7,160,0,53298,1
2,31070,30538,31634,57143,4825,-4435,-277,-903,123,132,-65,175,433,-189,1,0,38,7,200,0,53298,1
2,31055,30535,31632,57144,4828,-4216,245,-1264,-120,638,202,173,437,-199,1,0,38,7,240,0,53298,1
2,31055,30536,31633,57145,4831,-4263,248,-1287,426,1607,1134,160,434,-196,1,0,38,7,280,0,53298,1
2,31050,30530,31629,57146,4834,-4101,517,-1460,10,2431,2141,161,441,-213,1,0,38,7,320,0,53298,1
2,31043,30545,31628,57147,4836,-4227,294,-1289,-557,3204,3318,159,435,-209,1,0,38,7,360,0,53298,1
2,31043,30564,31624,57148,4839,-4287,334,-1315,-840,3519,4069,146,444,-222,1,0,38,7,400,0,53298,1
2,31045,30558,31620,57149,4841,-4242,228,-1269,-1179,3877,4739,148,442,-228,1,0,38,7,440,0,53298,1
2,31050,30555,31610,57150,4845,-4355,191,-1213,-1000,4010,5233,139,443,-223,1,0,38,7,480,0,53298,1
2,31058,30561,31604,57151,4848,-4321,-90,-1238,-2262,3691,5468,129,439,-221,1,0,38,7,520,0,53298,1
2,31048,30552,31598,57152,4851,-4475,-223,-1596,-2534,3899,5322,120,438,-234,1,0,38,7,560,0,53298,1
2,31043,30540,31605,57153,4854,-4470,-112,-1815,-134,5318,4837,117,439,-253,1,0,38,7,600,0,53298,1
2,31036,30544,31606,57154,4857,-4584,290,-2117,1820,7146,4403,109,433,-261,1,0,38,7,640,0,53298,1
2,31033,30542,31608,57155,4860,-4451,527,-2230,1816,8378,3823,108,438,-268,1,0,38,7,680,0,53298,1
2,31054,30542,31605,57156,4861,-4129,403,-2338,22,9065,3169,105,437,-283,1,0,38,7,720,0,53298,1
2,31048,30554,31604,57157,4863,-3879,404,-2444,-1058,9324,2620,102,430,-296,1,0,38,7,760,0,53298,1
2,31061,30560,31597,57158,4865,-3599,386,-2449,-944,9277,2264,102,428,-308,1,0,38,7,800,0,53298,1
2,31060,30552,31600,57159,4867,-3380,378,-2642,-415,9165,1873,88,424,-314,1,0,38,7,840,0,53298,1
2,31052,30557,31600,57160,4870,-3252,385,-2466,506,9161,1519,89,419,-333,1,0,38,7,880,0,53298,1
2,31056,30565,31602,57161,4873,-3208,334,-2488,861,9036,1083,84,418,-346,1,0,38,7,920,0,53298,1
2,31061,30548,31611,57162,4873,-3370,-188,-2494,1248,8744,-159,98,418,-356,1,0,38,7,960,0,53298,1
1,31070,30562,31620,57163,4304,-3454,-387,-2035,4078,8246,-1974,103,411,-367,1,0,38,8,0,0,53298,1
2,31071,30568,31627,57164,4305,-3462,-2,-1961,6379,6099,-4009,106,422,-386,1,0,38,8,40,0,53298,1
2,31062,30558,31664,57165,4306,-3086,-270,-2104,5428,3796,-5650,123,423,-385,1,0,38,8,80,0,53298,1
2,31056,30558,31749,57166,4308,-2978,238,-2079,5841,2151,-6681,139,423,-393,1,0,38,8,120,0,53298,1
2,31062,30550,32004,57167,4309,-3100,454,-2333,5234,141,-6854,146,420,-386,1,0,38,8,160,0,53298,1
2,31054,30584,32375,57168,4313,-4520,1977,-2274,4513,-1155,-7296,162,428,-376,1,0,38,8,200,0,53298,1
2,31020,30612,32368,57169,4316,-3351,506,-3605,5003,-6298,-8867,173,435,-367,1,0,38,8,240,0,53298,1
2,31005,30614,32361,57170,4318,-2653,-231,-2743,4632,-2987,-686,173,435,-373,1,0,38,8,280,0,53298,1
2,30986,30620,32640,57171,4321,-3932,-1323,-2856,2229,-2690,-2050,182,436,-362,1,0,38,8,320,0,53298,1
2,30924,30626,33134,57172,4326,-3552,-774,-3069,10013,-5257,-2920,191,439,-353,1,0,38,8,360,0,53298,1
2,30883,30627,33689,57173,4332,-3369,-1134,-3202,9324,-6796,-3787,199,453,-353,1,0,38,8,400,0,53298,1
2,30908,30625,33564,57174,4337,-3468,-1048,-3175,6313,-5354,-2961,208,442,-348,1,0,38,8,440,0,53298,1
2,30909,30621,33519,57175,4343,-3550,-1333,-2683,1188,-4160,-2442,212,438,-342,1,0,38,8,480,0,53298,1
2,30968,30620,33503,57176,4351,-3600,-1394,-2626,-269,-5004,-3499,206,444,-328,1,0,38,8,520,0,53298,1
2,31086,30619,33333,57177,4359,-3674,-1273,-2629,-1029,-5598,-4517,205,449,-319,1,0,38,8,560,0,53298,1
2,31098,30628,33080,57178,4367,-3650,-1416,-2465,-2094,-5613,-5339,217,445,-307,1,0,38,8,600,0,53298,1
2,31129,30627,32867,57179,4375,-3762,-1519,-2297,-3815,-5231,-6436,232,450,-304,1,0,38,8,640,0,53298,1
2,31090,30635,32927,57180,4383,-3777,-1705,-1910,-4296,-5534,-6734,237,447,-299,1,0,38,8,680,0,53298,1
2,31080,30624,33023,57181,4393,-3766,-1474,-1974,-900,-7109,-6749,246,438,-280,1,0,38,8,720,0,53298,1
2,31122,30622,33140,57182,4402,-3573,-1283,-2134,953,-8008,-6181,247,445,-275,1,0,38,8,760,0,53298,1
2,31050,30621,33413,57183,4412,-3244,-735,-2481,2717,-7036,-5257,253,449,-265,1,0,38,8,800,0,53298,1
2,31026,30621,33814,57184,4422,-4238,900,-3807,3745,-5340,-2768,257,449,-265,1,0,38,8,840,0,53298,1
2,31015,30616,34104,57185,4429,-4108,-1826,-1778,-2331,-2738,3821,260,446,-258,1,0,38,8,880,0,53298,1
2,31029,30621,34488,57186,4437,-3813,-1486,-983,-5203,-3602,3822,261,453,-255,1,0,38,8,920,0,53298,1
2,31050,30610,34021,57187,4437,-4340,-2889,-2952,-7683,-4247,2075,262,444,-248,1,0,38,8,960,0,53298,1
1,31033,30610,34008,57188,3796,-4405,-1205,-1508,-4677,-382,-823,255,445,-253,1,0,38,9,0,1,53298,1
2,31039,30608,34064,57189,3803,-4041,-1575,-1348,1640,29,583,260,448,-258,1,0,38,9,40,1,53298,1
2,31033,30612,34291,57190,3809,-3847,-1616,-1664,1550,371,682,254,450,-256,1,0,38,9,80,1,53298,1
2,31020,30615,34505,57191,3818,-4008,-1667,-1896,1684,601,739,248,454,-246,1,0,38,9,120,1,53298,1
2,31009,30617,34621,57192,3827,-4191,-1524,-1740,2359,873,521,262,454,-258,1,0,38,9,160,1,53298,1
2,31010,30616,34603,57193,3835,-4153,-1463,-1650,1647,702,174,253,445,-255,1,0,38,9,200,1,53298,1
2,31014,30613,34545,57194,3842,-4079,-1560,-1626,-11,108,-150,254,446,-258,1,0,38,9,240,1,53298,1
2,31025,30614,34463,57195,3849,-4047,-1584,-1720,-1098,-357,-329,255,453,-255,1,0,38,9,280,1,53298,1
2,31031,30615,34439,57196,3855,-4065,-1568,-1685,-1030,-303,-173,255,447,-261,1,0,38,9,320,1,53298,1
2,31024,30617,34438,57197,3861,-4091,-1577,-1643,-400,-155,52,253,453,-257,1,0,38,9,360,1,53298,1
2,31024,30615,34487,57198,3868,-4042,-1541,-1679,151,-79,221,250,448,-254,1,0,38,9,400,1,53298,1
2,31008,30616,34521,57199,3874,-4073,-1549,-1671,518,-18,312,248,450,-266,1,0,38,9,440,1,53298,1
2,31006,30617,34524,57200,3881,-4105,-1559,-1696,484,52,263,247,447,-247,1,0,38,9,480,1,53298,1
2,31008,30618,34507,57201,3888,-4099,-1525,-1675,164,56,116,255,443,-255,1,0,38,9,520,1,53298,1
2,31014,30623,34493,57202,3895,-4081,-1549,-1648,-179,26,-62,260,452,-248,1,0,38,9,560,1,53298,1
2,31026,30622,34489,57203,3902,-4061,-1579,-1704,-163,31,-42,251,449,-261,1,0,38,9,600,1,53298,1
2,31015,30625,34505,57204,3907,-4069,-1558,-1686,14,113,12,259,445,-261,1,0,38,9,640,1,53298,1
2,31008,30628,34529,57205,3913,-4093,-1508,-1662,189,80,70,257,451,-253,1,0,38,9,680,1,53298,1
2,31009,30627,34574,57206,3919,-4100,-1547,-1690,487,76,179,243,445,-265,1,0,38,9,720,1,53298,1
2,31010,30625,34588,57207,3927,-4089,-1506,-1685,441,97,134,249,451,-261,1,0,38,9,760,1,53298,1
2,31009,30624,34550,57208,3934,-4054,-1519,-1673,756,320,309,249,439,-253,1,0,38,9,800,1,53298,1
2,31007,30623,34498,57209,3942,-4092,-1494,-1643,26,349,208,248,438,-252,1,0,38,9,840,1,53298,1
2,31006,30621,34422,57210,3949,-4096,-1482,-1821,-447,211,-83,253,445,-251,1,0,38,9,880,1,53298,1
2,30994,30618,34342,57211,3956,-4065,-1399,-1805,356,858,199,243,447,-255,1,0,38,9,920,1,53298,1
2,30987,30615,34382,57212,3956,-4085,-1219,-1679,815,1300,896,248,454,-264,1,0,38,9,960,1,53298,1
1,30979,30614,34397,57213,3290,-4011,-1382,-1898,477,1147,1199,242,448,-256,1,0,38,10,0,1,53298,1
2,30958,30615,34473,57214,3298,-4063,-1282,-2014,-387,1455,943,249,447,-267,1,0,38,10,40,1,53298,1
2,32067,30940,35594,57215,3308,-3904,-1049,-2174,-168,1912,1477,239,451,-261,1,0,38,10,80,1,53298,1
2,32179,30999,35827,57216,3318,-3934,-1075,-2246,84,2363,2437,240,454,-272,1,0,38,10,120,1,53298,1
2,32318,31084,36044,57217,3328,-3940,-1009,-2320,-308,2904,3143,237,457,-271,1,0,38,10,160,1,53298,1
2,32265,31070,35954,57218,3337,-4028,-947,-2151,-773,3491,3704,234,454,-286,1,0,38,10,200,1,53298,1
2,32170,31016,35340,57219,3347,-4031,-1571,-2070,-1412,3359,4190,229,457,-285,1,0,38,10,240,1,53298,1
2,31631,30922,34790,57220,3355,-3985,-1520,-1890,-1960,3158,3272,215,459,-289,1,0,38,10,280,1,53298,1
2,31293,30737,34450,57221,3363,-3862,-1319,-2014,107,2736,3110,205,455,-281,1,0,38,10,320,1,53298,1
2,31080,30710,34373,57222,3372,-3686,-1124,-2324,2328,2984,3203,211,463,-297,1,0,38,10,360,1,53298,1
2,32060,30991,35039,57223,3379,-3838,-821,-2357,4730,4283,4237,204,458,-294,1,0,38,10,400,1,53298,1
2,32092,30993,34828,57224,3385,-3789,-894,-2402,5704,4991,5681,193,461,-297,1,0,38,10,440,1,53298,1
2,32137,31011,34160,57225,3390,-3960,-878,-2811,5556,5398,6277,186,454,-322,1,0,38,10,480,1,53298,1
2,32096,30997,33466,57226,3394,-3564,-936,-3049,3169,6420,6616,174,448,-332,1,0,38,10,520,1,53298,1
2,32113,30801,31995,57227,3397,-3792,-313,-2966,803,7705,6384,168,446,-356,1,0,38,10,560,1,53298,1
2,31139,30627,31710,57228,3399,-3726,-804,-3211,-5203,8050,5978,149,439,-357,1,0,38,10,600,1,53298,1
2,31142,30633,31650,57229,3400,-3409,-116,-3434,-7596,7175,4572,146,428,-360,1,0,38,10,640,1,53298,1
2,31134,30620,31611,57230,3402,-3599,-31,-2707,-2577,6342,3940,149,431,-373,1,0,38,10,680,1,53298,1
2,31136,30615,31597,57231,3403,-3626,269,-2194,-3904,4441,3931,129,425,-365,1,0,38,10,720,1,53298,1
2,31154,30532,31573,57232,3405,-3674,752,-1298,-9062,192,4922,116,416,-364,1,0,38,10,760,1,53298,1
2,31154,30524,31567,57233,3407,-3160,-457,-2309,-13652,-3173,5797,110,424,-350,1,0,38,10,800,1,53298,1
2,31139,30533,31570,57234,3410,-2962,-414,-2294,-8132,-3225,4320,105,425,-341,1,0,38,10,840,1,53298,1
2,31130,30537,31574,57235,3412,-3115,-38,-2050,-1971,-3330,3042,101,421,-345,1,0,38,10,880,1,53298,1
2,31119,30544,31579,57236,3414,-3340,164,-2212,-269,-3994,2058,101,417,-325,1,0,38,10,920,1,53298,1
2,31119,30538,31577,57237,3414,-3379,8,-2411,-633,-5068,800,101,427,-325,1,0,38,10,960,1,53298,1
1,31113,30538,31583,57238,2782,-3598,71,-2472,-255,-5717,-2273,106,418,-318,1,0,38,11,0,1,53298,1
2,31109,30545,31581,57239,2784,-3932,363,-2042,-997,-6893,-3856,106,426,-304,1,0,38,11,40,1,53298,1
2,31105,30531,31586,57240,2786,-4160,-33,-2226,-5194,-8583,-5064,114,440,-286,1,0,38,11,80,1,53298,1
2,31112,30540,31584,57241,2788,-4036,-155,-2208,-3651,-8980,-5774,124,436,-278,1,0,38,11,120,1,53298,1
2,31106,30543,31588,57242,2790,-4091,126,-2154,-1286,-8895,-5981,133,437,-267,1,0,38,11,160,1,53298,1
2,31107,30545,31590,57243,2791,-4012,254,-2153,-120,-7871,-5954,142,446,-262,1,0,38,11,200,1,53298,1
2,31107,30545,31593,57244,2793,-4019,419,-2028,1248,-6764,-5549,140,442,-250,1,0,38,11,240,1,53298,1
2,31112,30539,31595,57245,2794,-4185,516,-1743,1744,-6159,-4959,145,443,-241,1,0,38,11,280,1,53298,1
2,31118,30543,31601,57246,2797,-4273,440,-1856,524,-6017,-4191,161,445,-239,1,0,38,11,320,1,53298,1
2,31119,30546,31611,57247,2799,-4475,442,-1978,-22,-5184,-3257,160,446,-232,1,0,38,11,360,1,53298,1
2,31117,30548,31614,57248,2802,-4685,337,-1905,-100,-3824,-2850,166,446,-220,1,0,38,11,400,1,53298,1
2,31122,30547,31619,57249,2805,-4619,-563,-861,-388,-3280,-3468,183,443,-221,1,0,38,11,440,1,53298,1
2,31123,30544,31622,57250,2807,-4591,-915,-496,-56,-3725,-4570,173,439,-209,1,0,38,11,480,1,53298,1
2,31125,30533,31630,57251,2810,-4454,-1027,-236,200,-4549,-5406,182,438,-206,1,0,38,11,520,1,53298,1
2,31137,30514,31635,57252,2813,-4384,-551,-384,26,-5929,-5248,195,433,-189,1,0,38,11,560,1,53298,1
2,31155,30550,31644,57253,2816,-4063,112,-935,-884,-6678,-3737,193,441,-179,1,0,38,11,600,1,53298,1
2,31177,30605,31655,57254,2819,-3939,603,-1645,-1692,-5794,-1436,200,440,-180,1,0,38,11,640,1,53298,1
2,31168,30602,31648,57255,2822,-4101,967,-2759,-1523,-3092,584,192,438,-170,1,0,38,11,680,1,53298,1
2,31155,30613,31651,57256,2824,-4543,-960,-1077,618,-39,100,193,437,-173,1,0,38,11,720,1,53298,1
2,31158,30617,31658,57257,2827,-4544,-1351,-62,1776,447,-634,198,438,-180,1,0,38,11,760,1,53298,1
2,31156,30623,31662,57258,2830,-4564,-603,-423,984,399,-283,197,437,-183,1,0,38,11,800,1,53298,1
2,31156,30624,31660,57259,2833,-4525,-295,-498,1779,443,11,198,434,-180,1,0,38,11,840,1,53298,1
2,31157,30623,31659,57260,2836,-4644,-878,-431,1656,363,-49,201,439,-185,1,0,38,11,880,1,53298,1
2,31153,30624,31661,57261,2839,-4518,-688,-600,997,498,-232,196,442,-180,1,0,38,11,920,1,53298,1
2,31158,30622,31664,57262,2839,-4521,-690,-587,86,501,-258,200,442,-178,1,0,38,11,960,1,53298,1
1,31144,30622,31661,57263,2274,-4557,-754,-561,410,530,-280,204,442,-180,1,0,38,12,0,0,53298,1
2,31142,30620,31664,57264,2278,-4522,-734,-668,97,386,-283,202,444,-182,1,0,38,12,40,0,53298,1
2,31141,30621,31665,57265,2282,-4525,-751,-603,503,258,-210,205,441,-185,1,0,38,12,80,0,53298,1
2,31142,30621,31666,57266,2285,-4481,-773,-669,181,-13,-93,200,442,-184,1,0,38,12,120,0,53298,1
2,31138,30621,31665,57267,2289,-4498,-779,-657,-169,-203,43,207,439,-187,1,0,38,12,160,0,53298,1
2,31145,30622,31666,57268,2292,-4498,-760,-638,-255,-244,100,196,436,-184,1,0,38,12,200,0,53298,1
2,31147,30622,31666,57269,2296,-4510,-754,-622,-44,-151,106,199,441,-183,1,0,38,12,240,0,53298,1
2,31140,30623,31666,57270,2299,-4516,-731,-585,-173,-9,60,203,441,-185,1,0,38,12,280,0,53298,1
2,31147,30623,31666,57271,2303,-4480,-743,-618,68,59,-3,199,433,-189,1,0,38,12,320,0,53298,1
2,31142,30624,31668,57272,2306,-4495,-760,-625,196,115,-24,190,434,-190,1,0,38,12,360,0,53298,1
2,31136,30624,31670,57273,2309,-4496,-741,-612,249,170,-37,200,442,-188,1,0,38,12,400,0,53298,1
2,31135,30623,31664,57274,2313,-4512,-737,-663,163,249,-3,196,440,-182,1,0,38,12,440,0,53298,1
2,31138,30622,31665,57275,2317,-4483,-745,-643,419,274,-4,201,443,-181,1,0,38,12,480,0,53298,1
2,31139,30621,31665,57276,2321,-4497,-765,-607,442,336,-13,194,440,-182,1,0,38,12,520,0,53298,1
2,31140,30621,31666,57277,2325,-4531,-728,-697,308,500,42,196,442,-186,1,0,38,12,560,0,53298,1
2,31133,30620,31662,57278,2330,-4447,-742,-694,497,663,11,194,446,-190,1,0,38,12,600,0,53298,1
2,31135,30619,31664,57279,2333,-4438,-773,-607,801,660,-119,195,441,-191,1,0,38,12,640,0,53298,1
2,31135,30620,31660,57280,2336,-4489,-771,-635,553,582,-160,200,442,-182,1,0,38,12,680,0,53298,1
2,31129,30620,31659,57281,2340,-4492,-781,-699,301,378,-132,201,439,-193,1,0,38,12,720,0,53298,1
2,31128,30620,31662,57282,2344,-4486,-782,-740,224,168,-46,202,446,-188,1,0,38,12,760,0,53298,1
2,31125,30620,31660,57283,2348,-4471,-814,-726,175,6,16,206,438,-190,1,0,38,12,800,0,53298,1
2,31126,30620,31662,57284,2351,-4492,-758,-710,10,-71,88,193,443,-185,1,0,38,12,840,0,53298,1
2,31114,30619,31662,57285,2354,-4506,-753,-733,-84,-60,129,197,439,-181,1,0,38,12,880,0,53298,1
2,31115,30621,31662,57286,2357,-4448,-790,-688,0,0,106,195,449,-173,1,0,38,12,920,0,53298,1
2,31112,30620,31659,57287,2357,-4493,-748,-708,9,155,88,192,436,-186,1,0,38,12,960,0,53298,1
1,31108,30621,31659,57288,1767,-4491,-747,-729,355,383,106,199,441,-187,1,0,38,13,0,1,53298,1
2,31107,30619,31658,57289,1770,-4443,-759,-781,465,557,128,198,444,-194,1,0,38,13,40,1,53298,1
2,31105,30617,31660,57290,1773,-4472,-738,-816,547,909,143,202,446,-192,1,0,38,13,80,1,53298,1
2,31096,30614,31656,57291,1776,-4399,-681,-949,732,1365,344,194,442,-202,1,0,38,13,120,1,53298,1
2,31096,30611,31658,57292,1780,-4355,-748,-792,388,1090,693,186,444,-206,1,0,38,13,160,1,53298,1
2,31084,30610,31656,57293,1783,-4581,-756,-639,-705,878,885,190,442,-198,1,0,38,13,200,1,53298,1
2,31077,30608,31650,57294,1786,-4480,-521,-1104,-981,1376,1492,193,437,-201,1,0,38,13,240,1,53298,1
2,31064,30604,31660,57295,1788,-4182,-219,-1320,-814,1298,2167,191,441,-205,1,0,38,13,280,1,53298,1
2,31060,30605,31657,57296,1790,-4421,-398,-995,-2282,908,2431,194,448,-198,1,0,38,13,320,1,53298,1
2,31060,30605,31658,57297,1792,-4464,-521,-969,-2299,947,2896,189,441,-217,1,0,38,13,360,1,53298,1
2,31047,30605,31658,57298,1794,-4368,-238,-1161,-1619,1397,3563,179,439,-201,1,0,38,13,400,1,53298,1
2,31043,30603,31650,57299,1795,-4291,132,-1305,-1382,2178,4021,179,443,-205,1,0,38,13,440,1,53298,1
2,31048,30605,31642,57300,1796,-4247,254,-1465,-1544,3058,4838,166,440,-210,1,0,38,13,480,1,53298,1
2,31050,30605,31623,57301,1798,-4127,563,-1603,-3641,3923,5560,164,442,-214,1,0,38,13,520,1,53298,1
2,31053,30608,31607,57302,1800,-4162,421,-2019,-4429,5449,6312,154,446,-220,1,0,38,13,560,1,53298,1
2,31057,30607,31585,57303,1801,-4427,-8,-2020,-4111,8067,7313,144,442,-232,1,0,38,13,600,1,53298,1
2,31060,30609,31578,57304,1803,-4524,-356,-2285,514,10962,7636,137,443,-247,1,0,38,13,640,1,53298,1
2,31059,30607,31586,57305,1805,-4852,-64,-2080,3122,12419,6864,124,444,-268,1,0,38,13,680,1,53298,1
2,31050,30605,31592,57306,1807,-4662,-207,-2105,4664,13397,5580,116,448,-278,1,0,38,13,720,1,53298,1
2,31050,30600,31593,57307,1808,-4604,208,-2166,1956,12453,4540,111,433,-299,1,0,38,13,760,1,53298,1
2,31053,30612,31589,57308,1810,-4050,302,-2132,-817,10482,3640,109,429,-319,1,0,38,13,800,1,53298,1
2,31053,30614,31585,57309,1812,-3692,201,-2082,-1168,8626,2510,99,425,-341,1,0,38,13,840,1,53298,1
2,31038,30615,31582,57310,1813,-3381,27,-2128,682,7612,1034,107,435,-345,1,0,38,13,880,1,53298,1
2,31042,30615,31590,57311,1815,-3180,-127,-2306,3649,7105,-848,103,421,-355,1,0,38,13,920,1,53298,1
2,31044,30616,31596,57312,1815,-3234,-194,-1997,4886,5956,-2913,108,420,-364,1,0,38,13,960,1,53298,1
1,31036,30618,31599,57313,1261,-3182,-68,-2075,4956,4616,-4947,116,418,-376,1,0,38,14,0,0,53298,1
2,31053,30615,31612,57314,1262,-3108,-324,-1971,7290,3359,-6458,132,424,-378,1,0,38,14,40,0,53298,1
2,31051,30609,31640,57315,1262,-3347,25,-2086,6388,797,-6995,142,420,-386,1,0,38,14,80,0,53298,1
2,31043,30611,31742,57316,1263,-3437,-18,-2197,3127,-1694,-7598,147,431,-379,1,0,38,14,120,0,53298,1
2,31062,30612,31947,57317,1265,-3487,-765,-2285,2799,-3066,-8959,162,428,-370,1,0,38,14,160,0,53298,1
2,31104,30614,32088,57318,1267,-4770,801,-2875,-1473,-6479,-9790,169,437,-367,1,0,38,14,200,0,53298,1
2,31104,30599,32048,57319,1270,-3881,739,-2502,1215,-7442,-6158,188,436,-366,1,0,38,14,240,0,53298,1
2,31116,30594,32136,57320,1273,-3403,-1945,-2418,4521,-6947,-7027,199,439,-341,1,0,38,14,280,0,53298,1
2,31082,30538,32262,57321,1276,-4071,-714,-2882,8532,-9982,-6849,215,447,-337,1,0,38,14,320,0,53298,1
2,31110,30617,32366,57322,1279,-3624,-1501,-3023,6226,-10901,-9102,220,448,-320,1,0,38,14,360,0,53298,1
2,31199,30567,32331,57323,1283,-3681,-1658,-2629,353,-10401,-9351,236,448,-302,1,0,38,14,400,0,53298,1
2,31232,30570,32192,57324,1288,-3604,-1112,-2430,-4952,-10084,-7837,247,445,-289,1,0,38,14,440,0,53298,1
2,31281,30610,32192,57325,1292,-3472,-758,-3439,-2154,-10656,-5213,253,445,-281,1,0,38,14,480,0,53298,1
2,31177,30622,32377,57326,1299,-3524,814,-4080,3928,-7444,1390,260,446,-252,1,0,38,14,520,0,53298,1
2,31150,30620,32225,57327,1305,-4527,855,-903,-8011,-1172,6094,245,455,-265,1,0,38,14,560,0,53298,1
2,31130,30620,32300,57328,1309,-3545,-2139,-757,-8200,-2666,2882,246,454,-262,1,0,38,14,600,0,53298,1
2,31121,30621,32792,57329,1313,-4116,-2039,-2751,305,-5580,1498,241,449,-249,1,0,38,14,640,0,53298,1
2,31120,30620,32777,57330,1318,-4317,-1332,-2355,-6771,-1347,114,241,455,-249,1,0,38,14,680,0,53298,1
2,31121,30618,32566,57331,1322,-4358,-1127,-979,-873,1404,350,237,449,-251,1,0,38,14,720,0,53298,1
2,31117,30616,32580,57332,1326,-4348,-930,-1860,5876,53,965,239,447,-261,1,0,38,14,760,0,53298,1
2,31098,30617,32725,57333,1332,-4041,-1511,-1938,5487,751,228,241,447,-259,1,0,38,14,800,0,53298,1
2,31091,30619,32842,57334,1337,-3938,-1450,-1649,3666,1219,-697,243,459,-247,1,0,38,14,840,0,53298,1
2,31080,30618,32884,57335,1342,-4123,-1068,-1513,1094,911,-639,247,449,-263,1,0,38,14,880,0,53298,1
2,31080,30619,32872,57336,1347,-4274,-1048,-1666,-290,339,-70,241,445,-253,1,0,38,14,920,0,53298,1
2,31089,30618,32868,57337,1347,-4212,-1240,-1826,-5,-58,147,234,446,-258,1,0,38,14,960,0,53298,1
1,31083,30618,32855,57338,754,-4337,-1352,-1659,102,-104,143,233,449,-245,1,0,38,15,0,1,53298,1
2,31080,30617,32859,57339,759,-4081,-1251,-1673,-30,-214,85,234,446,-256,1,0,38,15,40,1,53298,1
2,31083,30617,32866,57340,765,-4104,-1230,-1697,-52,-142,67,239,453,-259,1,0,38,15,80,1,53298,1
2,31080,30621,32867,57341,770,-4160,-1211,-1670,81,-47,112,239,451,-251,1,0,38,15,120,1,53298,1
2,31075,30620,32874,57342,776,-4164,-1261,-1641,203,-56,160,241,453,-261,1,0,38,15,160,1,53298,1
2,31080,30620,32876,57343,782,-4141,-1209,-1716,-8,-99,37,233,447,-245,1,0,38,15,200,1,53298,1
2,31079,30619,32871,57344,786,-4135,-1227,-1645,-140,20,-23,238,460,-254,1,0,38,15,240,1,53298,1
2,31081,30619,32867,57345,792,-4143,-1227,-1697,39,88,-46,241,447,-249,1,0,38,15,280,1,53298,1
2,31082,30619,32884,57346,797,-4116,-1275,-1686,302,162,-66,237,455,-257,1,0,38,15,320,1,53298,1
2,31081,30620,32890,57347,801,-4129,-1266,-1706,372,112,-40,236,450,-256,1,0,38,15,360,1,53298,1
2,31076,30620,32900,57348,806,-4112,-1263,-1694,209,57,-3,243,443,-255,1,0,38,15,400,1,53298,1
2,31076,30619,32896,57349,810,-4141,-1236,-1717,-32,-26,63,240,448,-252,1,0,38,15,440,1,53298,1
2,31074,30619,32900,57350,816,-4131,-1256,-1670,-53,-83,100,232,454,-260,1,0,38,15,480,1,53298,1
2,31068,30618,32889,57351,821,-4136,-1258,-1692,-6,-78,84,235,453,-251,1,0,38,15,520,1,53298,1
2,31075,30619,32899,57352,827,-4143,-1236,-1690,252,30,68,241,451,-257,1,0,38,15,560,1,53298,1
2,31060,30619,32898,57353,833,-4129,-1254,-1662,323,215,104,241,449,-257,1,0,38,15,600,1,53298,1
2,31060,30619,32895,57354,838,-4145,-1252,-1756,236,187,159,240,452,-254,1,0,38,15,640,1,53298,1
2,31059,30618,32894,57355,843,-4173,-1279,-1683,601,186,248,244,442,-256,1,0,38,15,680,1,53298,1
2,31060,30619,32902,57356,849,-4086,-1286,-1673,564,153,139,243,459,-255,1,0,38,15,720,1,53298,1
2,31059,30618,32918,57357,855,-4090,-1250,-1754,257,-36,48,233,447,-247,1,0,38,15,760,1,53298,1
2,31057,30618,32915,57358,861,-4147,-1245,-1705,-115,-70,47,238,452,-244,1,0,38,15,800,1,53298,1
2,31058,30619,32908,57359,866,-4137,-1238,-1698,-141,-61,71,237,449,-255,1,0,38,15,840,1,53298,1
2,31060,30619,32894,57360,872,-4160,-1242,-1671,-35,0,190,239,455,-251,1,0,38,15,880,1,53298,1
2,31061,30618,32890,57361,879,-4126,-1249,-1755,14,38,91,233,457,-255,1,0,38,15,920,1,53298,1
2,31049,30618,32876,57362,879,-4141,-1178,-1768,110,329,10,243,449,-253,1,0,38,15,960,1,53298,1
1,31048,30617,32863,57363,248,-4134,-1205,-1660,255,583,145,241,453,-261,1,0,38,16,0,1,53298,1
3,31053,30618,32873,57364,253,-4111,-1322,-1705,800,420,205,241,449,-257,1,0,38,16,40,1,53298,1
3,31047,30616,32863,57365,259,-4095,-1350,-1784,132,405,86,232,442,-252,1,0,38,16,80,1,53298,1
3,31043,30618,32855,57366,265,-4081,-1184,-1909,512,604,-61,241,447,-251,1,0,38,16,120,1,53298,1
1,31045,30609,32759,57367,270,-4045,-850,-2002,-609,1200,115,233,445,-259,1,0,38,16,160,1,53298,1
3,31042,30612,32691,57368,275,-3883,-834,-2188,-1730,2052,1228,232,452,-264,1,0,38,16,200,1,53298,1
3,31030,30612,32732,57369,279,-3899,-683,-2366,-219,2803,1883,233,451,-263,1,0,38,16,240,1,53298,1
3,31014,30617,32862,57370,283,-3986,-318,-2617,1171,3753,2735,231,453,-273,1,0,38,16,280,1,53298,1
0,31017,30612,32893,57371,287,-3986,-318,-2617,1171,3753,2735,221,455,-275,1,0,38,16,320,1,53298,1
2,31022,30621,32892,57372,290,-3961,-574,-2712,-925,6754,4983,220,450,-294,1,0,38,16,360,1,53298,1
2,31021,30620,32888,57373,293,-3926,-748,-2867,329,7137,6280,200,450,-294,1,0,38,16,400,1,53298,1
2,31030,30622,32808,57374,296,-3855,-860,-2984,1281,8413,6838,199,451,-303,1,0,38,16,440,1,53298,1
2,31046,30622,32559,57375,298,-4198,-665,-2685,1278,10074,7129,186,440,-334,1,0,38,16,480,1,53298,1
2,30982,30622,32253,57376,300,-3795,-690,-2405,-3095,9556,7040,185,443,-351,1,0,38,16,520,1,53298,1
2,31031,30624,32024,57377,301,-3752,-764,-2328,-4213,8105,6935,163,443,-355,1,0,38,16,560,1,53298,1
2,31115,30618,31821,57378,302,-3732,-5,-2227,894,5686,6427,153,433,-369,1,0,38,16,600,1,53298,1
2,31141,30615,31703,57379,303,-3483,274,-2114,117,3553,6127,157,435,-373,1,0,38,16,640,1,53298,1
2,31148,30615,31617,57380,305,-3386,376,-2159,-3325,1859,6385,147,425,-367,1,0,38,16,680,1,53298,1
2,31161,30614,31588,57381,306,-3280,-626,-2852,-3721,2388,5890,123,429,-359,1,0,38,16,720,1,53298,1
2,31155,30616,31602,57382,308,-3534,471,-1202,-2238,-1101,5432,122,420,-360,1,0,38,16,760,1,53298,1
2,31158,30615,31587,57383,310,-3194,-236,-2240,-5932,-2952,4571,104,422,-358,1,0,38,16,800,1,53298,1
2,31150,30616,31583,57384,312,-3226,-472,-2088,-4059,-4928,2714,111,423,-349,1,0,38,16,840,1,53298,1
2,31151,30617,31577,57385,313,-3228,-1,-2236,-1968,-6233,1063,99,429,-337,1,0,38,16,880,1,53298,1
2,31144,30618,31580,57386,314,-3187,345,-2436,-1531,-7007,-381,109,421,-337,1,0,38,16,920,1,53298,1
2,31140,30616,31575,57387,314,-3361,296,-2798,-1819,-7137,-1008,103,437,-327,1,0,38,16,960,1,53298,1
1,31140,30615,31576,57388,0,-3575,235,-2969,-210,-6297,-1281,102,426,-320,1,0,38,17,0,1,53298,1
2,31124,30615,31574,57389,39745,-3854,255,-2781,1576,-5209,-1661,114,430,-314,1,0,38,17,40,1,53298,1
2,31117,30615,31578,57390,39747,-4044,226,-2615,1670,-4876,-2141,121,433,-295,1,0,38,17,80,1,53298,1
2,31115,30590,31579,57391,39748,-4091,230,-2474,646,-5171,-2852,115,433,-299,1,0,38,17,120,1,53298,1
2,31117,30561,31583,57392,39749,-3965,56,-2275,-46,-5483,-3299,120,432,-284,1,0,38,17,160,1,53298,1
2,31112,30453,31581,57393,39751,-3996,68,-2063,50,-5476,-3486,126,442,-278,1,0,38,17,200,1,53298,1
2,31116,30442,31584,57394,39753,-4195,-110,-1671,-320,-5737,-3935,128,442,-276,1,0,38,17,240,1,53298,1
2,31129,30448,31585,57395,39754,-4336,-229,-1509,-1269,-6645,-4736,140,448,-266,1,0,38,17,280,1,53298,1
2,31129,30474,31585,57396,39756,-4337,-396,-1317,-904,-7414,-5555,148,450,-256,1,0,38,17,320,1,53298,1
2,31130,30481,31589,57397,39757,-4413,-295,-1438,-12,-7595,-6105,159,447,-245,1,0,38,17,360,1,53298,1
2,31131,30549,31606,57398,39758,-4259,682,-2258,843,-6790,-5978,158,446,-242,1,0,38,17,400,1,53298,1
2,31139,30580,31628,57399,39759,-4386,537,-2069,594,-3891,-3923,167,449,-225,1,0,38,17,440,1,53298,1
2,31134,30575,31642,57400,39761,-3891,1,-1333,2721,-4074,-3336,177,439,-221,1,0,38,17,480,1,53298,1
2,31136,30582,31656,57401,39762,-3538,191,-1868,-93,-2501,-2981,171,445,-217,1,0,38,17,520,1,53298,1
2,31141,30583,31660,57402,39764,-3514,1308,-2150,1690,189,-738,180,442,-228,1,0,38,17,560,1,53298,1
2,31139,30588,31666,57403,39765,-4455,-457,-1007,2427,963,813,188,448,-226,1,0,38,17,600,1,53298,1
2,31131,30594,31674,57404,39767,-5312,-1369,-619,1847,457,369,180,448,-224,1,0,38,17,640,1,53298,1
2,31126,30585,31668,57405,39768,-4563,-262,-1163,917,173,-88,176,440,-230,1,0,38,17,680,1,53298,1
2,31119,30586,31651,57406,39770,-4097,-427,-1282,1798,103,192,175,451,-225,1,0,38,17,720,1,53298,1
2,31120,30586,31652,57407,39771,-4206,-441,-1216,1261,135,82,179,443,-225,1,0,38,17,760,1,53298,1
2,31125,30587,31654,57408,39773,-4503,-485,-1155,470,224,-173,179,445,-225,1,0,38,17,800,1,53298,1
2,31126,30586,31652,57409,39775,-4423,-543,-1188,510,285,-258,179,445,-225,1,0,38,17,840,1,53298,1
2,31130,30583,31654,57410,39777,-4301,-473,-1218,655,255,-156,170,444,-230,1,0,38,17,880,1,53298,1
2,31129,30584,31652,57411,39779,-4316,-521,-1234,293,156,-108,176,440,-230,1,0,38,17,920,1,53298,1
2,31127,30583,31653,57412,39781,-4391,-516,-1216,114,56,-92,171,453,-225,1,0,38,17,960,1,53298,1
1,31125,30580,31650,57413,0,-4365,-494,-1205,125,4,-77,171,449,-227,1,0,38,18,0,1,53298,1
2,31127,30588,31653,57414,39239,-4354,-509,-1202,102,-35,-48,178,450,-216,1,0,38,18,40,1,53298,1
2,31136,30588,31651,57415,39241,-4366,-519,-1190,179,-9,4,178,444,-214,1,0,38,18,80,1,53298,1
2,31130,30588,31658,57416,39243,-4341,-500,-1207,100,5,20,169,445,-227,1,0,38,18,120,1,53298,1
2,31127,30587,31654,57417,39244,-4358,-521,-1224,42,-19,-5,178,442,-224,1,0,38,18,160,1,53298,1
2,31126,30581,31650,57418,39245,-4342,-509,-1199,71,-32,-31,177,443,-231,1,0,38,18,200,1,53298,1
2,31126,30580,31657,57419,39247,-4373,-524,-1205,104,-26,-55,173,447,-227,1,0,38,18,240,1,53298,1
2,31127,30579,31654,57420,39249,-4371,-522,-1210,83,-12,-42,176,454,-218,1,0,38,18,280,1,53298,1
2,31127,30583,31655,57421,39251,-4356,-549,-1199,18,13,-3,176,452,-228,1,0,38,18,320,1,53298,1
2,31124,30587,31654,57422,39252,-4379,-526,-1213,39,74,69,177,437,-227,1,0,38,18,360,1,53298,1
2,31126,30591,31652,57423,39254,-4347,-506,-1221,43,61,98,165,447,-221,1,0,38,18,400,1,53298,1
2,31121,30589,31653,57424,39255,-4352,-519,-1237,-115,-24,41,176,450,-220,1,0,38,18,440,1,53298,1
2,31122,30588,31658,57425,39258,-4419,-484,-1275,-144,-51,47,168,442,-224,1,0,38,18,480,1,53298,1
2,31118,30591,31655,57426,39260,-4314,-479,-1222,-85,93,37,177,441,-219,1,0,38,18,520,1,53298,1
2,31118,30592,31654,57427,39262,-4352,-368,-1307,-290,457,-141,184,446,-228,1,0,38,18,560,1,53298,1
2,31114,30586,31657,57428,39264,-4248,-525,-1182,-665,962,-392,165,447,-231,1,0,38,18,600,1,53298,1
2,31114,30583,31663,57429,39266,-4437,-643,-1067,-214,1237,-450,176,440,-230,1,0,38,18,640,1,53298,1
2,31112,30588,31661,57430,39269,-4412,-606,-1202,84,1088,-368,181,443,-237,1,0,38,18,680,1,53298,1
2,31116,30589,31663,57431,39272,-4308,-570,-1392,-110,738,-239,178,450,-232,1,0,38,18,720,1,53298,1
2,31112,30588,31657,57432,39275,-4287,-591,-1362,90,238,-74,178,450,-232,1,0,38,18,760,1,53298,1
2,31112,30588,31661,57433,39277,-4320,-555,-1326,34,-187,100,178,452,-242,1,0,38,18,800,1,53298,1
2,31111,30587,31661,57434,39279,-4374,-472,-1332,-239,-328,231,176,442,-220,1,0,38,18,840,1,53298,1
2,31107,30587,31661,57435,39280,-4311,-516,-1270,-457,-276,264,178,450,-226,1,0,38,18,880,1,53298,1
2,31112,30589,31662,57436,39281,-4353,-483,-1286,-178,-59,273,178,450,-236,1,0,38,18,920,1,53298,1
2,31107,30590,31660,57437,39282,-4319,-505,-1308,100,208,252,177,449,-235,1,0,38,18,960,1,53298,1
1,31106,30589,31660,57438,0,-4317,-470,-1350,141,342,211,178,448,-232,1,0,38,19,0,0,53298,1
2,31105,30593,31656,57439,38732,-4343,-406,-1393,-151,353,452,174,444,-232,1,0,38,19,40,0,53298,1
2,31105,30591,31653,57440,38734,-4196,-439,-1436,-852,193,1096,174,444,-234,1,0,38,19,80,0,53298,1
2,31098,30595,31655,57441,38735,-4308,-448,-1356,-1343,-366,1480,180,446,-234,1,0,38,19,120,0,53298,1
2,31091,30595,31660,57442,38738,-4396,-565,-1247,-1994,-1073,1344,176,444,-234,1,0,38,19,160,0,53298,1
2,31093,30596,31661,57443,38741,-4438,-395,-1280,-2006,-1310,958,177,439,-235,1,0,38,19,200,0,53298,1
2,31090,30592,31662,57444,38744,-4246,-32,-1264,-1140,-888,890,173,445,-223,1,0,38,19,240,0,53298,1
2,31090,30593,31660,57445,38747,-4189,84,-1403,-3,-30,1239,169,447,-235,1,0,38,19,280,0,53298,1
2,31087,30586,31655,57446,38750,-4193,76,-1436,-365,835,1393,164,442,-220,1,0,38,19,320,0,53298,1
2,31085,30585,31649,57447,38753,-4178,172,-1516,172,1737,1918,160,442,-224,1,0,38,19,360,0,53298,1
2,31084,30587,31648,57448,38755,-4171,69,-1554,618,2596,2394,159,445,-235,1,0,38,19,400,0,53298,1
2,31084,30589,31645,57449,38758,-4061,-59,-1462,1220,3260,3103,155,449,-235,1,0,38,19,440,0,53298,1
2,31084,30590,31642,57450,38761,-4282,-359,-1447,773,3288,3162,150,434,-238,1,0,38,19,480,0,53298,1
2,31093,30591,31639,57451,38763,-4435,-458,-1386,-271,2731,2320,150,448,-246,1,0,38,19,520,0,53298,1
2,31098,30592,31642,57452,38765,-4511,-212,-1543,-1048,2037,1712,147,453,-255,1,0,38,19,560,0,53298,1
2,31090,30588,31631,57453,38767,-4171,294,-2015,-1861,2253,1945,139,443,-253,1,0,38,19,600,0,53298,1
2,31090,30587,31619,57454,38770,-3907,455,-2557,-3132,3495,2959,139,445,-259,1,0,38,19,640,0,53298,1
2,31085,30587,31600,57455,38772,-3928,437,-2920,-2578,5693,3984,128,444,-254,1,0,38,19,680,0,53298,1
2,31074,30587,31599,57456,38775,-4005,569,-2734,359,7840,4574,130,444,-276,1,0,38,19,720,0,53298,1
2,31074,30584,31605,57457,38777,-4197,553,-2574,1615,9296,4748,126,440,-292,1,0,38,19,760,0,53298,1
2,31075,30587,31608,57458,38780,-4249,376,-2327,868,9877,4395,114,436,-306,1,0,38,19,800,0,53298,1
2,31072,30590,31605,57459,38782,-4076,-42,-2421,-2464,9406,3808,113,433,-309,1,0,38,19,840,0,53298,1
2,31072,30588,31605,57460,38785,-3682,92,-2406,-2540,8861,2983,96,430,-334,1,0,38,19,880,0,53298,1
2,31071,30584,31598,57461,38787,-3311,-29,-2377,-1249,8318,2079,101,423,-327,1,0,38,19,920,0,53298,1
2,31077,30584,31596,57462,38790,-3102,148,-2419,1466,8170,1335,96,426,-346,1,0,38,19,960,0,53298,1
1,31073,30583,31599,57463,0,-3034,194,-2284,3781,7784,584,100,424,-356,1,0,38,20,0,0,53298,1
2,31076,30582,31602,57464,38228,-3132,-102,-1988,4306,6553,-531,102,416,-364,1,0,38,20,40,0,53298,1
2,31073,30587,31605,57465,38230,-3158,118,-1924,3521,4301,-2051,106,414,-372,1,0,38,20,80,0,53298,1
2,31074,30588,31614,57466,38232,-3058,-360,-1977,2810,1939,-3421,113,407,-381,1,0,38,20,120,0,53298,1
2,31073,30588,31633,57467,38235,-3276,-152,-2163,4281,323,-4907,121,419,-383,1,0,38,20,160,0,53298,1
2,31066,30586,31673,57468,38237,-3355,18,-2241,5151,-1871,-5737,128,418,-376,1,0,38,20,200,0,53298,1
2,31060,30582,31794,57469,38239,-3519,-292,-2455,3016,-4021,-6329,145,425,-383,1,0,38,20,240,0,53298,1
2,31090,30596,32006,57470,38241,-4808,1002,-2368,234,-6017,-7916,145,437,-371,1,0,38,20,280,0,53298,1
2,31123,30611,32256,57471,38244,-4334,249,-3220,-2940,-10595,-8014,161,435,-353,1,0,38,20,320,0,53298,1
2,31111,30619,32355,57472,38246,-3207,-1297,-3083,2092,-10583,-5724,164,442,-342,1,0,38,20,360,0,53298,1
2,31100,30621,32455,57473,38249,-3596,-464,-3270,5736,-8564,-6428,186,448,-326,1,0,38,20,400,0,53298,1
2,31084,30619,32481,57474,38253,-3483,-345,-2718,4359,-6343,-5842,188,460,-306,1,0,38,20,440,0,53298,1
2,31158,30610,32587,57475,38257,-3296,-780,-2440,5046,-7678,-5107,198,452,-310,1,0,38,20,480,0,53298,1
2,31057,30599,32676,57476,38263,-3615,-823,-2381,5251,-8730,-3815,200,458,-294,1,0,38,20,520,0,53298,1
2,30989,30586,32813,57477,38269,-3747,-832,-2551,2726,-8159,-3920,207,447,-275,1,0,38,20,560,0,53298,1
2,31002,30596,33270,57478,38276,-4210,-344,-2636,3548,-8007,-4305,209,459,-263,1,0,38,20,600,0,53298,1
2,30985,30565,33865,57479,38284,-4120,-286,-2124,381,-6460,-1526,222,466,-254,1,0,38,20,640,0,53298,1
2,31146,30651,34481,57480,38292,-4245,-1041,-2827,-5222,-3716,524,224,452,-252,1,0,38,20,680,0,53298,1
2,30955,30635,34366,57481,38298,-4109,-1174,-1764,-1790,-946,1119,228,458,-234,1,0,38,20,720,0,53298,1
2,30933,30638,34690,57482,38305,-4146,-1603,-1436,-319,-167,725,218,458,-254,1,0,38,20,760,0,53298,1
2,30911,30641,34976,57483,38313,-3926,-1172,-1805,-452,-98,-222,219,463,-259,1,0,38,20,800,0,53298,1
2,30900,30646,35082,57484,38321,-4263,-764,-1783,-361,521,-518,225,457,-251,1,0,38,20,840,0,53298,1
2,30902,30647,35125,57485,38329,-4467,-1170,-1485,439,968,-143,225,457,-251,1,0,38,20,880,0,53298,1
2,30889,30647,35133,57486,38337,-4199,-1299,-1763,880,763,93,223,453,-257,1,0,38,20,920,0,53298,1
2,30891,30647,35159,57487,38346,-4031,-1251,-1829,1114,624,114,222,458,-256,1,0,38,20,960,0,53298,1
1,30895,30646,35154,57488,0,-4061,-1137,-1676,458,369,22,222,464,-254,1,0,38,21,0,0,53298,1
2,30887,30645,35155,57489,37728,-4158,-1160,-1731,-378,-26,-4,215,447,-249,1,0,38,21,40,0,53298,1
2,30886,30645,35165,57490,37737,-4184,-1212,-1742,-260,-203,42,225,469,-257,1,0,38,21,80,0,53298,1
2,30888,30644,35156,57491,37746,-4135,-1117,-1740,-146,-271,-46,222,452,-256,1,0,38,21,120,0,53298,1
2,30887,30645,35160,57492,37755,-4122,-1159,-1683,113,-168,9,225,455,-257,1,0,38,21,160,0,53298,1
2,30887,30645,35158,57493,37765,-4141,-1169,-1698,-45,-77,-14,219,457,-253,1,0,38,21,200,0,53298,1
2,30888,30645,35171,57494,37774,-4139,-1148,-1724,66,76,43,217,453,-257,1,0,38,21,240,0,53298,1
2,30891,30646,35182,57495,37783,-4128,-1166,-1734,289,219,118,225,457,-259,1,0,38,21,280,0,53298,1
2,30884,30645,35188,57496,37792,-4110,-1168,-1734,306,256,136,217,459,-253,1,0,38,21,320,0,53298,1
2,30889,30645,35181,57497,37801,-4114,-1151,-1665,135,300,108,219,457,-253,1,0,38,21,360,0,53298,1
2,30887,30646,35205,57498,37809,-4150,-1167,-1717,61,174,38,216,452,-258,1,0,38,21,400,0,53298,1
2,30885,30645,35205,57499,37818,-4130,-1145,-1740,190,182,54,216,454,-250,1,0,38,21,440,0,53298,1
2,30887,30646,35209,57500,37827,-4135,-1162,-1761,276,211,77,217,453,-257,1,0,38,21,480,0,53298,1
2,30884,30646,35198,57501,37836,-4100,-1093,-1834,288,263,66,221,455,-255,1,0,38,21,520,0,53298,1
2,30876,30645,35189,57502,37845,-4022,-964,-2024,555,564,136,221,459,-257,1,0,38,21,560,0,53298,1
2,30877,30645,35138,57503,37854,-4094,-1023,-1781,616,1244,427,220,458,-260,1,0,38,21,600,0,53298,1
2,30872,30644,35111,57504,37863,-4047,-1138,-1775,804,1195,875,214,452,-262,1,0,38,21,640,0,53298,1
2,30867,30645,35128,57505,37872,-4182,-1209,-1839,946,1033,874,211,459,-261,1,0,38,21,680,0,53298,1
2,30859,30644,35047,57506,37881,-4118,-1039,-1838,320,1368,750,204,456,-264,1,0,38,21,720,0,53298,1
2,30861,30643,34981,57507,37890,-4031,-976,-1903,79,1283,878,211,465,-263,1,0,38,21,760,0,53298,1
2,30862,30642,34931,57508,37898,-3998,-945,-1939,143,1187,1089,211,459,-257,1,0,38,21,800,0,53298,1
2,30868,30642,34844,57509,37907,-3946,-741,-1798,-609,1245,1464,214,452,-268,1,0,38,21,840,0,53298,1
2,30825,30641,34828,57510,37916,-4060,-1243,-1867,-1859,895,1389,211,455,-275,1,0,38,21,880,0,53298,1
2,30823,30641,34830,57511,37924,-4092,-1272,-1805,-824,551,810,211,455,-267,1,0,38,21,920,0,53298,1
2,30819,30642,34839,57512,37931,-4097,-1287,-1846,-191,300,441,202,464,-270,1,0,38,21,960,0,53298,1
1,30814,30642,34855,57513,0,-4042,-1067,-1921,719,386,275,206,454,-268,1,0,38,22,0,1,53298,1
2,30805,30641,34845,57514,37221,-4000,-983,-1987,240,326,129,210,460,-274,1,0,38,22,40,1,53298,1
2,30814,30641,34907,57515,37229,-3940,-1167,-2138,335,519,311,213,461,-277,1,0,38,22,80,1,53298,1
2,30794,30641,34970,57516,37238,-3911,-907,-2097,1320,1073,654,213,461,-275,1,0,38,22,120,1,53298,1
2,30742,30635,35141,57517,37247,-3735,-418,-2534,815,1959,1000,205,453,-281,1,0,38,22,160,1,53298,1
2,30751,30641,35122,57518,37256,-4048,-461,-2413,74,2516,797,197,451,-283,1,0,38,22,200,1,53298,1
2,30765,30641,35120,57519,37264,-3784,-474,-2863,-909,3029,1446,203,455,-295,1,0,38,22,240,1,53298,1
2,30775,30643,34951,57520,37272,-3636,-524,-2978,-821,4779,2558,193,461,-297,1,0,38,22,280,1,53298,1
2,30792,30641,34483,57521,37279,-3676,-656,-3140,-1279,6468,3442,191,455,-309,1,0,38,22,320,1,53298,1
2,30847,30645,33605,57522,37284,-3963,-501,-3230,197,8758,5218,183,451,-319,1,0,38,22,360,1,53298,1
2,30949,30640,32566,57523,37288,-4094,133,-2749,-2297,10963,6590,176,448,-334,1,0,38,22,400,1,53298,1
2,30996,30632,31966,57524,37292,-4072,-286,-2795,-8886,9868,6996,164,436,-342,1,0,38,22,440,1,53298,1
2,31007,34367,31681,57525,37295,-3983,2,-2477,-3710,6398,7472,156,430,-358,1,0,38,22,480,1,53298,1
2,31015,34110,31640,57526,37298,-3700,-186,-2182,-5639,4420,7729,131,435,-355,1,0,38,22,520,1,53298,1
2,30986,33025,31617,57527,37300,-3579,-247,-1661,-5544,2384,7321,126,418,-358,1,0,38,22,560,1,53298,1
2,30988,34367,31589,57528,37303,-3347,-557,-1558,-4796,158,5993,112,420,-364,1,0,38,22,600,1,53298,1
2,30987,34380,31589,57529,37305,-3093,-330,-1505,-3298,-2012,3761,106,426,-358,1,0,38,22,640,1,53298,1
2,30972,34384,31581,57530,37308,-3023,-260,-1640,-2286,-3956,1551,109,423,-353,1,0,38,22,680,1,53298,1
2,30967,34382,31579,57531,37310,-3159,-110,-1949,-1227,-5202,-323,98,428,-354,1,0,38,22,720,1,53298,1
2,30964,34384,31583,57532,37312,-3538,135,-2105,406,-6382,-1618,105,419,-337,1,0,38,22,760,1,53298,1
2,30952,34375,31584,57533,37313,-3840,188,-2374,258,-8029,-2325,109,433,-323,1,0,38,22,800,1,53298,1
2,30974,30629,31603,57534,37315,-4131,263,-2677,-136,-9207,-2911,114,426,-318,1,0,38,22,840,1,53298,1
2,30982,30629,31608,57535,37319,-4352,156,-2691,-92,-9637,-3521,123,435,-297,1,0,38,22,880,1,53298,1
2,30980,30629,31608,57536,37320,-4420,-153,-2574,893,-9322,-3860,121,439,-285,1,0,38,22,920,1,53298,1
2,30986,30630,31610,57537,37323,-4375,127,-2602,2927,-8346,-4059,117,443,-269,1,0,38,22,960,1,53298,1
1,30978,30630,31613,57538,0,-3889,-66,-2448,3747,-7188,-3947,143,449,-273,1,0,38,23,0,0,53298,1
2,30973,30627,31614,57539,36710,-3736,128,-2390,4413,-5205,-3861,129,443,-253,1,0,38,23,40,0,53298,1
2,30975,30629,31622,57540,36712,-4194,169,-1943,4025,-3677,-3978,136,452,-254,1,0,38,23,80,0,53298,1
2,30976,30629,31617,57541,36715,-4424,-149,-1661,2029,-3292,-3719,157,447,-257,1,0,38,23,120,0,53298,1
2,30980,30597,31620,57542,36718,-4706,-514,-1021,539,-4119,-3765,154,448,-242,1,0,38,23,160,0,53298,1
2,30984,30565,31626,57543,36721,-4362,-725,-804,-1172,-5991,-4053,160,438,-238,1,0,38,23,200,0,53298,1
2,30988,30354,31629,57544,36724,-3902,-170,-1324,-968,-7224,-4439,159,447,-223,1,0,38,23,240,0,53298,1
2,30961,29794,31619,57545,36728,-3417,412,-2509,-1895,-5762,-3587,181,433,-221,1,0,38,23,280,0,53298,1
2,30979,34105,31631,57546,36731,-3537,1905,-3446,1353,-1523,-1128,172,444,-214,1,0,38,23,320,0,53298,1
2,30964,34324,31625,57547,36735,-4433,-653,-1278,1867,1234,978,180,446,-226,1,0,38,23,360,0,53298,1
2,30970,34468,31647,57548,36739,-5221,-1561,-3,1954,739,64,167,441,-227,1,0,38,23,400,0,53298,1
2,30975,34475,31645,57549,36743,-4593,-157,-1151,173,-40,-410,177,447,-227,1,0,38,23,440,0,53298,1
2,30968,34472,31635,57550,36745,-4125,-620,-1285,-350,170,-291,178,444,-220,1,0,38,23,480,0,53298,1
2,30970,34474,31637,57551,36749,-4411,-505,-1076,562,-57,-425,177,443,-221,1,0,38,23,520,0,53298,1
2,30976,34481,31642,57552,36752,-4354,-642,-1063,-85,161,-477,177,439,-215,1,0,38,23,560,0,53298,1
2,30982,34487,31648,57553,36755,-4511,-531,-1198,-69,319,-526,174,448,-222,1,0,38,23,600,0,53298,1
2,30973,34479,31640,57554,36758,-4410,-565,-1158,949,350,-457,174,444,-222,1,0,38,23,640,0,53298,1
2,30973,34487,31644,57555,36762,-4404,-672,-1178,209,216,-510,179,439,-217,1,0,38,23,680,0,53298,1
2,30972,34483,31644,57556,36764,-4340,-618,-1184,319,297,-332,177,443,-225,1,0,38,23,720,0,53298,1
2,30965,34479,31645,57557,36768,-4468,-585,-1290,-140,318,-94,174,442,-228,1,0,38,23,760,0,53298,1
2,30960,34477,31647,57558,36771,-4261,-703,-1062,-236,289,-27,175,447,-235,1,0,38,23,800,0,53298,1
2,30958,34480,31652,57559,36775,-4427,-572,-1179,54,412,-86,174,442,-226,1,0,38,23,840,0,53298,1
2,30961,34477,31649,57560,36778,-4376,-617,-1214,-59,386,-119,179,441,-231,1,0,38,23,880,0,53298,1
2,30957,34475,31645,57561,36781,-4303,-646,-1245,-162,262,-137,186,452,-228,1,0,38,23,920,0,53298,1
2,30958,34475,31645,57562,36784,-4301,-702,-1171,-104,188,-161,175,445,-231,1,0,38,23,960,0,53298,1
1,30956,34477,31647,57563,0,-4443,-620,-1194,166,174,-156,180,446,-226,1,0,38,24,0,1,53298,1
2,30953,34477,31649,57564,36206,-4352,-658,-1161,104,184,-86,181,443,-231,1,0,38,24,40,1,53298,1
2,30958,34481,31649,57565,36210,-4346,-645,-1265,-208,93,-37,176,452,-226,1,0,38,24,80,1,53298,1
2,30955,34479,31649,57566,36213,-4401,-630,-1253,-232,10,-51,176,446,-232,1,0,38,24,120,1,53298,1
2,30952,34476,31650,57567,36216,-4327,-623,-1219,177,75,-8,181,451,-229,1,0,38,24,160,1,53298,1
2,30947,34471,31649,57568,36220,-4362,-551,-1353,-143,200,6,180,438,-222,1,0,38,24,200,1,53298,1
2,30949,34473,31650,57569,36223,-4254,-579,-1473,-701,509,107,174,448,-228,1,0,38,24,240,1,53298,1
2,30953,34461,31650,57570,36227,-4156,-535,-1410,-125,1216,524,181,447,-231,1,0,38,24,280,1,53298,1
2,30945,34460,31651,57571,36230,-4334,-727,-1101,751,1474,749,183,441,-237,1,0,38,24,320,1,53298,1
2,30943,34458,31656,57572,36233,-4622,-877,-1001,8,586,354,183,449,-239,1,0,38,24,360,1,53298,1
2,30942,34455,31658,57573,36237,-4404,-492,-1390,-1025,-48,127,173,441,-229,1,0,38,24,400,1,53298,1
2,30941,34454,31656,57574,36241,-4245,-550,-1343,-420,-31,137,178,442,-232,1,0,38,24,440,1,53298,1
2,30935,34456,31654,57575,36245,-4208,-413,-1512,-425,81,180,172,452,-234,1,0,38,24,480,1,53298,1
2,30933,34445,31656,57576,36249,-4200,-221,-1630,-11,784,444,170,454,-230,1,0,38,24,520,1,53298,1
2,30927,34443,31653,57577,36252,-4140,-294,-1587,747,1474,985,175,443,-237,1,0,38,24,560,1,53298,1
2,30930,34431,31648,57578,36255,-4156,-327,-1517,581,1874,1572,180,450,-236,1,0,38,24,600,1,53298,1
2,30933,34425,31650,57579,36258,-4343,-418,-1481,8,2052,1754,173,453,-237,1,0,38,24,640,1,53298,1
2,30926,34415,31650,57580,36260,-4243,-442,-1511,-600,2121,1922,165,453,-243,1,0,38,24,680,1,53298,1
2,30928,34407,31646,57581,36262,-4291,-211,-1613,206,2350,2112,164,452,-250,1,0,38,24,720,1,53298,1
2,30927,34392,31640,57582,36264,-4070,94,-1857,-142,2633,2710,159,445,-251,1,0,38,24,760,1,53298,1
2,30932,34372,31627,57583,36266,-3948,248,-2020,-1015,3040,3611,148,440,-258,1,0,38,24,800,1,53298,1
2,30933,34366,31616,57584,36268,-3964,91,-2123,-2552,3716,4406,149,449,-263,1,0,38,24,840,1,53298,1
2,30933,34358,31601,57585,36270,-4064,-171,-2281,-4087,4772,5258,145,443,-265,1,0,38,24,880,1,53298,1
2,30939,34375,31591,57586,36273,-4286,-365,-2481,-4053,5975,5641,133,439,-277,1,0,38,24,920,1,53298,1
2,30926,34388,31591,57587,36276,-4444,-173,-2524,-1617,6846,5079,129,447,-271,1,0,38,24,960,1,53298,1
1,30916,34394,31601,57588,0,-4387,160,-2476,187,7121,4026,119,431,-295,1,0,38,25,0,0,53298,1
2,30917,34394,31599,57589,35699,-4073,271,-2466,-53,6874,3106,123,443,-309,1,0,38,25,40,0,53298,1
2,30914,34379,31586,57590,35701,-3681,293,-2777,-2853,7145,2708,110,426,-314,1,0,38,25,80,0,53298,1
2,30915,34376,31588,57591,35703,-3578,170,-2618,-2618,8122,2900,107,435,-331,1,0,38,25,120,0,53298,1
2,30921,34375,31585,57592,35706,-3458,155,-2434,-1736,8815,3063,95,429,-341,1,0,38,25,160,0,53298,1
2,30920,34379,31584,57593,35708,-3376,-15,-2259,-744,8630,2778,108,428,-348,1,0,38,25,200,0,53298,1
2,30921,34381,31584,57594,35709,-3351,-250,-1989,340,7320,1724,97,415,-359,1,0,38,25,240,0,53298,1
2,30927,34389,31591,57595,35711,-3267,-375,-1885,938,5162,-199,94,418,-356,1,0,38,25,280,0,53298,1
2,30922,34391,31592,57596,35711,-3156,-211,-1922,2059,2883,-2515,96,420,-358,1,0,38,25,320,0,53298,1
2,30943,34390,31597,57597,35713,-3028,-189,-2188,3023,1096,-4538,111,419,-365,1,0,38,25,360,0,53298,1
2,30947,34387,31621,57598,35715,-3097,-90,-2288,4533,403,-6006,114,420,-368,1,0,38,25,400,0,53298,1
2,30952,34395,31658,57599,35717,-3303,214,-2203,6292,-585,-6655,136,422,-368,1,0,38,25,440,0,53298,1
2,30958,34403,31771,57600,35719,-3394,-230,-2060,5421,-2529,-6779,138,430,-374,1,0,38,25,480,0,53298,1
2,30960,34425,31990,57601,35720,-3917,-11,-2153,4796,-4769,-7176,155,429,-367,1,0,38,25,520,0,53298,1
2,30972,34433,32389,57602,35723,-4336,787,-2555,2433,-7827,-8206,169,441,-361,1,0,38,25,560,0,53298,1
2,30973,34412,33012,57603,35726,-3545,-81,-3291,3177,-10228,-6215,175,443,-331,1,0,38,25,600,0,53298,1
2,30940,34388,33143,57604,35729,-3629,-991,-2989,-2074,-9009,-4109,174,444,-328,1,0,38,25,640,0,53298,1
2,31547,34873,33589,57605,35733,-4101,-504,-2550,-3076,-6182,-4833,190,456,-310,1,0,38,25,680,0,53298,1
2,30919,34447,33578,57606,35736,-4251,-538,-2278,-3305,-7616,-5124,193,447,-301,1,0,38,25,720,0,53298,1
2,30852,34455,34612,57607,35741,-4039,-186,-4586,-8910,-10589,-7162,196,456,-292,1,0,38,25,760,0,53298,1
2,30930,34501,33641,57608,35749,-4041,-226,-2302,-2869,-3779,-5893,214,454,-290,1,0,38,25,800,0,53298,1
2,31069,34503,33345,57609,35755,-3874,-652,-1994,-1864,-4155,-5309,222,454,-278,1,0,38,25,840,0,53298,1
2,31100,30638,33250,57610,35762,-3582,-429,-2092,-1094,-4396,-4144,234,456,-268,1,0,38,25,880,0,53298,1
2,31054,30638,33268,57611,35768,-3675,-198,-2262,45,-2610,-891,225,459,-269,1,0,38,25,920,0,53298,1
2,31080,30635,33333,57612,35774,-3977,-369,-2215,-314,-874,274,223,457,-253,1,0,38,25,960,0,53298,1
1,31078,30634,33328,57613,0,-4193,-1071,-1719,-218,650,903,225,453,-267,1,0,38,26,0,1,53298,1
2,31071,30633,33422,57614,35198,-4190,-1262,-1874,1512,639,1219,220,454,-264,1,0,38,26,40,1,53298,1
2,31060,30627,33512,57615,35203,-4104,-994,-1989,1829,306,754,222,460,-266,1,0,38,26,80,1,53298,1
2,31058,30627,33545,57616,35208,-4046,-773,-1812,1516,352,486,219,467,-267,1,0,38,26,120,1,53298,1
2,31066,30626,33563,57617,35214,-4128,-995,-1764,916,256,504,215,449,-261,1,0,38,26,160,1,53298,1
2,31073,30625,33570,57618,35218,-4144,-1010,-1844,-51,20,230,221,457,-269,1,0,38,26,200,1,53298,1
2,31045,30626,33568,57619,35222,-4107,-890,-1858,-72,9,242,215,463,-273,1,0,38,26,240,1,53298,1
2,31057,30624,33570,57620,35226,-4113,-904,-1844,234,117,320,215,457,-263,1,0,38,26,280,1,53298,1
2,31058,30625,33577,57621,35230,-4071,-952,-1876,149,114,246,217,461,-275,1,0,38,26,320,1,53298,1
2,31051,30622,33585,57622,35235,-4074,-921,-1875,231,133,157,227,455,-269,1,0,38,26,360,1,53298,1
2,31047,30616,33612,57623,35240,-4104,-931,-1871,394,139,68,221,457,-263,1,0,38,26,400,1,53298,1
2,31046,30593,33639,57624,35245,-4095,-931,-1868,480,92,26,221,451,-267,1,0,38,26,440,1,53298,1
2,31051,30588,33650,57625,35250,-4055,-921,-1866,291,40,28,218,458,-260,1,0,38,26,480,1,53298,1
2,31041,30587,33652,57626,35254,-4089,-908,-1880,-27,25,28,217,443,-273,1,0,38,26,520,1,53298,1
2,31041,30587,33639,57627,35259,-4094,-927,-1872,-173,0,30,224,460,-268,1,0,38,26,560,1,53298,1
2,31032,30595,33624,57628,35264,-4078,-916,-1878,-156,-22,23,221,459,-263,1,0,38,26,600,1,53298,1
2,31030,30595,33622,57629,35269,-4063,-935,-1888,-140,-23,-1,222,456,-272,1,0,38,26,640,1,53298,1
2,31053,30590,33623,57630,35273,-4088,-933,-1890,4,13,1,220,454,-262,1,0,38,26,680,1,53298,1
2,31051,30562,33635,57631,35277,-4078,-928,-1883,141,24,38,220,454,-274,1,0,38,26,720,1,53298,1
2,31049,30529,33640,57632,35282,-4067,-915,-1891,107,-24,20,221,455,-265,1,0,38,26,760,1,53298,1
2,31048,30468,33641,57633,35288,-4086,-916,-1897,17,-33,-10,214,460,-264,1,0,38,26,800,1,53298,1
2,31043,30519,33650,57634,35293,-4084,-912,-1883,-70,-16,-40,218,460,-264,1,0,38,26,840,1,53298,1
2,31050,30580,33660,57635,35298,-4087,-919,-1881,-76,25,-29,220,460,-272,1,0,38,26,880,1,53298,1
2,31040,30602,33656,57636,35304,-4061,-881,-1860,-144,148,47,214,456,-258,1,0,38,26,920,1,53298,1
2,31036,30617,33639,57637,35310,-4044,-868,-1941,-288,268,42,216,464,-270,1,0,38,26,960,1,53298,1
1,31024,30619,33594,57638,0,-4078,-768,-2010,-204,415,107,221,463,-273,1,0,38,27,0,1,53298,1
2,31027,30620,33469,57639,34690,-3957,-695,-2134,-316,931,419,219,457,-269,1,0,38,27,40,1,53298,1
2,31031,30618,33321,57640,34694,-3933,-518,-2044,-229,1539,992,217,459,-279,1,0,38,27,80,1,53298,1
2,31025,30617,33234,57641,34697,-3954,-625,-2030,-1184,1832,1550,208,452,-280,1,0,38,27,120,1,53298,1
2,30998,30618,33226,57642,34700,-4021,-707,-2074,-1760,2022,2055,213,457,-273,1,0,38,27,160,1,53298,1
2,30991,30620,33309,57643,34703,-3978,-668,-2285,-1275,1839,2034,207,455,-289,1,0,38,27,200,1,53298,1
2,30968,30616,33327,57644,34707,-3881,-360,-2444,-366,2352,2647,199,453,-285,1,0,38,27,240,1,53298,1
2,30930,30616,33345,57645,34711,-3780,-84,-2600,-34,3022,3531,195,455,-287,1,0,38,27,280,1,53298,1
2,30921,30614,33304,57646,34714,-3744,-79,-2909,-65,3946,4442,197,445,-301,1,0,38,27,320,1,53298,1
2,30922,30616,33172,57647,34717,-3864,-39,-3164,60,6113,5352,189,453,-305,1,0,38,27,360,1,53298,1
2,30919,30609,32885,57648,34719,-3907,-38,-3066,1842,7522,7429,177,447,-309,1,0,38,27,400,1,53298,1
2,30933,30615,32379,57649,34721,-3865,-191,-2853,1051,8162,7765,160,452,-336,1,0,38,27,440,1,53298,1
2,30939,30612,32060,57650,34724,-4074,-301,-2632,1258,8227,7841,151,441,-337,1,0,38,27,480,1,53298,1
2,30938,30611,31810,57651,34726,-4248,133,-2368,2448,6994,7308,143,441,-357,1,0,38,27,520,1,53298,1
2,30950,30609,31696,57652,34727,-4057,572,-1656,278,4294,7377,128,428,-358,1,0,38,27,560,1,53298,1
2,30966,30608,31653,57653,34729,-3659,74,-1719,-6416,706,7389,114,422,-352,1,0,38,27,600,1,53298,1
2,30965,30609,31640,57654,34730,-3353,-319,-1518,-7330,-1743,6562,107,419,-341,1,0,38,27,640,1,53298,1
2,30959,30606,31632,57655,34732,-3245,-306,-1580,-5148,-3450,4933,106,432,-338,1,0,38,27,680,1,53298,1
2,30960,30607,31627,57656,34734,-3056,-277,-1694,-3598,-4787,2762,101,425,-339,1,0,38,27,720,1,53298,1
2,30953,30605,31626,57657,34736,-3141,-196,-1883,-1228,-5662,564,102,420,-326,1,0,38,27,760,1,53298,1
2,30934,30605,31624,57658,34738,-3495,256,-1905,750,-6663,-1143,103,431,-321,1,0,38,27,800,1,53298,1
2,30947,30605,31627,57659,34740,-3682,235,-2109,-955,-8498,-2262,97,423,-311,1,0,38,27,840,1,53298,1
2,30933,30606,31627,57660,34740,-4224,210,-2097,-1798,-10047,-3080,116,428,-292,1,0,38,27,880,1,53298,1
2,30937,30611,31625,57661,34741,-4493,-242,-1530,-1737,-12468,-3098,109,433,-271,1,0,38,27,920,1,53298,1
2,30942,30614,31638,57662,34743,-4956,-55,-2018,-2363,-14949,-3844,119,441,-251,1,0,38,27,960,1,53298,1
1,30936,30612,31637,57663,0,-4723,-69,-2134,-1528,-15042,-5033,123,429,-239,1,0,38,28,0,0,53298,1
2,30933,30614,31638,57664,34182,-4632,313,-1955,-161,-12916,-5815,123,435,-207,1,0,38,28,40,0,53298,1
2,30946,30614,31639,57665,34183,-4279,620,-1735,936,-9787,-6154,142,432,-194,1,0,38,28,80,0,53298,1
2,30945,30618,31636,57666,34185,-4058,493,-1053,2290,-6716,-6261,142,428,-202,1,0,38,28,120,0,53298,1
2,30948,30617,31646,57667,34188,-4037,455,-1389,2324,-4363,-6620,148,432,-188,1,0,38,28,160,0,53298,1
2,30955,30618,31662,57668,34190,-4029,1124,-1656,1635,-1252,-6632,176,442,-182,1,0,38,28,200,0,53298,1
2,30948,30620,31680,57669,34192,-3417,1167,-2062,3929,141,-5246,164,438,-178,1,0,38,28,240,0,53298,1
2,30957,30617,31693,57670,34193,-4356,537,-1293,4243,2334,-2652,157,437,-177,1,0,38,28,280,0,53298,1
2,30960,30617,31695,57671,34195,-5121,-697,49,3496,2065,-1594,163,431,-193,1,0,38,28,320,0,53298,1
2,30957,30618,31700,57672,34197,-4966,-961,-574,1139,1147,-1665,172,440,-190,1,0,38,28,360,0,53298,1
2,30943,30616,31687,57673,34199,-4356,-368,-1025,-761,1422,-1123,168,444,-196,1,0,38,28,400,0,53298,1
2,30944,30615,31687,57674,34200,-4269,-616,-956,695,722,-609,175,441,-197,1,0,38,28,440,0,53298,1
2,30948,30616,31690,57675,34202,-4503,-569,-806,1144,356,-307,177,435,-209,1,0,38,28,480,0,53298,1
2,30952,30616,31689,57676,34205,-4523,-469,-883,366,166,-46,178,440,-208,1,0,38,28,520,0,53298,1
2,30954,30614,31689,57677,34207,-4467,-540,-902,-390,-85,114,166,434,-188,1,0,38,28,560,0,53298,1
2,30947,30616,31688,57678,34209,-4385,-561,-824,-241,-177,190,176,444,-206,1,0,38,28,600,0,53298,1
2,30953,30615,31692,57679,34212,-4514,-458,-861,203,-52,108,176,442,-194,1,0,38,28,640,0,53298,1
2,30947,30615,31687,57680,34214,-4482,-498,-826,201,140,-111,166,438,-200,1,0,38,28,680,0,53298,1
2,30949,30615,31690,57681,34217,-4429,-532,-878,42,295,-345,175,441,-201,1,0,38,28,720,0,53298,1
2,30949,30616,31690,57682,34219,-4432,-525,-862,439,399,-429,172,436,-194,1,0,38,28,760,0,53298,1
2,30947,30615,31688,57683,34221,-4502,-510,-929,347,436,-413,175,441,-201,1,0,38,28,800,0,53298,1
2,30943,30613,31690,57684,34223,-4421,-482,-1067,-215,469,-302,175,447,-201,1,0,38,28,840,0,53298,1
2,30938,30612,31693,57685,34225,-4206,-531,-1177,-203,922,-215,178,444,-198,1,0,38,28,880,0,53298,1
2,30936,30614,31690,57686,34228,-4433,-612,-731,1316,1530,-205,174,442,-198,1,0,38,28,920,0,53298,1
2,30936,30615,31694,57687,34230,-4642,-642,-580,1510,913,-295,165,439,-213,1,0,38,28,960,0,53298,1
1,30939,30615,31699,57688,0,-4430,-578,-1123,-293,465,-355,173,449,-201,1,0,38,29,0,0,53298,1
2,30933,30614,31689,57689,33678,-4338,-601,-977,-195,276,-276,173,445,-207,1,0,38,29,40,0,53298,1
2,30934,30617,31693,57690,33681,-4413,-594,-1018,20,252,-111,170,448,-202,1,0,38,29,80,0,53298,1
2,30931,30618,31695,57691,33683,-4417,-655,-929,-24,325,17,181,437,-215,1,0,38,29,120,0,53298,1
2,30932,30617,31698,57692,33684,-4444,-553,-1025,-199,157,-16,174,440,-212,1,0,38,29,160,0,53298,1
2,30927,30617,31702,57693,33687,-4479,-614,-1048,-464,3,-55,175,447,-217,1,0,38,29,200,0,53298,1
2,30932,30616,31697,57694,33689,-4398,-590,-1021,-93,-179,-114,178,436,-208,1,0,38,29,240,0,53298,1
2,30933,30617,31697,57695,33690,-4398,-590,-930,42,-178,-111,174,440,-204,1,0,38,29,280,0,53298,1
2,30933,30614,31703,57696,33692,-4441,-563,-1036,-221,-61,-85,184,438,-214,1,0,38,29,320,0,53298,1
2,30925,30615,31704,57697,33694,-4450,-580,-988,-406,134,-17,172,438,-202,1,0,38,29,360,0,53298,1
2,30931,30616,31699,57698,33696,-4424,-621,-977,174,389,197,171,443,-205,1,0,38,29,400,0,53298,1
2,30927,30613,31699,57699,33698,-4397,-549,-1042,400,574,245,171,437,-209,1,0,38,29,440,0,53298,1
2,30926,30613,31698,57700,33699,-4382,-539,-1129,-173,386,136,182,446,-208,1,0,38,29,480,0,53298,1
2,30923,30615,31699,57701,33701,-4343,-422,-1321,-247,431,139,171,451,-213,1,0,38,29,520,0,53298,1
2,30917,30615,31694,57702,33702,-4174,-168,-1444,383,1116,495,168,446,-202,1,0,38,29,560,0,53298,1
2,30918,30614,31695,57703,33702,-4273,-260,-1289,836,1558,1091,176,432,-216,1,0,38,29,600,0,53298,1
2,30914,30611,31697,57704,33704,-4433,-565,-1058,376,1683,1343,162,436,-206,1,0,38,29,640,0,53298,1
2,30915,30610,31701,57705,33706,-4504,-713,-1020,-253,1595,1175,169,449,-221,1,0,38,29,680,0,53298,1
2,30903,30613,31699,57706,33707,-4370,-553,-1082,-853,1512,1025,167,441,-223,1,0,38,29,720,0,53298,1
2,30905,30610,31698,57707,33710,-4345,-454,-1268,-201,1559,1046,165,443,-225,1,0,38,29,760,0,53298,1
2,30905,30611,31698,57708,33712,-4235,-204,-1495,-147,1744,1008,172,446,-222,1,0,38,29,800,0,53298,1
2,30901,30608,31691,57709,33713,-4144,-204,-1587,890,2350,1438,155,443,-233,1,0,38,29,840,0,53298,1
2,30899,30609,31692,57710,33714,-4230,-10,-1689,1947,2866,1960,155,447,-239,1,0,38,29,880,0,53298,1
2,30900,30608,31683,57711,33715,-4078,96,-1799,999,3202,2501,155,445,-249,1,0,38,29,920,0,53298,1
2,30892,30607,31675,57712,33716,-4055,237,-1939,-132,3689,3316,151,447,-245,1,0,38,29,960,0,53298,1
1,30889,30606,31663,57713,0,-4023,195,-2050,-1861,4273,4085,146,444,-244,1,0,38,30,0,0,53298,1
2,30899,30606,31647,57714,33172,-3940,-3,-2360,-4537,5298,4843,134,442,-260,1,0,38,30,40,0,53298,1
2,30896,30607,31630,57715,33173,-4225,-187,-2618,-5689,7035,5707,131,439,-265,1,0,38,30,80,0,53298,1
2,30890,30607,31628,57716,33174,-4570,-21,-2686,-2782,8763,6046,121,441,-271,1,0,38,30,120,0,53298,1
2,30888,30607,31630,57717,33174,-4678,281,-2457,-273,9519,5537,109,439,-279,1,0,38,30,160,0,53298,1
2,30901,30608,31631,57718,33175,-4483,352,-2412,-511,9310,4854,113,439,-307,1,0,38,30,200,0,53298,1
2,30884,30606,31628,57719,33176,-4049,160,-2471,-2306,8930,4262,99,431,-313,1,0,38,30,240,0,53298,1
2,30894,30604,31626,57720,33177,-3598,-119,-2352,-2828,8842,3751,93,425,-311,1,0,38,30,280,0,53298,1
2,30885,30606,31630,57721,33178,-3316,-429,-2141,-1320,8634,2659,104,422,-334,1,0,38,30,320,0,53298,1
2,30867,30606,31631,57722,33178,-3108,-754,-2083,1338,8069,679,97,425,-355,1,0,38,30,360,0,53298,1
2,30849,30605,31637,57723,33179,-3064,-677,-2003,4784,7123,-1995,98,418,-360,1,0,38,30,400,0,53298,1
2,30848,30605,31645,57724,33180,-3106,-212,-1768,6944,5130,-4461,113,417,-369,1,0,38,30,440,0,53298,1
2,30863,30606,31665,57725,33181,-3084,140,-1939,5145,2228,-6029,124,424,-372,1,0,38,30,480,0,53298,1
2,30864,30604,31694,57726,33182,-3084,270,-2129,2617,-538,-6540,129,427,-373,1,0,38,30,520,0,53298,1
2,30871,30606,31725,57727,33184,-3149,341,-2434,181,-2789,-6309,129,421,-359,1,0,38,30,560,0,53298,1
2,30878,30608,31765,57728,33185,-3829,844,-2507,-1417,-3825,-6124,147,431,-363,1,0,38,30,600,0,53298,1
2,30884,30606,31775,57729,33185,-3910,678,-2932,-1881,-5397,-5904,137,433,-363,1,0,38,30,640,0,53298,1
2,30885,30607,31786,57730,33187,-3589,-396,-2721,2117,-5423,-3854,156,444,-348,1,0,38,30,680,0,53298,1
2,30883,30608,31798,57731,33189,-3490,-595,-2909,3385,-4388,-3385,159,443,-343,1,0,38,30,720,0,53298,1
2,30882,30611,31826,57732,33191,-3599,-589,-2759,4294,-4298,-4017,169,447,-339,1,0,38,30,760,0,53298,1
2,30881,30608,31851,57733,33192,-3537,-719,-2838,4284,-4503,-4837,181,443,-331,1,0,38,30,800,0,53298,1
2,30880,30590,31876,57734,33194,-3527,-821,-3061,1335,-4140,-5949,181,453,-327,1,0,38,30,840,0,53298,1
2,30881,30546,31892,57735,33195,-3592,-868,-2968,1466,-3364,-6370,186,448,-314,1,0,38,30,880,0,53298,1
2,30897,30295,31919,57736,33195,-4055,-696,-2648,2302,-2734,-6626,200,446,-316,1,0,38,30,920,0,53298,1
2,30896,34296,31966,57737,33196,-4147,138,-2630,542,-3144,-6159,213,449,-309,1,0,38,30,960,0,53298,1
1,30928,34294,32017,57738,0,-4025,-201,-2855,-2716,-3711,-3602,216,454,-308,1,0,38,31,0,1,53298,1
2,30934,34371,32056,57739,32667,-3832,-728,-2545,-2668,-3551,-1751,220,450,-304,1,0,38,31,40,1,53298,1
2,30932,34386,32092,57740,32669,-3640,-825,-2226,-2548,-3255,-661,220,446,-294,1,0,38,31,80,1,53298,1
2,30943,34397,32128,57741,32672,-3574,-738,-1992,-1553,-2877,472,217,451,-291,1,0,38,31,120,1,53298,1
2,30946,34379,32189,57742,32674,-3625,-781,-2373,-722,-2592,1479,213,445,-299,1,0,38,31,160,1,53298,1
2,30949,34365,32208,57743,32677,-3643,-1168,-2802,-462,-1471,1788,214,448,-288,1,0,38,31,200,1,53298,1
2,30934,34386,32212,57744,32679,-4199,-1176,-2256,1719,119,1370,212,448,-282,1,0,38,31,240,1,53298,1
2,30934,34378,32212,57745,32682,-4153,-1144,-1993,355,-46,532,218,454,-292,1,0,38,31,280,1,53298,1
2,30941,34376,32235,57746,32685,-3885,-872,-2049,444,-292,295,204,460,-294,1,0,38,31,320,1,53298,1
2,30943,34384,32252,57747,32687,-3894,-950,-2127,1254,-45,319,217,449,-285,1,0,38,31,360,1,53298,1
2,30940,34401,32275,57748,32689,-3869,-1003,-2190,687,125,133,212,458,-298,1,0,38,31,400,1,53298,1
2,30939,34405,32274,57749,32692,-3967,-932,-2126,262,251,-39,212,448,-298,1,0,38,31,440,1,53298,1
2,30944,34409,32274,57750,32695,-3971,-964,-2139,17,96,-35,207,451,-295,1,0,38,31,480,1,53298,1
2,30945,34405,32268,57751,32698,-3907,-1007,-2193,-20,-36,2,213,451,-291,1,0,38,31,520,1,53298,1
2,30940,34392,32261,57752,32702,-3800,-1031,-2277,-352,136,-140,220,452,-290,1,0,38,31,560,1,53298,1
2,30926,34400,32248,57753,32705,-3918,-923,-2079,-146,454,-252,214,456,-290,1,0,38,31,600,1,53298,1
2,30928,34398,32261,57754,32709,-4071,-953,-2060,297,526,-174,208,442,-300,1,0,38,31,640,1,53298,1
2,30929,34395,32278,57755,32713,-3950,-974,-2216,575,419,-111,213,453,-281,1,0,38,31,680,1,53298,1
2,30934,34386,32327,57756,32716,-3881,-904,-2150,978,528,-21,214,452,-302,1,0,38,31,720,1,53298,1
2,30929,34389,32370,57757,32719,-3875,-897,-2218,827,524,120,220,448,-288,1,0,38,31,760,1,53298,1
2,30935,34438,32416,57758,32722,-3827,-973,-2333,294,556,137,216,454,-298,1,0,38,31,800,1,53298,1
2,30931,34450,32495,57759,32726,-3836,-855,-2279,903,890,325,218,448,-298,1,0,38,31,840,1,53298,1
2,30939,34456,32638,57760,32730,-3779,-861,-2460,1536,1051,863,215,451,-301,1,0,38,31,880,1,53298,1
2,30905,34459,33029,57761,32734,-3524,-651,-2881,2903,1203,1718,213,453,-299,1,0,38,31,920,1,53298,1
2,30874,34455,33261,57762,32738,-3736,-320,-3292,2268,2459,2750,209,451,-309,1,0,38,31,960,1,53298,1
1,30861,34455,33183,57763,0,-3672,-301,-3116,558,5844,3967,204,452,-314,1,0,38,32,0,0,53298,1
2,30875,29848,32819,57764,32164,-4149,-417,-3059,-890,7643,4968,186,440,-316,1,0,38,32,40,0,53298,1
2,30866,29970,32485,57765,32166,-4047,-385,-3071,-4109,7271,5771,177,445,-323,1,0,38,32,80,0,53298,1
2,30851,30055,32253,57766,32168,-3944,-416,-2869,-5423,6984,5855,176,452,-354,1,0,38,32,120,0,53298,1
2,30842,29841,32016,57767,32170,-3729,-631,-2849,-5150,6222,6080,164,438,-354,1,0,38,32,160,0,53298,1
2,30844,29937,31860,57768,32172,-3465,-515,-2676,-2358,6000,6035,151,431,-355,1,0,38,32,200,0,53298,1
2,30841,29968,31700,57769,32173,-3347,-137,-2470,-209,5741,5693,143,431,-353,1,0,38,32,240,0,53298,1
2,30830,30047,31639,57770,32175,-3279,-308,-2268,-1245,4557,5489,147,427,-371,1,0,38,32,280,0,53298,1
2,30820,29917,31625,57771,32176,-3310,-948,-2741,-1909,4054,4425,128,424,-376,1,0,38,32,320,0,53298,1
2,30807,33761,31619,57772,32178,-3419,-256,-1413,-818,1398,3228,127,427,-375,1,0,38,32,360,0,53298,1
2,30821,33951,31607,57773,32179,-3072,-952,-2367,-4501,-719,1166,118,418,-370,1,0,38,32,400,0,53298,1
2,30821,34133,31608,57774,32181,-3134,-674,-2215,-409,-2161,-1054,125,425,-369,1,0,38,32,440,0,53298,1
2,30819,34162,31607,57775,32184,-3306,-116,-2067,2118,-4115,-2377,132,428,-372,1,0,38,32,480,0,53298,1
2,30811,34203,31605,57776,32185,-3295,-59,-2169,807,-6745,-2951,127,423,-361,1,0,38,32,520,0,53298,1
2,30831,34196,31607,57777,32187,-3632,183,-2266,-618,-8963,-2956,132,428,-344,1,0,38,32,560,0,53298,1
2,30824,34218,31607,57778,32189,-3924,138,-2369,-2682,-10896,-2529,133,435,-321,1,0,38,32,600,0,53298,1
2,30829,34246,31606,57779,32190,-4188,-29,-2194,-3450,-12072,-2347,137,449,-311,1,0,38,32,640,0,53298,1
2,30830,34239,31609,57780,32193,-4424,124,-2340,-3749,-12672,-2379,147,445,-297,1,0,38,32,680,0,53298,1
2,30831,34251,31609,57781,32194,-4459,-25,-2305,-3088,-12136,-2446,152,450,-278,1,0,38,32,720,0,53298,1
2,30828,34328,31617,57782,32197,-4417,-223,-2267,-1185,-10568,-2680,164,446,-264,1,0,38,32,760,0,53298,1
2,30833,34428,31634,57783,32199,-4464,264,-2533,752,-8313,-2889,156,446,-246,1,0,38,32,800,0,53298,1
2,30826,34441,31640,57784,32202,-4283,87,-1818,3782,-5953,-3075,158,446,-238,1,0,38,32,840,0,53298,1
2,30830,34458,31644,57785,32205,-4342,0,-1236,4238,-5346,-3003,172,446,-238,1,0,38,32,880,0,53298,1
2,30836,34464,31642,57786,32208,-3957,-237,-1417,1385,-5882,-3350,171,449,-219,1,0,38,32,920,0,53298,1
2,30841,34461,31647,57787,32212,-3694,-392,-1233,1782,-5821,-3431,176,438,-216,1,0,38,32,960,0,53298,1
1,30834,34462,31649,57788,0,-3591,-211,-1464,2663,-5559,-2708,170,434,-210,1,0,38,33,0,0,53298,1
2,30860,34505,31663,57789,31661,-3782,549,-2973,1398,-4004,-1665,179,445,-205,1,0,38,33,40,0,53298,1
2,30858,34521,31655,57790,31665,-4625,-420,-2920,-1420,21,2,176,438,-208,1,0,38,33,80,0,53298,1
2,30845,34511,31674,57791,31669,-5383,-623,-38,3149,304,212,181,445,-195,1,0,38,33,120,0,53298,1
2,30846,34501,31667,57792,31672,-4577,-567,-393,1507,-570,302,175,447,-201,1,0,38,33,160,0,53298,1
2,30845,34495,31660,57793,31675,-4059,-494,-986,-371,-532,580,170,444,-196,1,0,38,33,200,0,53298,1
2,30851,34500,31663,57794,31679,-4373,-422,-902,-455,-501,283,176,438,-204,1,0,38,33,240,0,53298,1
2,30854,34502,31668,57795,31683,-4611,-491,-791,-98,-59,114,170,446,-194,1,0,38,33,280,0,53298,1
2,30850,34497,31662,57796,31687,-4585,-440,-999,487,495,-36,173,437,-207,1,0,38,33,320,0,53298,1
2,30846,34490,31661,57797,31690,-4350,-281,-1186,900,934,-197,177,443,-199,1,0,38,33,360,0,53298,1
2,30843,34483,31660,57798,31694,-4162,-283,-1382,859,1837,-156,169,455,-209,1,0,38,33,400,0,53298,1
2,30840,34474,31660,57799,31698,-4280,-360,-1183,1559,2654,224,166,450,-206,1,0,38,33,440,0,53298,1
2,30835,34469,31657,57800,31702,-4293,-433,-900,2466,2869,822,171,441,-213,1,0,38,33,480,0,53298,1
2,30836,34463,31660,57801,31705,-4641,-934,-681,1330,1839,833,175,445,-225,1,0,38,33,520,0,53298,1
2,30848,34469,31667,57802,31708,-4672,-936,-861,-780,179,-26,175,441,-223,1,0,38,33,560,0,53298,1
2,30839,34465,31661,57803,31711,-4382,-304,-1356,-1325,-194,225,177,441,-227,1,0,38,33,600,0,53298,1
2,30831,34464,31661,57804,31715,-4269,-556,-1067,-248,-466,108,165,445,-215,1,0,38,33,640,0,53298,1
2,30837,34463,31667,57805,31719,-4368,-498,-1043,-141,-423,48,168,444,-216,1,0,38,33,680,0,53298,1
2,30836,34466,31668,57806,31722,-4489,-459,-1067,82,-93,-79,171,439,-225,1,0,38,33,720,0,53298,1
2,30840,34465,31667,57807,31725,-4343,-496,-1098,165,11,-101,170,444,-216,1,0,38,33,760,0,53298,1
2,30835,34470,31670,57808,31728,-4379,-477,-1192,141,-60,-212,169,435,-219,1,0,38,33,800,0,53298,1
2,30839,34473,31668,57809,31730,-4381,-518,-1106,490,-27,-277,176,448,-214,1,0,38,33,840,0,53298,1
2,30833,34475,31668,57810,31733,-4346,-483,-1107,362,-16,-340,168,440,-214,1,0,38,33,880,0,53298,1
2,30832,34475,31675,57811,31735,-4452,-460,-1073,148,144,-317,165,447,-213,1,0,38,33,920,0,53298,1
2,30841,34474,31670,57812,31739,-4352,-529,-1129,-75,382,-259,174,442,-216,1,0,38,33,960,0,53298,1
1,30837,34471,31670,57813,0,-4345,-515,-1122,-137,517,-219,182,446,-226,1,0,38,34,0,1,53298,1
2,30833,34467,31669,57814,31157,-4432,-473,-1053,-106,550,-114,176,440,-226,1,0,38,34,40,1,53298,1
2,30831,34461,31663,57815,31160,-4377,-486,-1099,-105,345,230,172,446,-226,1,0,38,34,80,1,53298,1
2,30827,34456,31656,57816,31163,-4454,-464,-1214,-650,-247,701,171,435,-219,1,0,38,34,120,1,53298,1
2,30826,34444,31646,57817,31165,-4293,-439,-1319,-1200,-825,1077,176,446,-212,1,0,38,34,160,1,53298,1
2,30822,34440,31641,57818,31167,-4149,354,-1616,-1659,-887,1442,173,439,-221,1,0,38,34,200,1,53298,1
2,30816,34420,31643,57819,31170,-3977,1039,-1855,-1597,283,2806,160,442,-224,1,0,38,34,240,1,53298,1
2,30813,34396,31630,57820,31172,-3854,820,-1736,-1359,2117,4665,165,441,-229,1,0,38,34,280,1,53298,1
2,30829,34382,31629,57821,31174,-4092,224,-1595,-829,3748,5852,149,441,-221,1,0,38,34,320,1,53298,1
2,30834,34367,31627,57822,31177,-4385,-402,-1450,-934,4790,5818,149,443,-231,1,0,38,34,360,1,53298,1
2,30829,34357,31621,57823,31180,-4534,-555,-1482,-1481,5239,5398,133,437,-243,1,0,38,34,400,1,53298,1
2,30829,34361,31607,57824,31184,-4489,-532,-2098,-2912,5870,4457,135,443,-241,1,0,38,34,440,1,53298,1
2,30821,34374,31604,57825,31187,-4240,-280,-2676,-2057,7496,3806,116,448,-258,1,0,38,34,480,1,53298,1
2,30810,34388,31605,57826,31190,-4360,349,-2798,1255,9349,3346,121,443,-273,1,0,38,34,520,1,53298,1
2,30809,34384,31610,57827,31193,-4315,692,-2495,1922,10233,3158,118,432,-292,1,0,38,34,560,1,53298,1
2,30808,34380,31601,57828,31195,-4107,562,-2422,-972,9967,3695,107,433,-291,1,0,38,34,600,1,53298,1
2,30807,34380,31595,57829,31197,-3953,460,-2491,-3685,9532,4269,105,431,-301,1,0,38,34,640,1,53298,1
2,30809,34374,31589,57830,31198,-3660,332,-2240,-3466,9069,4494,96,436,-314,1,0,38,34,680,1,53298,1
2,30805,34374,31588,57831,31200,-3479,160,-2066,-2465,8684,4100,86,416,-326,1,0,38,34,720,1,53298,1
2,30798,34382,31591,57832,31202,-3432,-240,-1864,-1074,7951,2875,89,423,-341,1,0,38,34,760,1,53298,1
2,30801,34391,31596,57833,31204,-3297,-404,-1765,962,6657,770,88,420,-354,1,0,38,34,800,1,53298,1
2,30781,34385,31597,57834,31207,-3193,-44,-1809,3176,4866,-1899,99,417,-359,1,0,38,34,840,1,53298,1
2,30790,34383,31597,57835,31209,-3160,-206,-1629,3881,2645,-4095,98,428,-358,1,0,38,34,880,1,53298,1
2,30798,34387,31612,57836,31212,-3369,144,-1788,4451,48,-5781,102,426,-358,1,0,38,34,920,1,53298,1
2,30805,34386,31625,57837,31213,-3399,338,-2162,3408,-2889,-6760,122,430,-356,1,0,38,34,960,1,53298,1
1,30819,34386,31657,57838,0,-3309,275,-2627,1448,-4394,-7059,132,424,-360,1,0,38,35,0,0,53298,1
2,30820,34399,31761,57839,30652,-3411,111,-2824,1636,-4535,-6937,138,432,-354,1,0,38,35,40,0,53298,1
2,30816,34412,32038,57840,30653,-3678,-182,-2755,2632,-4474,-6977,145,429,-343,1,0,38,35,80,0,53298,1
2,30835,34434,32500,57841,30655,-4682,1015,-2246,1726,-4511,-8087,163,439,-345,1,0,38,35,120,0,53298,1
2,30856,34438,32753,57842,30658,-4395,-808,-2068,-2126,-7503,-8733,184,452,-326,1,0,38,35,160,0,53298,1
2,30860,34446,32782,57843,30661,-3978,-1424,-2639,162,-8889,-8897,188,448,-320,1,0,38,35,200,0,53298,1
2,30855,30059,32592,57844,30665,-3715,-596,-2638,5436,-7855,-9700,201,441,-305,1,0,38,35,240,0,53298,1
2,30858,34380,32531,57845,30669,-3470,-509,-2024,2438,-6346,-9165,213,455,-291,1,0,38,35,280,0,53298,1
2,31045,33770,32924,57846,30673,-3673,114,-2650,3820,-7815,-8928,228,452,-274,1,0,38,35,320,0,53298,1
2,30956,31805,33140,57847,30679,-3912,1655,-4771,-2050,-8279,-4384,227,453,-273,1,0,38,35,360,0,53298,1
2,30947,31020,33100,57848,30683,-4216,-56,-3078,-1701,781,1974,233,453,-275,1,0,38,35,400,0,53298,1
2,30941,30120,33110,57849,30688,-4214,-1359,-1719,265,-238,426,220,454,-278,1,0,38,35,440,0,53298,1
2,30926,29976,33024,57850,30693,-3972,-1609,-1125,-1003,149,1809,227,455,-271,1,0,38,35,480,0,53298,1
2,30934,29911,33051,57851,30696,-4153,-1591,-1756,668,-803,1364,220,454,-268,1,0,38,35,520,0,53298,1
2,30931,30046,33030,57852,30700,-4047,-849,-2086,-608,-429,278,228,454,-276,1,0,38,35,560,0,53298,1
2,30924,30095,33068,57853,30704,-4086,-1119,-1881,1138,217,610,225,455,-265,1,0,38,35,600,0,53298,1
2,30913,30265,33134,57854,30708,-4111,-1049,-1919,1719,130,474,218,454,-274,1,0,38,35,640,0,53298,1
2,30902,31955,33198,57855,30713,-4088,-970,-1893,1674,-27,368,217,453,-273,1,0,38,35,680,0,53298,1
2,30902,31455,33214,57856,30717,-4085,-982,-1861,837,-27,192,218,460,-268,1,0,38,35,720,0,53298,1
2,30912,30583,33209,57857,30722,-4064,-1028,-1871,-102,-47,-17,225,451,-267,1,0,38,35,760,0,53298,1
2,30919,30493,33185,57858,30726,-4081,-1056,-1883,-445,-16,-64,227,453,-265,1,0,38,35,800,0,53298,1
2,30915,30297,33193,57859,30730,-4078,-1064,-1895,-35,-52,2,224,450,-270,1,0,38,35,840,0,53298,1
2,30913,30319,33207,57860,30735,-4044,-1034,-1883,328,-1,53,225,457,-269,1,0,38,35,880,0,53298,1
2,30900,30683,33224,57861,30739,-4072,-1055,-1892,399,20,85,220,456,-276,1,0,38,35,920,0,53298,1
2,30898,30706,33239,57862,30744,-4080,-1031,-1921,204,-58,135,220,460,-270,1,0,38,35,960,0,53298,1
1,30902,30735,33254,57863,0,-4095,-1045,-1917,197,-156,260,216,450,-276,1,0,38,36,0,1,53298,1
2,30901,30472,33265,57864,30149,-4068,-1038,-1867,196,-193,359,222,456,-266,1,0,38,36,40,1,53298,1
2,30906,29992,33257,57865,30153,-4024,-1026,-1849,42,-207,445,230,456,-270,1,0,38,36,80,1,53298,1
2,30905,30040,33255,57866,30158,-4062,-1025,-1840,-107,-148,423,223,451,-271,1,0,38,36,120,1,53298,1
2,30907,29789,33257,57867,30163,-4033,-1012,-1831,14,-46,388,220,446,-274,1,0,38,36,160,1,53298,1
2,30910,29800,33274,57868,30166,-4007,-1035,-1871,192,-8,268,226,454,-270,1,0,38,36,200,1,53298,1
2,30904,29896,33289,57869,30170,-4104,-994,-1797,272,-48,295,224,450,-272,1,0,38,36,240,1,53298,1
2,30909,30505,33296,57870,30175,-4095,-991,-1839,185,-197,445,220,454,-268,1,0,38,36,280,1,53298,1
2,30922,30020,33307,57871,30179,-4159,-936,-1804,106,-269,585,217,453,-273,1,0,38,36,320,1,53298,1
2,30931,34099,33318,57872,30183,-4041,-1042,-1965,174,-565,732,225,447,-267,1,0,38,36,360,1,53298,1
2,30934,34231,33276,57873,30187,-4032,-1034,-1949,-599,-582,487,216,456,-270,1,0,38,36,400,1,53298,1
2,30940,34284,33242,57874,30191,-4162,-942,-1831,-618,-731,375,219,465,-263,1,0,38,36,440,1,53298,1
2,30940,34295,33197,57875,30195,-4066,-991,-1848,-428,-695,340,222,452,-272,1,0,38,36,480,1,53298,1
2,30947,34336,33138,57876,30198,-4087,-916,-1759,-914,-284,195,222,460,-262,1,0,38,36,520,1,53298,1
2,30955,34355,33079,57877,30201,-4140,-927,-1836,-1027,-42,105,212,460,-258,1,0,38,36,560,1,53298,1
2,30953,34346,33038,57878,30204,-4122,-904,-1838,-688,149,-74,217,457,-271,1,0,38,36,600,1,53298,1
2,30959,34363,33025,57879,30208,-4118,-909,-1779,-408,272,-139,214,458,-260,1,0,38,36,640,1,53298,1
2,30954,34361,33064,57880,30212,-4055,-968,-1901,235,343,-154,211,451,-263,1,0,38,36,680,1,53298,1
2,30947,34351,33080,57881,30215,-4128,-864,-1770,647,683,-267,217,451,-275,1,0,38,36,720,1,53298,1
2,30941,34362,33109,57882,30220,-4169,-840,-1802,-73,728,-345,214,458,-258,1,0,38,36,760,1,53298,1
2,30933,34400,33149,57883,30225,-4051,-877,-2033,-155,506,-373,210,454,-260,1,0,38,36,800,1,53298,1
2,30933,34395,33221,57884,30230,-3951,-690,-2196,-615,468,-772,218,460,-274,1,0,38,36,840,1,53298,1
2,30935,34401,33186,57885,30236,-3954,-274,-2078,-2785,1623,-1167,219,457,-273,1,0,38,36,880,1,53298,1
2,30924,34413,33210,57886,30241,-4008,-347,-1970,-1774,2599,1263,219,459,-273,1,0,38,36,920,1,53298,1
2,30911,34430,33370,57887,30246,-3882,-155,-2560,-730,2311,2953,220,460,-284,1,0,38,36,960,1,53298,1
1,30899,34436,33417,57888,0,-3797,71,-2854,-1551,3900,4264,199,457,-283,1,0,38,37,0,0,53298,1
2,30891,34426,33450,57889,29645,-3803,161,-2679,-823,6020,6830,196,446,-308,1,0,38,37,40,0,53298,1
2,30882,34429,33375,57890,29649,-4012,-224,-3400,756,6732,8809,185,461,-287,1,0,38,37,80,0,53298,1
2,30923,34440,32883,57891,29652,-4644,-91,-3418,4244,9809,10261,168,442,-312,1,0,38,37,120,0,53298,1
2,30974,30593,32250,57892,29655,-4122,5,-2891,1248,10186,10508,148,442,-336,1,0,38,37,160,0,53298,1
2,30981,30587,31832,57893,29657,-4167,-85,-2583,-1206,8310,9990,141,441,-351,1,0,38,37,200,0,53298,1
2,30970,30581,31705,57894,29659,-3948,30,-2059,-1936,6764,9131,126,434,-364,1,0,38,37,240,0,53298,1
2,30965,30529,31656,57895,29662,-3680,-250,-1582,-5071,4275,8275,105,423,-347,1,0,38,37,280,0,53298,1
2,30960,30440,31635,57896,29665,-3326,-256,-1536,-6201,1248,7132,95,419,-349,1,0,38,37,320,0,53298,1
2,30951,30229,31624,57897,29667,-2984,-310,-1554,-6153,-1019,5464,98,414,-352,1,0,38,37,360,0,53298,1
2,30951,30057,31620,57898,29670,-2744,-257,-1587,-4384,-2305,3685,86,422,-344,1,0,38,37,400,0,53298,1
2,30920,29978,31614,57899,29673,-2862,-177,-1840,-2334,-3304,1685,88,416,-344,1,0,38,37,440,0,53298,1
2,30907,30072,31618,57900,29676,-3185,64,-2083,-569,-4119,-442,90,416,-336,1,0,38,37,480,0,53298,1
2,30902,30104,31618,57901,29679,-3461,451,-2461,276,-5505,-2297,94,416,-332,1,0,38,37,520,0,53298,1
2,30888,30183,31621,57902,29681,-3620,719,-2844,-169,-6788,-3477,97,421,-323,1,0,38,37,560,0,53298,1
2,30887,30409,31614,57903,29684,-3664,582,-2908,-117,-6818,-3773,101,423,-307,1,0,38,37,600,0,53298,1
2,30882,30468,31613,57904,29685,-3745,610,-2898,1055,-6148,-3634,106,432,-306,1,0,38,37,640,0,53298,1
2,30880,30479,31619,57905,29687,-3822,678,-2856,1817,-5233,-3490,116,434,-296,1,0,38,37,680,0,53298,1
2,30889,30473,31623,57906,29689,-3889,587,-2493,1895,-4298,-3409,110,438,-296,1,0,38,37,720,0,53298,1
2,30876,30449,31625,57907,29691,-4075,567,-2173,1529,-3792,-3276,113,437,-283,1,0,38,37,760,0,53298,1
2,30877,30376,31623,57908,29692,-4023,299,-1994,200,-3982,-3120,129,439,-281,1,0,38,37,800,0,53298,1
2,30864,30301,31628,57909,29695,-4414,165,-1517,505,-4134,-3197,136,436,-276,1,0,38,37,840,0,53298,1
2,30867,30274,31627,57910,29697,-4520,3,-1625,-366,-5087,-3753,131,441,-259,1,0,38,37,880,0,53298,1
2,30869,30207,31626,57911,29698,-4591,-116,-1204,922,-5441,-4446,143,445,-269,1,0,38,37,920,0,53298,1
2,30866,30139,31628,57912,29701,-4895,-138,-1149,1253,-6571,-4937,150,442,-254,1,0,38,37,960,0,53298,1
1,30869,30359,31640,57913,0,-4383,-399,-910,1036,-7697,-5490,158,446,-234,1,0,38,38,0,1,53298,1
2,30873,30368,31642,57914,29140,-4161,-150,-1125,1150,-8496,-6186,165,447,-225,1,0,38,38,40,1,53298,1
2,30875,30399,31650,57915,29142,-3488,346,-1966,606,-8221,-6469,176,440,-224,1,0,38,38,80,1,53298,1
2,30875,29843,31649,57916,29144,-3127,1367,-3830,-710,-4352,-4403,180,438,-222,1,0,38,38,120,1,53298,1
2,30873,30309,31657,57917,29146,-3793,1249,-3305,3405,808,-606,169,459,-217,1,0,38,38,160,1,53298,1
2,30864,30490,31665,57918,29149,-4723,-1392,-677,3480,2040,742,169,449,-219,1,0,38,38,200,1,53298,1
2,30842,30509,31679,57919,29152,-5225,-1021,186,4427,914,97,174,442,-222,1,0,38,38,240,1,53298,1
2,30835,30503,31664,57920,29155,-4488,-160,-1399,-24,-162,85,174,442,-220,1,0,38,38,280,1,53298,1
2,30841,30439,31660,57921,29158,-4231,-438,-1244,-705,-116,220,177,443,-219,1,0,38,38,320,1,53298,1
2,30841,30451,31660,57922,29161,-4268,-504,-1068,217,-324,310,173,443,-229,1,0,38,38,360,1,53298,1
2,30841,30444,31665,57923,29165,-4474,-492,-1050,21,54,170,178,440,-224,1,0,38,38,400,1,53298,1
2,30835,30430,31661,57924,29168,-4492,-345,-1149,874,373,123,167,449,-219,1,0,38,38,440,1,53298,1
2,30832,30404,31656,57925,29172,-4254,-467,-1188,560,207,-10,172,440,-214,1,0,38,38,480,1,53298,1
2,30837,30431,31664,57926,29175,-4421,-518,-1156,-428,9,-223,178,448,-226,1,0,38,38,520,1,53298,1
2,30842,30413,31660,57927,29179,-4431,-489,-1164,150,-7,-99,170,440,-214,1,0,38,38,560,1,53298,1
2,30826,30423,31657,57928,29182,-4322,-445,-1152,269,-22,8,172,444,-204,1,0,38,38,600,1,53298,1
2,30833,30425,31660,57929,29185,-4415,-479,-1119,-214,-91,29,174,442,-218,1,0,38,38,640,1,53298,1
2,30835,30417,31660,57930,29188,-4377,-472,-1140,-133,-19,78,171,449,-217,1,0,38,38,680,1,53298,1
2,30829,30410,31661,57931,29190,-4357,-440,-1139,-4,-9,59,172,446,-222,1,0,38,38,720,1,53298,1
2,30824,30400,31664,57932,29193,-4379,-492,-1151,-79,-9,-25,171,447,-215,1,0,38,38,760,1,53298,1
2,30822,30410,31661,57933,29196,-4415,-455,-1135,77,62,-54,167,445,-219,1,0,38,38,800,1,53298,1
2,30825,30406,31660,57934,29199,-4356,-479,-1164,66,75,-20,173,445,-221,1,0,38,38,840,1,53298,1
2,30817,30393,31659,57935,29202,-4378,-463,-1151,-52,41,-19,169,447,-221,1,0,38,38,880,1,53298,1
2,30822,30399,31662,57936,29205,-4380,-461,-1174,5,-13,4,170,444,-218,1,0,38,38,920,1,53298,1
2,30816,30391,31660,57937,29208,-4372,-460,-1132,64,-3,-7,173,439,-221,1,0,38,38,960,1,53298,1
1,30812,30397,31657,57938,0,-4344,-484,-1157,-18,-1,-17,176,448,-228,1,0,38,39,0,1,53298,1
2,30812,30374,31661,57939,28636,-4373,-462,-1150,-111,-2,-46,171,439,-219,1,0,38,39,40,1,53298,1
2,30805,30323,31657,57940,28639,-4405,-474,-1141,84,21,-32,169,443,-221,1,0,38,39,80,1,53298,1
2,30804,30335,31660,57941,28642,-4353,-479,-1147,61,38,-26,168,442,-216,1,0,38,39,120,1,53298,1
2,30807,30356,31656,57942,28645,-4377,-485,-1167,-111,2,-21,176,444,-218,1,0,38,39,160,1,53298,1
2,30808,30324,31655,57943,28646,-4406,-481,-1165,-98,-14,-45,171,441,-221,1,0,38,39,200,1,53298,1
2,30803,30254,31658,57944,28648,-4381,-443,-1153,-22,13,-20,176,444,-228,1,0,38,39,240,1,53298,1
2,30803,30333,31661,57945,28651,-4340,-502,-1155,-248,24,-46,173,441,-219,1,0,38,39,280,1,53298,1
2,30811,30323,31666,57946,28654,-4423,-444,-1171,-316,40,-56,186,440,-220,1,0,38,39,320,1,53298,1
2,30797,30354,31666,57947,28656,-4371,-471,-1167,-55,131,6,177,445,-223,1,0,38,39,360,1,53298,1
2,30807,30337,31661,57948,28658,-4328,-504,-1111,-256,141,-51,169,437,-225,1,0,38,39,400,1,53298,1
2,30794,30300,31661,57949,28660,-4411,-441,-1198,-227,179,-57,178,442,-222,1,0,38,39,440,1,53298,1
2,30786,30340,31668,57950,28663,-4380,-415,-1268,-510,238,-116,171,447,-223,1,0,38,39,480,1,53298,1
2,30781,30381,31670,57951,28665,-4277,-410,-1266,-1002,356,-147,178,442,-214,1,0,38,39,520,1,53298,1
2,30783,30388,31677,57952,28667,-4348,-461,-1251,-940,629,-64,174,436,-224,1,0,38,39,560,1,53298,1
2,30786,30390,31678,57953,28670,-4295,-127,-1520,-268,1133,315,174,450,-218,1,0,38,39,600,1,53298,1
2,30779,30402,31679,57954,28672,-4066,-72,-1617,203,1933,1089,171,453,-229,1,0,38,39,640,1,53298,1
2,30773,30411,31675,57955,28674,-4241,-168,-1318,1081,2295,1795,171,447,-233,1,0,38,39,680,1,53298,1
2,30781,30433,31680,57956,28676,-4404,-562,-1149,665,1985,2016,167,451,-233,1,0,38,39,720,1,53298,1
2,30773,30472,31689,57957,28678,-4606,-612,-1197,29,1338,1389,161,447,-233,1,0,38,39,760,1,53298,1
2,30769,30457,31680,57958,28681,-4188,-55,-1609,-233,1070,1403,162,450,-232,1,0,38,39,800,1,53298,1
2,30765,30462,31672,57959,28683,-3962,421,-1977,139,1795,1975,155,441,-247,1,0,38,39,840,1,53298,1
2,30753,30471,31661,57960,28686,-3766,655,-2119,-198,3072,3095,154,454,-244,1,0,38,39,880,1,53298,1
2,30760,30458,31646,57961,28688,-3810,578,-2117,-923,4537,4557,145,443,-251,1,0,38,39,920,1,53298,1
2,30782,30529,31637,57962,28690,-4020,210,-2270,-2641,5834,5829,138,442,-260,1,0,38,39,960,1,53298,1
1,30768,30505,31617,57963,0,-4369,-76,-2590,-4950,6995,6713,130,444,-274,1,0,38,40,0,1,53298,1
2,30761,30499,31614,57964,28133,-4658,-62,-2779,-3604,8328,7280,125,439,-275,1,0,38,40,40,1,53298,1
2,30750,30500,31623,57965,28135,-4691,336,-2739,-1229,9113,6619,107,433,-293,1,0,38,40,80,1,53298,1
2,30748,30498,31623,57966,28137,-4407,393,-2502,-348,9643,5717,103,429,-299,1,0,38,40,120,1,53298,1
2,30741,30500,31618,57967,28138,-4027,414,-2509,-1595,9686,4791,106,420,-320,1,0,38,40,160,1,53298,1
2,30739,30466,31608,57968,28139,-3593,102,-2268,-2290,9676,4127,100,422,-324,1,0,38,40,200,1,53298,1
2,30721,30343,31609,57969,28141,-3313,-33,-2200,-1169,9381,3206,84,412,-328,1,0,38,40,240,1,53298,1
2,30678,30329,31608,57970,28143,-3012,-252,-2092,1454,8661,1609,85,413,-353,1,0,38,40,280,1,53298,1
2,30663,30246,31611,57971,28144,-2960,-644,-1780,4658,7742,-430,94,408,-364,1,0,38,40,320,1,53298,1
2,30641,30148,31619,57972,28145,-3050,-223,-1695,7128,5705,-2996,99,413,-367,1,0,38,40,360,1,53298,1
2,30630,30184,31637,57973,28146,-2915,-189,-1766,6415,2694,-5104,112,410,-382,1,0,38,40,400,1,53298,1
2,30606,30180,31661,57974,28148,-3017,287,-2063,4552,4,-6492,122,414,-384,1,0,38,40,440,1,53298,1
2,30595,30227,31690,57975,28149,-3007,575,-2195,3123,-2499,-6446,131,429,-381,1,0,38,40,480,1,53298,1
2,30603,30394,31748,57976,28151,-3166,566,-2592,570,-4614,-5835,141,429,-377,1,0,38,40,520,1,53298,1
2,30612,30455,31780,57977,28152,-3703,413,-3068,-1048,-5750,-5275,143,427,-363,1,0,38,40,560,1,53298,1
2,30625,30550,31821,57978,28153,-3897,454,-3130,519,-5854,-4917,147,433,-351,1,0,38,40,600,1,53298,1
2,30632,30560,31900,57979,28155,-3747,-360,-3169,2162,-5806,-4337,150,446,-354,1,0,38,40,640,1,53298,1
2,30625,30071,32052,57980,28157,-3749,-340,-3150,4456,-4916,-4390,164,436,-350,1,0,38,40,680,1,53298,1
2,30635,29819,32415,57981,28159,-3904,-135,-3147,5304,-4905,-4621,179,449,-345,1,0,38,40,720,1,53298,1
2,30622,32430,32612,57982,28162,-3595,-490,-2896,2668,-4962,-4443,180,442,-332,1,0,38,40,760,1,53298,1
2,30631,31646,32678,57983,28165,-3910,-560,-2187,-1438,-4542,-4329,186,448,-324,1,0,38,40,800,1,53298,1
2,30626,30514,32963,57984,28168,-3976,-874,-2067,-5792,-6635,-4787,188,446,-316,1,0,38,40,840,1,53298,1
2,30808,30034,33468,57985,28173,-3612,-555,-2845,-3988,-10191,-6640,198,452,-294,1,0,38,40,880,1,53298,1
2,30946,29890,33602,57986,28181,-3528,-72,-2776,-2354,-7703,-6988,217,459,-281,1,0,38,40,920,1,53298,1
2,31010,30001,33750,57987,28190,-3610,384,-2807,-3953,-4572,-4113,219,459,-271,1,0,38,40,960,1,53298,1
1,30974,30390,33974,57988,0,-4388,-70,-2395,-3859,-3381,-649,217,453,-271,1,0,38,41,0,1,53298,1
2,30974,30479,34076,57989,27634,-4078,-772,-1772,-1312,-3575,750,214,462,-256,1,0,38,41,40,1,53298,1
2,30955,30529,34011,57990,27643,-3889,-907,-2022,-1294,-3134,916,210,460,-262,1,0,38,41,80,1,53298,1
2,30951,30550,34005,57991,27651,-3799,-897,-2168,-1265,-1489,644,213,451,-257,1,0,38,41,120,1,53298,1
2,30945,30561,34131,57992,27658,-4147,-775,-1762,-149,308,515,211,465,-259,1,0,38,41,160,1,53298,1
2,30927,30562,34273,57993,27666,-4247,-701,-1663,1073,1107,538,203,453,-249,1,0,38,41,200,1,53298,1
2,30918,30534,34438,57994,27676,-4234,-781,-1771,1727,1156,479,204,468,-256,1,0,38,41,240,1,53298,1
2,30909,30571,34588,57995,27684,-4065,-740,-2001,1625,783,229,213,459,-259,1,0,38,41,280,1,53298,1
2,30843,30782,34601,57996,27695,-4017,-649,-1931,1202,710,74,207,461,-263,1,0,38,41,320,1,53298,1
2,30877,34368,34629,57997,27705,-4048,-675,-1876,384,381,71,215,463,-269,1,0,38,41,360,1,53298,1
2,30872,34372,34602,57998,27715,-4047,-774,-1918,-678,-59,-59,216,458,-272,1,0,38,41,400,1,53298,1
2,30870,34375,34595,57999,27724,-4070,-759,-1925,-845,-183,-163,219,459,-259,1,0,38,41,440,1,53298,1
2,30857,34379,34647,58000,27733,-4095,-737,-1860,-227,-82,-72,215,461,-263,1,0,38,41,480,1,53298,1
2,30847,34389,34718,58001,27743,-4091,-729,-1880,372,-26,72,213,469,-269,1,0,38,41,520,1,53298,1
2,30844,34385,34765,58002,27752,-4112,-707,-1873,340,-49,79,213,453,-257,1,0,38,41,560,1,53298,1
2,30836,34384,34781,58003,27762,-4079,-705,-1902,152,-110,99,211,465,-265,1,0,38,41,600,1,53298,1
2,30834,34390,34785,58004,27771,-4132,-671,-1851,39,-115,132,215,463,-265,1,0,38,41,640,1,53298,1
2,30841,34395,34759,58005,27781,-4135,-739,-1864,411,-287,378,219,459,-263,1,0,38,41,680,1,53298,1
2,30837,34394,34705,58006,27790,-4042,-746,-1881,-69,-439,349,215,463,-257,1,0,38,41,720,1,53298,1
2,30845,34395,34690,58007,27799,-4020,-697,-1919,-74,-514,408,207,461,-259,1,0,38,41,760,1,53298,1
2,30847,34394,34688,58008,27807,-4080,-738,-1858,4,-403,263,216,460,-258,1,0,38,41,800,1,53298,1
2,30856,34394,34697,58009,27815,-4120,-667,-1851,117,-303,87,214,456,-262,1,0,38,41,840,1,53298,1
2,30845,34393,34718,58010,27823,-4098,-690,-1830,398,-101,64,213,469,-255,1,0,38,41,880,1,53298,1
2,30840,34393,34721,58011,27832,-4178,-684,-1827,377,19,101,214,452,-262,1,0,38,41,920,1,53298,1
2,30843,34392,34683,58012,27840,-4069,-623,-1922,367,124,200,215,453,-257,1,0,38,41,960,1,53298,1
1,30848,34393,34652,58013,0,-4036,-585,-1906,374,455,479,208,456,-258,1,0,38,42,0,0,53298,1
2,30848,34389,34613,58014,27129,-4014,-668,-1885,240,654,597,219,453,-267,1,0,38,42,40,0,53298,1
2,30838,34383,34584,58015,27136,-4097,-581,-1945,319,858,455,201,467,-261,1,0,38,42,80,0,53298,1
2,30828,34379,34404,58016,27143,-4056,-277,-2160,373,1233,243,209,463,-269,1,0,38,42,120,0,53298,1
2,30827,34373,34151,58017,27150,-3888,-164,-2263,234,2331,994,203,455,-263,1,0,38,42,160,0,53298,1
2,30819,34364,33990,58018,27157,-3827,-281,-2346,704,3590,3126,202,460,-272,1,0,38,42,200,0,53298,1
2,30813,34365,33844,58019,27162,-3848,-232,-2775,1358,4509,4575,193,455,-285,1,0,38,42,240,0,53298,1
2,30840,34372,33653,58020,27166,-3881,49,-3348,2720,6175,5772,183,455,-295,1,0,38,42,280,0,53298,1
2,30827,34380,33181,58021,27169,-4108,555,-3369,4607,8496,7182,167,455,-311,1,0,38,42,320,0,53298,1
2,30862,34389,32283,58022,27172,-4093,263,-2903,-614,10633,7298,155,449,-313,1,0,38,42,360,0,53298,1
2,30918,34389,31849,58023,27174,-4061,176,-2675,-4864,9151,9316,146,438,-338,1,0,38,42,400,0,53298,1
2,30918,34388,31662,58024,27177,-3795,112,-2397,-2830,6363,9219,145,423,-341,1,0,38,42,440,0,53298,1
2,30903,34389,31648,58025,27180,-3585,-696,-2751,-1604,7716,7709,116,430,-354,1,0,38,42,480,0,53298,1
2,30887,34396,31643,58026,27183,-3723,234,-1317,-396,4474,6813,104,420,-358,1,0,38,42,520,0,53298,1
2,30892,34396,31615,58027,27186,-3462,70,-1402,-6091,1535,5802,102,412,-354,1,0,38,42,560,0,53298,1
2,30919,34398,31602,58028,27188,-3267,-420,-1726,-7231,-957,4182,102,414,-360,1,0,38,42,600,0,53298,1
2,30888,34387,31600,58029,27191,-2992,-157,-1645,-5750,-3050,2361,89,417,-333,1,0,38,42,640,0,53298,1
2,30864,34388,31597,58030,27193,-2972,328,-1895,-3922,-4258,681,97,421,-335,1,0,38,42,680,0,53298,1
2,30843,34381,31589,58031,27196,-3157,368,-2293,-1425,-5093,-870,90,420,-332,1,0,38,42,720,0,53298,1
2,30837,34378,31593,58032,27198,-3356,411,-2347,1291,-5661,-1978,101,427,-323,1,0,38,42,760,0,53298,1
2,30835,34377,31597,58033,27199,-3750,728,-2492,1444,-6407,-2847,99,419,-315,1,0,38,42,800,0,53298,1
2,30839,34376,31595,58034,27201,-3677,606,-2713,192,-7132,-3331,95,427,-311,1,0,38,42,840,0,53298,1
2,30836,34374,31590,58035,27203,-3678,145,-3008,2652,-6095,-3491,102,426,-302,1,0,38,42,880,0,53298,1
2,30828,34377,31603,58036,27206,-3827,240,-2603,6779,-4962,-3680,110,438,-292,1,0,38,42,920,0,53298,1
2,30808,34378,31609,58037,27207,-4079,465,-2325,5454,-4760,-4169,107,435,-287,1,0,38,42,960,0,53298,1
1,30811,34383,31608,58038,0,-4199,-59,-2081,2306,-5379,-4426,124,444,-288,1,0,38,43,0,1,53298,1
2,30826,34390,31614,58039,26619,-4550,-170,-1788,357,-5919,-4663,136,438,-278,1,0,38,43,40,1,53298,1
2,30819,34386,31603,58040,26621,-4660,-17,-1574,139,-7169,-5474,152,448,-272,1,0,38,43,80,1,53298,1
2,30828,34391,31613,58041,26623,-4716,-283,-1187,735,-8420,-5960,151,447,-255,1,0,38,43,120,1,53298,1
2,30822,34392,31613,58042,26625,-4771,198,-1382,845,-9406,-5840,161,449,-245,1,0,38,43,160,1,53298,1
2,30819,34393,31611,58043,26628,-4136,166,-1417,111,-9468,-5891,165,453,-227,1,0,38,43,200,1,53298,1
2,30829,34432,31631,58044,26631,-3924,30,-1620,-364,-8593,-4911,171,441,-215,1,0,38,43,240,1,53298,1
2,30817,34457,31642,58045,26633,-3594,634,-2138,45,-6726,-3762,181,443,-205,1,0,38,43,280,1,53298,1
2,30826,34481,31648,58046,26635,-3297,620,-2674,1317,-3950,-1977,178,440,-208,1,0,38,43,320,1,53298,1
2,30820,34490,31649,58047,26638,-4004,-71,-2762,1089,276,-213,174,442,-204,1,0,38,43,360,1,53298,1
2,30810,34490,31657,58048,26641,-4908,-865,-717,2940,1721,96,179,447,-207,1,0,38,43,400,1,53298,1
2,30795,34494,31669,58049,26644,-5209,-661,-32,2572,488,-189,177,451,-207,1,0,38,43,440,1,53298,1
2,30795,34487,31657,58050,26647,-4409,-364,-1199,-679,-161,36,178,450,-214,1,0,38,43,480,1,53298,1
2,30798,34485,31657,58051,26649,-4211,-574,-966,-183,-52,-7,184,440,-204,1,0,38,43,520,1,53298,1
2,30795,34488,31663,58052,26652,-4410,-582,-917,225,82,-120,178,446,-210,1,0,38,43,560,1,53298,1
2,30797,34490,31661,58053,26655,-4463,-564,-977,329,436,-133,179,451,-217,1,0,38,43,600,1,53298,1
2,30789,34489,31662,58054,26658,-4543,-457,-1118,508,473,-208,182,454,-212,1,0,38,43,640,1,53298,1
2,30793,34487,31667,58055,26663,-4325,-590,-946,526,444,-327,167,441,-197,1,0,38,43,680,1,53298,1
2,30791,34491,31659,58056,26668,-4355,-616,-988,774,481,-266,178,444,-210,1,0,38,43,720,1,53298,1
2,30794,34485,31657,58057,26671,-4483,-614,-1114,-13,210,-150,172,444,-218,1,0,38,43,760,1,53298,1
2,30785,34485,31660,58058,26675,-4414,-594,-1007,-77,16,-11,181,447,-211,1,0,38,43,800,1,53298,1
2,30786,34489,31661,58059,26679,-4393,-560,-1064,-111,-33,67,174,454,-208,1,0,38,43,840,1,53298,1
2,30787,34491,31666,58060,26682,-4435,-569,-1034,-198,-78,17,176,450,-208,1,0,38,43,880,1,53298,1
2,30782,34489,31660,58061,26686,-4379,-570,-1013,-128,-43,-54,174,438,-204,1,0,38,43,920,1,53298,1
2,30780,34485,31663,58062,26690,-4443,-545,-1051,1,85,-129,170,442,-210,1,0,38,43,960,1,53298,1
1,30784,34486,31660,58063,0,-4407,-585,-1025,204,251,-174,182,454,-206,1,0,38,44,0,1,53298,1
2,30779,34485,31663,58064,26115,-4411,-581,-1063,65,333,-235,176,444,-216,1,0,38,44,40,1,53298,1
2,30770,34485,31664,58065,26119,-4410,-579,-1089,86,346,-242,180,440,-214,1,0,38,44,80,1,53298,1
2,30780,34487,31665,58066,26123,-4378,-625,-1070,-19,269,-193,186,448,-216,1,0,38,44,120,1,53298,1
2,30780,34489,31663,58067,26126,-4411,-582,-1126,-140,142,-188,179,445,-219,1,0,38,44,160,1,53298,1
2,30774,34484,31668,58068,26129,-4436,-566,-1100,-83,117,-87,183,437,-213,1,0,38,44,200,1,53298,1
2,30759,34484,31662,58069,26133,-4286,-544,-1206,-18,320,89,183,447,-217,1,0,38,44,240,1,53298,1
2,30761,34476,31664,58070,26136,-4320,-577,-1131,-116,600,255,182,448,-208,1,0,38,44,280,1,53298,1
2,30766,34474,31667,58071,26139,-4444,-601,-1071,-559,538,261,183,445,-217,1,0,38,44,320,1,53298,1
2,30755,34474,31671,58072,26142,-4359,-602,-1282,-1568,393,-48,180,440,-220,1,0,38,44,360,1,53298,1
2,30759,34476,31684,58073,26144,-4299,-348,-1533,-1583,905,-425,190,442,-224,1,0,38,44,400,1,53298,1
2,30748,34465,31691,58074,26147,-4070,-83,-1667,1492,2410,707,179,451,-235,1,0,38,44,440,1,53298,1
2,30740,34446,31684,58075,26149,-3977,241,-1731,2087,3816,1997,171,441,-233,1,0,38,44,480,1,53298,1
2,30741,34435,31679,58076,26150,-4084,42,-1706,1315,4501,3240,168,454,-240,1,0,38,44,520,1,53298,1
2,30730,34408,31673,58077,26153,-4254,-183,-1411,726,4795,3845,166,448,-244,1,0,38,44,560,1,53298,1
2,30730,34395,31659,58078,26155,-4615,-706,-1143,-122,3989,3686,156,442,-250,1,0,38,44,600,1,53298,1
2,30734,34388,31657,58079,26157,-4695,-906,-1054,-514,2806,2959,157,443,-253,1,0,38,44,640,1,53298,1
2,30743,34380,31654,58080,26160,-4472,-698,-1358,-744,1514,2194,147,443,-247,1,0,38,44,680,1,53298,1
2,30732,34367,31642,58081,26162,-4220,-145,-1727,-856,930,1720,151,441,-259,1,0,38,44,720,1,53298,1
2,30728,34358,31632,58082,26164,-3869,284,-2061,-1746,1261,1894,150,450,-258,1,0,38,44,760,1,53298,1
2,30723,34357,31619,58083,26165,-3639,510,-2433,-3064,2445,2516,135,445,-265,1,0,38,44,800,1,53298,1
2,30723,34367,31613,58084,26167,-3717,472,-2725,-4561,4438,3658,142,446,-270,1,0,38,44,840,1,53298,1
2,30718,34378,31613,58085,26169,-3997,497,-2890,-3551,7163,5217,132,444,-282,1,0,38,44,880,1,53298,1
2,30708,34389,31621,58086,26170,-4565,469,-2847,-883,9313,6427,126,436,-282,1,0,38,44,920,1,53298,1
2,30709,34390,31620,58087,26171,-4583,330,-2615,-726,10057,6614,111,433,-309,1,0,38,44,960,1,53298,1
1,30694,34392,31614,58088,0,-4508,54,-2435,-2394,9865,6029,91,427,-311,1,0,38,45,0,0,53298,1
2,30684,34387,31605,58089,25610,-3926,154,-2514,-3653,8747,4979,98,424,-324,1,0,38,45,40,0,53298,1
2,30658,34377,31599,58090,25611,-3295,117,-2530,-3034,8272,3950,92,428,-328,1,0,38,45,80,0,53298,1
2,30612,34371,31592,58091,25613,-3085,73,-2408,-246,8797,2978,85,421,-341,1,0,38,45,120,0,53298,1
2,30487,34365,31591,58092,25615,-2965,0,-2279,2487,9074,1734,92,408,-360,1,0,38,45,160,0,53298,1
2,30455,34370,31594,58093,25617,-2949,-444,-1817,4631,8559,117,87,413,-377,1,0,38,45,200,0,53298,1
2,30552,34380,31608,58094,25618,-3145,-139,-1632,6397,6548,-2230,93,411,-387,1,0,38,45,240,0,53298,1
2,30495,34374,31623,58095,25619,-2955,10,-1802,6290,2667,-4270,102,410,-384,1,0,38,45,280,0,53298,1
2,30504,34377,31650,58096,25621,-2871,-4,-2330,3732,-398,-5749,109,417,-387,1,0,38,45,320,0,53298,1
2,30544,34375,31717,58097,25623,-2867,192,-2677,3073,-2147,-6318,132,416,-392,1,0,38,45,360,0,53298,1
