sensorStatus,cap1,cap2,cap3,counter,microseconds_since_last_tick,accX,accY,accZ,gyroX,gyroY,gyroZ,magnetX,magnetY,magnetZ,day,hour,min,sec,msec,sync,battery_fuel,crc_good
2,27954,30155,32027,84764,7164,-4550,-1585,-213,-18,-11,25,304,492,-152,1,0,56,32,40,0,53298,1
2,27914,30151,32026,84765,7177,-4530,-1576,-208,-11,-20,21,307,491,-153,1,0,56,32,80,0,53298,1
2,27919,30146,32022,84766,7189,-4540,-1574,-200,-19,-11,31,312,490,-140,1,0,56,32,120,0,53298,1
2,27922,30151,32025,84767,7202,-4540,-1584,-200,-10,-5,16,317,489,-149,1,0,56,32,160,0,53298,1
2,27915,30153,32025,84768,7213,-4543,-1580,-215,-18,-21,21,316,492,-150,1,0,56,32,200,0,53298,1
2,27939,30153,32028,84769,7226,-4538,-1585,-217,-2,-25,29,306,494,-146,1,0,56,32,240,0,53298,1
2,27942,30153,32021,84770,7238,-4545,-1590,-214,-2,-12,37,312,492,-146,1,0,56,32,280,0,53298,1
2,27945,30149,32023,84771,7250,-4536,-1576,-194,-10,-17,35,323,493,-157,1,0,56,32,320,0,53298,1
2,27934,30149,32026,84772,7261,-4524,-1580,-201,-15,-7,27,315,495,-151,1,0,56,32,360,0,53298,1
2,27930,30148,32025,84773,7273,-4543,-1579,-205,-13,-6,25,307,497,-149,1,0,56,32,400,0,53298,1
2,27950,30143,32026,84774,7285,-4539,-1582,-199,-14,-11,14,312,492,-148,1,0,56,32,440,0,53298,1
2,27968,30152,32030,84775,7296,-4550,-1590,-199,-13,-15,9,304,492,-144,1,0,56,32,480,0,53298,1
2,27949,30153,32024,84776,7307,-4548,-1595,-201,-10,-21,21,306,494,-142,1,0,56,32,520,0,53298,1
2,27949,30154,32028,84777,7319,-4551,-1590,-207,-14,-22,24,307,499,-137,1,0,56,32,560,0,53298,1
2,27962,30151,32025,84778,7330,-4531,-1578,-188,-7,-21,24,309,491,-141,1,0,56,32,600,0,53298,1
2,27959,30152,32030,84779,7342,-4538,-1580,-210,-10,-15,21,313,493,-153,1,0,56,32,640,0,53298,1
2,27952,30166,32024,84780,7355,-4541,-1587,-197,-10,-11,26,319,495,-149,1,0,56,32,680,0,53298,1
2,27948,30170,32028,84781,7367,-4544,-1581,-195,-9,-3,25,308,492,-162,1,0,56,32,720,0,53298,1
2,27945,30168,32022,84782,7379,-4543,-1582,-191,-13,-10,27,306,498,-148,1,0,56,32,760,0,53298,1
2,27949,30160,32028,84783,7391,-4522,-1567,-190,-18,-5,27,312,504,-150,1,0,56,32,800,0,53298,1
2,27949,30164,32028,84784,7403,-4551,-1591,-205,-20,-9,19,315,489,-145,1,0,56,32,840,0,53298,1
2,27944,30168,32028,84785,7415,-4539,-1575,-183,-7,2,29,303,497,-143,1,0,56,32,880,0,53298,1
2,27929,30162,32032,84786,7427,-4525,-1572,-188,-19,-5,13,317,497,-149,1,0,56,32,920,0,53298,1
2,27945,30164,32030,84787,7427,-4540,-1576,-191,-21,-11,17,317,501,-151,1,0,56,32,960,0,53298,1
1,27949,30168,32032,84788,6698,-4540,-1583,-201,-14,-12,23,307,493,-143,1,0,56,33,0,1,53298,1
2,27943,30164,32028,84789,6711,-4541,-1586,-205,-8,-15,28,309,489,-143,1,0,56,33,40,1,53298,1
2,27941,30163,32026,84790,6724,-4544,-1590,-200,-6,-20,27,312,486,-150,1,0,56,33,80,1,53298,1
2,27953,30163,32025,84791,6737,-4556,-1594,-199,-19,-17,21,311,493,-149,1,0,56,33,120,1,53298,1
2,27932,30155,32028,84792,6748,-4539,-1580,-195,-10,-17,14,304,500,-148,1,0,56,33,160,1,53298,1
2,27945,30162,32026,84793,6759,-4534,-1580,-210,-14,-23,16,313,493,-141,1,0,56,33,200,1,53298,1
2,27965,30159,32031,84794,6771,-4539,-1582,-214,-10,-27,23,314,490,-150,1,0,56,33,240,1,53298,1
2,27937,30165,32030,84795,6783,-4537,-1574,-204,-10,-39,32,307,497,-141,1,0,56,33,280,1,53298,1
2,27931,30159,32033,84796,6795,-4529,-1580,-204,-4,-28,26,311,485,-145,1,0,56,33,320,1,53298,1
2,27925,30160,32028,84797,6807,-4537,-1584,-189,-10,-11,29,320,490,-142,1,0,56,33,360,1,53298,1
2,27930,30156,32028,84798,6819,-4540,-1585,-209,-18,-8,30,319,493,-155,1,0,56,33,400,1,53298,1
2,27953,30152,32029,84799,6831,-4544,-1583,-189,-11,3,26,315,489,-147,1,0,56,33,440,1,53298,1
2,27954,30171,32031,84800,6841,-4535,-1581,-202,-16,-10,22,308,494,-150,1,0,56,33,480,1,53298,1
2,27938,30169,32025,84801,6853,-4536,-1576,-205,-17,-18,19,319,491,-151,1,0,56,33,520,1,53298,1
2,28141,30170,32027,84802,6864,-4542,-1581,-204,-13,-11,16,317,499,-147,1,0,56,33,560,1,53298,1
2,28070,30162,32026,84803,6875,-4547,-1582,-199,-5,-7,29,307,499,-145,1,0,56,33,600,1,53298,1
2,28136,30158,32030,84804,6887,-4540,-1586,-205,-10,-3,28,307,495,-145,1,0,56,33,640,1,53298,1
2,28116,30164,32026,84805,6899,-4537,-1581,-213,-19,-7,20,311,497,-151,1,0,56,33,680,1,53298,1
2,28106,30161,32026,84806,6911,-4544,-1590,-212,-6,-10,24,314,500,-156,1,0,56,33,720,1,53298,1
2,28116,30163,32030,84807,6924,-4516,-1568,-211,-8,-23,34,302,496,-140,1,0,56,33,760,1,53298,1
2,28086,30161,32030,84808,6936,-4531,-1575,-214,-12,-17,33,312,498,-150,1,0,56,33,800,1,53298,1
2,28144,30157,32029,84809,6948,-4536,-1573,-204,-13,-17,29,316,500,-154,1,0,56,33,840,1,53298,1
2,28149,30164,32027,84810,6960,-4532,-1591,-209,-11,-6,27,315,497,-147,1,0,56,33,880,1,53298,1
2,28138,30168,32027,84811,6971,-4534,-1584,-203,-13,-2,22,304,498,-128,1,0,56,33,920,1,53298,1
2,28122,30166,32031,84812,6971,-4548,-1582,-210,-12,-3,24,313,499,-153,1,0,56,33,960,1,53298,1
1,28103,30171,32025,84813,6244,-4538,-1588,-211,-9,-10,22,307,491,-139,1,0,56,34,0,0,53298,1
2,28136,30173,32026,84814,6257,-4536,-1580,-203,-15,-18,30,316,490,-150,1,0,56,34,40,0,53298,1
2,28126,30167,32027,84815,6269,-4544,-1579,-199,-16,-11,23,304,490,-154,1,0,56,34,80,0,53298,1
2,28097,30166,32031,84816,6281,-4538,-1583,-208,-13,-14,27,319,497,-155,1,0,56,34,120,0,53298,1
2,27943,30168,32025,84817,6293,-4534,-1574,-205,-16,-21,25,317,495,-145,1,0,56,34,160,0,53298,1
2,28140,30160,32028,84818,6306,-4539,-1582,-196,-14,-26,28,310,490,-146,1,0,56,34,200,0,53298,1
2,28108,30158,32029,84819,6318,-4545,-1587,-201,-13,-10,23,310,492,-140,1,0,56,34,240,0,53298,1
2,28137,30161,32026,84820,6331,-4552,-1591,-215,-11,-20,31,311,491,-149,1,0,56,34,280,0,53298,1
2,28126,30167,32026,84821,6343,-4534,-1580,-198,-11,-13,22,312,484,-148,1,0,56,34,320,0,53298,1
2,28124,30164,32026,84822,6355,-4531,-1581,-198,-12,-6,32,310,490,-154,1,0,56,34,360,0,53298,1
2,28131,30158,32027,84823,6368,-4549,-1581,-193,-17,-9,25,310,484,-152,1,0,56,34,400,0,53298,1
2,27944,30161,32022,84824,6380,-4532,-1589,-214,-22,-11,17,316,490,-156,1,0,56,34,440,0,53298,1
2,27939,30158,32029,84825,6392,-4530,-1579,-208,-11,-18,20,307,491,-155,1,0,56,34,480,0,53298,1
2,27945,30160,32028,84826,6404,-4519,-1576,-194,-10,-22,26,318,496,-154,1,0,56,34,520,0,53298,1
2,27944,30163,32030,84827,6416,-4545,-1585,-200,-13,-1,37,312,494,-148,1,0,56,34,560,0,53298,1
2,28118,30160,32029,84828,6429,-4541,-1582,-205,-7,1,30,306,492,-142,1,0,56,34,600,0,53298,1
2,27931,30161,32027,84829,6443,-4543,-1588,-206,-6,-6,29,303,499,-139,1,0,56,34,640,0,53298,1
2,27917,30159,32026,84830,6454,-4545,-1594,-209,-9,-7,19,312,496,-144,1,0,56,34,680,0,53298,1
2,27927,30159,32024,84831,6466,-4543,-1575,-199,-13,-28,20,308,486,-142,1,0,56,34,720,0,53298,1
2,27942,30158,32025,84832,6479,-4539,-1597,-206,-7,-28,21,308,496,-146,1,0,56,34,760,0,53298,1
2,27935,30159,32028,84833,6491,-4542,-1581,-198,-2,-18,40,310,498,-148,1,0,56,34,800,0,53298,1
2,27930,30162,32025,84834,6504,-4532,-1585,-206,-8,-13,34,312,496,-144,1,0,56,34,840,0,53298,1
2,27931,30164,32027,84835,6517,-4549,-1589,-201,-10,-3,23,308,488,-152,1,0,56,34,880,0,53298,1
2,27946,30167,32026,84836,6529,-4539,-1585,-211,-14,-5,27,308,492,-144,1,0,56,34,920,0,53298,1
2,27933,30165,32025,84837,6529,-4543,-1591,-202,-11,-16,29,306,500,-148,1,0,56,34,960,0,53298,1
1,27939,30164,32028,84838,5791,-4536,-1578,-194,-7,-19,26,312,488,-148,1,0,56,35,0,0,53298,1
2,27936,30164,32027,84839,5803,-4528,-1583,-196,-18,-9,30,312,490,-136,1,0,56,35,40,0,53298,1
2,27934,30160,32024,84840,5815,-4556,-1594,-207,-14,3,25,312,490,-146,1,0,56,35,80,0,53298,1
2,27945,30164,32028,84841,5828,-4543,-1579,-203,-22,-3,19,311,495,-157,1,0,56,35,120,0,53298,1
2,28114,30160,32023,84842,5840,-4539,-1599,-201,-11,-21,21,313,497,-143,1,0,56,35,160,0,53298,1
2,28110,30162,32026,84843,5853,-4545,-1598,-199,-10,-27,23,308,496,-150,1,0,56,35,200,0,53298,1
2,28115,30160,32025,84844,5865,-4519,-1571,-196,-12,-25,31,315,493,-143,1,0,56,35,240,0,53298,1
2,28095,30158,32027,84845,5878,-4533,-1588,-203,-13,-16,24,297,495,-143,1,0,56,35,280,0,53298,1
2,28112,30161,32022,84846,5891,-4546,-1584,-201,-12,-4,31,315,493,-143,1,0,56,35,320,0,53298,1
2,27934,30161,32026,84847,5903,-4533,-1579,-215,-17,-10,28,316,494,-148,1,0,56,35,360,0,53298,1
2,27926,30161,32025,84848,5917,-4539,-1579,-211,-16,-7,20,314,496,-150,1,0,56,35,400,0,53298,1
2,27920,30159,32027,84849,5930,-4537,-1579,-204,-14,-14,22,305,491,-153,1,0,56,35,440,0,53298,1
2,27933,30164,32029,84850,5943,-4529,-1578,-193,-5,-16,29,306,500,-140,1,0,56,35,480,0,53298,1
2,28122,30158,32029,84851,5956,-4530,-1583,-202,-16,-24,31,311,495,-145,1,0,56,35,520,0,53298,1
2,28109,30156,32026,84852,5968,-4539,-1582,-199,-13,-7,26,319,489,-143,1,0,56,35,560,0,53298,1
2,28115,30158,32025,84853,5981,-4535,-1581,-211,-18,-12,22,319,499,-155,1,0,56,35,600,0,53298,1
2,28113,30159,32025,84854,5993,-4541,-1589,-201,-15,-9,27,317,495,-143,1,0,56,35,640,0,53298,1
2,28121,30157,32025,84855,6006,-4547,-1585,-211,-9,-10,22,303,491,-149,1,0,56,35,680,0,53298,1
2,28063,30155,32025,84856,6019,-4547,-1585,-196,-12,-1,20,310,484,-144,1,0,56,35,720,0,53298,1
2,28129,30158,32024,84857,6031,-4545,-1591,-193,-11,4,24,315,501,-153,1,0,56,35,760,0,53298,1
2,28126,30157,32027,84858,6044,-4530,-1583,-204,-23,-7,28,305,489,-147,1,0,56,35,800,0,53298,1
2,28107,30164,32022,84859,6055,-4540,-1591,-192,-11,-15,25,315,489,-149,1,0,56,35,840,0,53298,1
2,28107,30161,32026,84860,6068,-4550,-1588,-200,-5,-19,31,310,502,-142,1,0,56,35,880,0,53298,1
2,28106,30160,32028,84861,6081,-4542,-1580,-200,-11,-9,34,310,490,-154,1,0,56,35,920,0,53298,1
2,27942,30158,32024,84862,6081,-4550,-1595,-204,-15,-2,25,311,497,-147,1,0,56,35,960,0,53298,1
1,27935,30150,32025,84863,5337,-4536,-1572,-207,-21,2,28,310,500,-150,1,0,56,36,0,0,53298,1
2,28005,30152,32025,84864,5349,-4538,-1582,-210,-7,-10,24,310,498,-148,1,0,56,36,40,0,53298,1
2,28110,30153,32031,84865,5361,-4542,-1575,-200,-13,-12,29,306,490,-150,1,0,56,36,80,0,53298,1
2,27898,30158,32029,84866,5373,-4534,-1578,-203,-9,-23,31,317,501,-151,1,0,56,36,120,0,53298,1
2,27879,30161,32029,84867,5384,-4542,-1584,-204,-5,-29,35,322,496,-146,1,0,56,36,160,0,53298,1
2,27891,30155,32031,84868,5396,-4549,-1589,-206,-5,-24,33,318,494,-154,1,0,56,36,200,0,53298,1
2,27905,30163,32027,84869,5408,-4535,-1577,-192,-14,-25,27,313,495,-147,1,0,56,36,240,0,53298,1
2,27902,30167,32030,84870,5420,-4551,-1585,-202,-10,-16,18,316,488,-146,1,0,56,36,280,0,53298,1
2,27886,30162,32027,84871,5432,-4553,-1595,-198,-20,-14,20,313,491,-147,1,0,56,36,320,0,53298,1
2,27907,30165,32027,84872,5445,-4547,-1582,-199,-14,-8,25,304,496,-148,1,0,56,36,360,0,53298,1
2,27914,30157,32027,84873,5457,-4544,-1583,-194,-16,-7,21,314,492,-146,1,0,56,36,400,0,53298,1
2,27918,30161,32027,84874,5469,-4544,-1585,-204,-17,-8,28,318,492,-148,1,0,56,36,440,0,53298,1
2,27917,30160,32032,84875,5481,-4560,-1595,-207,-8,-5,26,316,494,-152,1,0,56,36,480,0,53298,1
2,27895,30160,32026,84876,5492,-4552,-1582,-220,-15,-15,32,311,487,-149,1,0,56,36,520,0,53298,1
2,27901,30162,32030,84877,5504,-4549,-1580,-201,-6,-19,32,317,497,-149,1,0,56,36,560,0,53298,1
2,27903,30163,32027,84878,5515,-4533,-1590,-198,-10,-11,22,309,491,-145,1,0,56,36,600,0,53298,1
2,27923,30161,32029,84879,5526,-4534,-1581,-202,-18,-17,28,316,498,-144,1,0,56,36,640,0,53298,1
2,27919,30162,32026,84880,5538,-4534,-1575,-200,-17,-8,25,306,496,-148,1,0,56,36,680,0,53298,1
2,27892,30160,32028,84881,5549,-4539,-1584,-206,-9,-7,24,310,494,-148,1,0,56,36,720,0,53298,1
2,27905,30163,32027,84882,5561,-4535,-1578,-191,-18,-14,16,312,494,-154,1,0,56,36,760,0,53298,1
2,27917,30160,32025,84883,5572,-4526,-1584,-205,-13,-25,14,315,495,-145,1,0,56,36,800,0,53298,1
2,27905,30162,32027,84884,5583,-4543,-1582,-210,-7,-34,34,320,496,-150,1,0,56,36,840,0,53298,1
2,27883,30168,32027,84885,5593,-4531,-1578,-197,-8,-28,29,312,494,-152,1,0,56,36,880,0,53298,1
2,27881,30160,32025,84886,5605,-4532,-1574,-198,-8,-18,31,314,488,-138,1,0,56,36,920,0,53298,1
2,27894,30163,32023,84887,5605,-4539,-1584,-191,-18,-10,24,309,505,-151,1,0,56,36,960,0,53298,1
1,27906,30167,32030,84888,4883,-4527,-1578,-206,-22,-2,17,306,484,-148,1,0,56,37,0,0,53298,1
2,27897,30167,32030,84889,4894,-4544,-1585,-208,-16,-9,19,314,490,-156,1,0,56,37,40,0,53298,1
2,27915,30167,32031,84890,4906,-4546,-1593,-194,-17,-17,16,305,495,-139,1,0,56,37,80,0,53298,1
2,27902,30165,32026,84891,4917,-4538,-1590,-193,-16,-21,23,316,492,-148,1,0,56,37,120,0,53298,1
2,27892,30166,32031,84892,4928,-4550,-1589,-206,-15,-20,23,315,495,-149,1,0,56,37,160,0,53298,1
2,27892,30168,32033,84893,4938,-4521,-1574,-204,-20,-21,13,318,488,-146,1,0,56,37,200,0,53298,1
2,27875,30162,32034,84894,4950,-4538,-1585,-207,-7,-26,13,310,496,-160,1,0,56,37,240,0,53298,1
2,27883,30159,32030,84895,4961,-4526,-1586,-210,-7,-30,18,311,495,-143,1,0,56,37,280,0,53298,1
2,27884,30165,32032,84896,4972,-4537,-1572,-202,-6,-25,20,311,493,-143,1,0,56,37,320,0,53298,1
2,27870,30165,32029,84897,4983,-4543,-1589,-200,-7,-26,19,316,488,-150,1,0,56,37,360,0,53298,1
2,27880,30163,32031,84898,4995,-4535,-1592,-199,-8,-16,24,300,486,-144,1,0,56,37,400,0,53298,1
2,27879,30165,32029,84899,5006,-4544,-1587,-206,-13,-9,27,307,497,-141,1,0,56,37,440,0,53298,1
2,27881,30168,32030,84900,5017,-4535,-1579,-208,-13,-11,19,306,486,-148,1,0,56,37,480,0,53298,1
2,27888,30163,32032,84901,5028,-4539,-1593,-198,-1,-10,23,312,496,-154,1,0,56,37,520,0,53298,1
2,27871,30159,32031,84902,5039,-4534,-1585,-210,-5,-11,24,312,492,-150,1,0,56,37,560,0,53298,1
2,27893,30160,32030,84903,5050,-4526,-1579,-199,1,-19,36,316,488,-148,1,0,56,37,600,0,53298,1
2,27910,30164,32027,84904,5061,-4540,-1580,-206,-3,-19,43,310,492,-150,1,0,56,37,640,0,53298,1
2,27901,30153,32032,84905,5072,-4541,-1572,-197,2,-9,34,310,494,-154,1,0,56,37,680,0,53298,1
2,27890,30151,32028,84906,5085,-4531,-1576,-211,-3,-16,32,315,499,-139,1,0,56,37,720,0,53298,1
2,27882,30155,32027,84907,5096,-4536,-1582,-200,21,-27,41,308,496,-154,1,0,56,37,760,0,53298,1
2,27899,30155,32031,84908,5107,-4520,-1579,-200,35,-39,27,313,491,-141,1,0,56,37,800,0,53298,1
2,27908,30160,32027,84909,5120,-4540,-1582,-210,-3,-44,55,315,495,-153,1,0,56,37,840,0,53298,1
2,27906,30161,32030,84910,5132,-4532,-1581,-209,31,-46,56,317,497,-147,1,0,56,37,880,0,53298,1
2,27918,30157,32031,84911,5144,-4545,-1588,-194,12,-43,39,304,486,-140,1,0,56,37,920,0,53298,1
2,27906,30166,32023,84912,5144,-4585,-1573,-208,107,-18,69,304,502,-146,1,0,56,37,960,0,53298,1
1,27908,30179,32022,84913,4430,-4566,-1600,-252,434,15,284,302,496,-148,1,0,56,38,0,1,53298,1
2,27938,30826,31978,84914,4442,-4671,-1490,-408,969,123,579,307,499,-153,1,0,56,38,40,1,53298,1
2,28130,32875,31968,84915,4454,-4686,-1562,-589,1769,543,912,303,499,-155,1,0,56,38,80,1,53298,1
2,28607,30774,31965,84916,4466,-4608,-1410,-512,3678,1595,1344,290,502,-140,1,0,56,38,120,1,53298,1
2,28702,30743,31955,84917,4479,-4614,-753,-431,5634,2512,1836,292,506,-148,1,0,56,38,160,1,53298,1
2,28748,30816,31948,84918,4492,-4683,-370,-716,4709,3075,3226,285,511,-163,1,0,56,38,200,1,53298,1
2,28713,30155,31958,84919,4504,-4789,-720,-1064,788,3560,4564,262,522,-160,1,0,56,38,240,1,53298,1
2,28734,30305,31952,84920,4517,-4726,-743,-1314,508,4655,5530,253,527,-175,1,0,56,38,280,1,53298,1
2,28718,30285,31945,84921,4529,-4563,-915,-1571,587,6135,6238,232,538,-196,1,0,56,38,320,1,53298,1
2,28705,30237,31937,84922,4542,-4351,-1282,-1717,1609,8169,6273,215,543,-205,1,0,56,38,360,1,53298,1
2,28652,30155,31925,84923,4556,-4335,-1822,-1548,4321,10486,5692,205,547,-239,1,0,56,38,400,1,53298,1
2,28531,30231,31925,84924,4569,-4533,-2448,-1129,7376,12424,3783,210,558,-276,1,0,56,38,440,1,53298,1
2,28515,30279,31908,84925,4583,-4729,-2606,-569,8980,12707,293,217,561,-293,1,0,56,38,480,1,53298,1
2,28588,30521,31894,84926,4596,-4721,-2736,17,7973,10648,-3992,241,567,-311,1,0,56,38,520,1,53298,1
2,28482,30818,31879,84927,4609,-4748,-2780,-15,5011,6881,-7926,281,557,-327,1,0,56,38,560,1,53298,1
2,28396,31198,31891,84928,4623,-4794,-2904,-495,3381,2617,-11186,325,543,-331,1,0,56,38,600,1,53298,1
2,28367,31779,31905,84929,4636,-4832,-2435,-640,4335,-1144,-13715,383,517,-305,1,0,56,38,640,1,53298,1
2,28267,31680,31923,84930,4649,-4900,-2023,-815,2797,-4335,-15288,414,484,-298,1,0,56,38,680,1,53298,1
2,27849,30133,31949,84931,4662,-4758,-1330,-1095,1021,-6927,-15077,449,445,-277,1,0,56,38,720,1,53298,1
2,31513,30499,32050,84932,4674,-4592,-1934,-1071,-116,-9048,-13429,463,421,-251,1,0,56,38,760,1,53298,1
2,31455,30276,32184,84933,4689,-4021,-1354,-1317,370,-10196,-11868,480,376,-220,1,0,56,38,800,1,53298,1
2,31335,30205,32050,84934,4706,-5113,-2378,-2123,11279,-13203,-10941,471,361,-185,1,0,56,38,840,1,53298,1
2,32455,30853,32643,84935,4723,-2971,-3780,234,5636,-11091,-5184,472,340,-162,1,0,56,38,880,1,53298,1
2,32569,30958,34430,84936,4739,-3938,-3481,-839,10171,-8029,-7029,475,307,-129,1,0,56,38,920,1,53298,1
2,32832,31479,33699,84937,4739,-3743,-2332,-1202,13105,-9908,-8839,462,288,-118,1,0,56,38,960,1,53298,1
1,33032,31064,33817,84938,3977,-3276,-2729,-368,3610,-10188,-5515,465,283,-115,1,0,56,39,0,0,53298,1
2,33757,31464,34434,84939,3993,-4066,-3953,-1869,1210,-2803,763,462,274,-102,1,0,56,39,40,0,53298,1
2,33602,31657,34667,84940,4010,-3710,-2371,-492,7529,-1301,-2490,465,279,-97,1,0,56,39,80,0,53298,1
2,32476,31495,34148,84941,4027,-3441,-3012,612,2134,-3329,1717,458,288,-80,1,0,56,39,120,0,53298,1
2,33238,31271,34915,84942,4045,-3709,-5834,66,1185,-8898,3765,455,275,-71,1,0,56,39,160,0,53298,1
2,32047,30838,33730,84943,4063,-3787,-3778,891,3895,-4225,-1218,456,276,-76,1,0,56,39,200,0,53298,1
2,32024,30882,33835,84944,4081,-3320,-3479,1110,1169,-944,-380,451,269,-69,1,0,56,39,240,0,53298,1
2,31339,30769,33683,84945,4101,-3265,-3063,709,1896,-1773,741,449,275,-57,1,0,56,39,280,0,53298,1
2,31816,30375,34211,84946,4122,-3498,-3038,1015,4218,-3891,955,443,265,-39,1,0,56,39,320,0,53298,1
2,33675,31112,36567,84947,4144,-3665,-3338,1007,4021,-6051,1292,433,273,-29,1,0,56,39,360,0,53298,1
2,34887,33884,37053,84948,4165,-3588,-3425,1259,2441,-5358,426,443,271,-21,1,0,56,39,400,0,53298,1
2,32423,30760,34178,84949,4188,-3558,-3378,1395,2336,-4135,-12,428,262,-14,1,0,56,39,440,0,53298,1
2,31127,32397,36638,84950,4211,-3914,-3388,1737,3662,-3458,-246,433,267,-3,1,0,56,39,480,0,53298,1
2,34944,31553,35554,84951,4234,-3699,-3657,1289,3241,-1101,91,419,259,5,1,0,56,39,520,0,53298,1
2,34455,33226,36484,84952,4259,-3551,-3426,1386,1642,337,-986,425,257,11,1,0,56,39,560,0,53298,1
2,33530,34595,35210,84953,4284,-3391,-3228,1555,1113,805,-1235,422,268,2,1,0,56,39,600,0,53298,1
2,31202,33937,33945,84954,4309,-3216,-3236,1617,1203,884,-1006,410,266,26,1,0,56,39,640,0,53298,1
2,31085,29911,33823,84955,4333,-3129,-3351,1631,1144,947,-683,417,269,15,1,0,56,39,680,0,53298,1
2,31108,30692,33834,84956,4356,-3207,-3428,1545,875,962,-587,422,272,12,1,0,56,39,720,0,53298,1
2,31080,30219,33810,84957,4379,-3304,-3410,1493,734,863,-538,415,265,13,1,0,56,39,760,0,53298,1
2,31160,30269,33852,84958,4402,-3349,-3392,1511,651,698,-572,423,263,17,1,0,56,39,800,0,53298,1
2,31686,34510,34155,84959,4425,-3357,-3356,1514,603,530,-548,416,270,14,1,0,56,39,840,0,53298,1
2,33625,31989,36061,84960,4448,-3316,-3336,1511,551,388,-444,420,274,12,1,0,56,39,880,0,53298,1
2,32904,31129,35080,84961,4469,-3306,-3371,1503,475,285,-349,417,277,33,1,0,56,39,920,0,53298,1
2,34239,31516,36169,84962,4469,-3333,-3422,1490,339,207,-248,424,276,14,1,0,56,39,960,0,53298,1
1,33780,31327,36767,84963,3525,-3344,-3394,1489,220,164,-215,415,271,15,1,0,56,40,0,1,53298,1
2,32594,30887,35101,84964,3546,-3323,-3351,1510,112,112,-107,423,281,19,1,0,56,40,40,1,53298,1
2,33720,32666,36626,84965,3568,-3328,-3359,1515,39,55,50,421,277,27,1,0,56,40,80,1,53298,1
2,33154,33145,35835,84966,3590,-3321,-3356,1506,-9,-41,153,422,272,14,1,0,56,40,120,1,53298,1
2,33702,32645,35820,84967,3613,-3337,-3366,1513,-8,-128,187,414,274,28,1,0,56,40,160,1,53298,1
2,34345,35140,36343,84968,3635,-3331,-3346,1518,7,-203,195,422,270,22,1,0,56,40,200,1,53298,1
2,32163,35115,34652,84969,3656,-3332,-3331,1525,-23,-257,226,420,280,26,1,0,56,40,240,1,53298,1
2,32032,35039,34564,84970,3677,-3334,-3333,1531,-50,-322,286,423,277,27,1,0,56,40,280,1,53298,1
2,32457,35468,34871,84971,3697,-3339,-3345,1538,-76,-351,320,424,282,30,1,0,56,40,320,1,53298,1
2,33420,36896,36151,84972,3718,-3327,-3342,1532,-107,-362,308,410,268,24,1,0,56,40,360,1,53298,1
2,36994,38780,38769,84973,3738,-3339,-3319,1556,-90,-301,253,422,270,30,1,0,56,40,400,1,53298,1
2,35945,37490,36835,84974,3760,-3338,-3303,1557,-76,-264,223,415,273,33,1,0,56,40,440,1,53298,1
2,33439,36499,35701,84975,3781,-3318,-3330,1566,-50,-238,213,427,285,25,1,0,56,40,480,1,53298,1
2,33773,36640,36002,84976,3802,-3318,-3324,1554,-22,-213,174,415,271,31,1,0,56,40,520,1,53298,1
2,34518,37444,37452,84977,3823,-3336,-3306,1558,44,-211,173,423,279,27,1,0,56,40,560,1,53298,1
2,38911,41501,40978,84978,3844,-3334,-3291,1564,19,-173,143,421,277,27,1,0,56,40,600,1,53298,1
2,38319,41111,40719,84979,3865,-3333,-3298,1559,-16,-133,129,421,287,15,1,0,56,40,640,1,53298,1
2,35417,38785,37706,84980,3885,-3333,-3303,1579,-3,-71,89,413,277,21,1,0,56,40,680,1,53298,1
2,34821,35423,37144,84981,3906,-3335,-3310,1551,11,-18,17,420,268,24,1,0,56,40,720,1,53298,1
2,32469,33134,35160,84982,3926,-3345,-3311,1569,17,21,-4,411,277,29,1,0,56,40,760,1,53298,1
2,31868,31949,34476,84983,3948,-3332,-3322,1568,23,39,-18,422,276,34,1,0,56,40,800,1,53298,1
2,31632,31739,34322,84984,3969,-3334,-3313,1562,40,46,-46,416,272,28,1,0,56,40,840,1,53298,1
2,31480,30920,34198,84985,3990,-3336,-3313,1558,45,34,-56,420,276,32,1,0,56,40,880,1,53298,1
2,31371,31333,34138,84986,4010,-3338,-3293,1563,32,43,-53,416,276,24,1,0,56,40,920,1,53298,1
2,31305,30610,34089,84987,4010,-3341,-3302,1559,37,42,-49,418,276,22,1,0,56,40,960,1,53298,1
1,31262,30883,34070,84988,3071,-3324,-3321,1578,26,35,-28,419,275,25,1,0,56,41,0,1,53298,1
2,31216,34113,34048,84989,3092,-3338,-3291,1564,19,22,-3,420,272,30,1,0,56,41,40,1,53298,1
2,31192,34110,34027,84990,3113,-3337,-3309,1563,2,3,-16,419,275,35,1,0,56,41,80,1,53298,1
2,31180,33890,34011,84991,3134,-3324,-3312,1543,20,-3,-246,421,273,23,1,0,56,41,120,1,53298,1
2,31196,34116,34034,84992,3155,-3330,-3327,1560,3,-8,251,424,274,22,1,0,56,41,160,1,53298,1
2,31171,33946,34014,84993,3175,-3333,-3315,1546,25,-17,-248,417,271,29,1,0,56,41,200,1,53298,1
2,31166,34138,34021,84994,3196,-3320,-3305,1552,58,-26,36,421,279,29,1,0,56,41,240,1,53298,1
2,31178,34195,34019,84995,3217,-3329,-3317,1573,17,-45,22,418,272,28,1,0,56,41,280,1,53298,1
2,31164,34138,34021,84996,3237,-3342,-3294,1567,-7,-36,247,415,273,19,1,0,56,41,320,1,53298,1
2,31200,34150,34029,84997,3258,-3349,-3305,1562,10,-9,-20,411,277,13,1,0,56,41,360,1,53298,1
2,31221,34180,34049,84998,3279,-3330,-3305,1567,24,5,-20,413,271,31,1,0,56,41,400,1,53298,1
2,31227,34180,34070,84999,3300,-3332,-3314,1567,-14,-9,20,423,271,27,1,0,56,41,440,1,53298,1
2,31255,34234,34085,85000,3321,-3331,-3312,1563,13,-14,0,419,277,29,1,0,56,41,480,1,53298,1
2,31274,34235,34109,85001,3342,-3329,-3302,1549,25,-19,-7,415,275,29,1,0,56,41,520,1,53298,1
2,31314,34233,34127,85002,3363,-3336,-3302,1574,14,-21,-6,417,273,31,1,0,56,41,560,1,53298,1
2,31369,34318,34169,85003,3384,-3348,-3311,1570,15,-23,5,418,274,26,1,0,56,41,600,1,53298,1
2,31419,34362,34226,85004,3405,-3335,-3319,1575,0,-15,10,423,273,27,1,0,56,41,640,1,53298,1
2,31529,34434,34283,85005,3426,-3335,-3308,1561,13,3,-11,416,274,24,1,0,56,41,680,1,53298,1
2,31680,34656,34415,85006,3446,-3312,-3301,1570,11,-1,-4,430,268,30,1,0,56,41,720,1,53298,1
2,31854,34851,34587,85007,3466,-3328,-3300,1573,5,0,-12,413,275,19,1,0,56,41,760,1,53298,1
2,32562,35463,35095,85008,3486,-3337,-3282,1565,-15,-12,8,416,272,30,1,0,56,41,800,1,53298,1
2,33523,35964,36189,85009,3506,-3329,-3309,1582,2,-21,30,414,274,40,1,0,56,41,840,1,53298,1
2,34335,37510,36760,85010,3526,-3325,-3293,1545,18,-8,-7,420,268,38,1,0,56,41,880,1,53298,1
2,34235,37652,36659,85011,3547,-3342,-3300,1578,29,-20,-5,421,283,31,1,0,56,41,920,1,53298,1
2,34790,38086,37208,85012,3547,-3341,-3309,1567,27,-25,4,412,282,26,1,0,56,41,960,1,53298,1
1,34642,37865,37038,85013,2617,-3324,-3309,1574,15,1,-6,429,275,31,1,0,56,42,0,1,53298,1
2,34524,37446,36814,85014,2637,-3336,-3310,1562,7,250,2,422,282,26,1,0,56,42,40,1,53298,1
2,34207,37184,36651,85015,2657,-3325,-3297,1561,-6,-9,14,428,282,24,1,0,56,42,80,1,53298,1
2,33799,36712,36277,85016,2677,-3344,-3308,1566,-18,-11,14,426,272,32,1,0,56,42,120,1,53298,1
2,33487,36446,35958,85017,2697,-3330,-3310,1574,-14,-15,-3,419,277,21,1,0,56,42,160,1,53298,1
2,33210,36208,35720,85018,2717,-3340,-3314,1558,19,-10,-2,415,271,37,1,0,56,42,200,1,53298,1
2,33079,35759,35650,85019,2737,-3334,-3298,1577,9,-4,18,424,274,38,1,0,56,42,240,1,53298,1
2,32971,34359,35462,85020,2757,-3325,-3310,1571,-11,-9,12,421,275,29,1,0,56,42,280,1,53298,1
2,33049,36011,35579,85021,2777,-3335,-3326,1577,0,-10,0,412,274,28,1,0,56,42,320,1,53298,1
2,33302,36326,35780,85022,2796,-3344,-3299,1560,10,-10,11,413,275,31,1,0,56,42,360,1,53298,1
2,33167,36251,35674,85023,2816,-3336,-3303,1585,-4,-4,10,421,273,23,1,0,56,42,400,1,53298,1
2,33164,36102,35660,85024,2836,-3320,-3298,1556,-4,-5,7,413,279,31,1,0,56,42,440,1,53298,1
2,32870,35864,35384,85025,2856,-3340,-3323,1559,-5,-7,-1,419,279,27,1,0,56,42,480,1,53298,1
2,32707,35697,35275,85026,2876,-3334,-3291,1576,5,-16,24,420,276,34,1,0,56,42,520,1,53298,1
2,32711,35605,35225,85027,2895,-3337,-3305,1581,-21,-16,-4,420,276,24,1,0,56,42,560,1,53298,1
2,32806,35784,35348,85028,2915,-3326,-3302,1564,-4,-7,-8,417,267,27,1,0,56,42,600,1,53298,1
2,32965,35918,35524,85029,2934,-3319,-3276,1566,26,-25,-1,409,279,25,1,0,56,42,640,1,53298,1
2,33075,36015,35636,85030,2954,-3350,-3294,1567,23,-20,21,416,274,34,1,0,56,42,680,1,53298,1
2,32335,35324,34966,85031,2973,-3316,-3312,1575,-4,-16,7,426,272,28,1,0,56,42,720,1,53298,1
2,31818,34974,34664,85032,2992,-3331,-3300,1555,-11,-11,10,424,276,28,1,0,56,42,760,1,53298,1
2,31735,34854,34566,85033,3012,-3353,-3296,1573,-8,-11,8,416,278,24,1,0,56,42,800,1,53298,1
2,31715,34850,34582,85034,3031,-3339,-3303,1564,11,2,34,412,272,24,1,0,56,42,840,1,53298,1
2,31690,34854,34583,85035,3051,-3328,-3294,1582,-12,-15,37,426,278,32,1,0,56,42,880,1,53298,1
2,31727,34887,34590,85036,3070,-3331,-3300,1564,-28,-25,252,421,281,33,1,0,56,42,920,1,53298,1
2,31700,34849,34608,85037,3070,-3331,-3297,1565,10,-3,-14,418,272,22,1,0,56,42,960,1,53298,1
1,31659,34779,34600,85038,2162,-3329,-3290,1560,7,2,-7,425,275,31,1,0,56,43,0,1,53298,1
2,31625,33763,34554,85039,2181,-3329,-3302,1563,253,4,2,414,272,34,1,0,56,43,40,1,53298,1
2,31646,32317,34566,85040,2200,-3332,-3308,1572,-32,11,5,419,277,35,1,0,56,43,80,1,53298,1
2,31628,31641,34562,85041,2219,-3337,-3287,1576,-46,12,6,416,274,32,1,0,56,43,120,1,53298,1
2,31650,31536,34567,85042,2238,-3323,-3297,1579,-2,14,2,419,271,27,1,0,56,43,160,1,53298,1
2,31658,31260,34563,85043,2257,-3325,-3305,1560,-237,0,-1,420,276,32,1,0,56,43,200,1,53298,1
2,31660,31409,34519,85044,2274,-3323,-3299,1584,52,1,-10,419,269,25,1,0,56,43,240,1,53298,1
2,31691,31602,34529,85045,2293,-3340,-3309,1572,11,-18,11,420,286,28,1,0,56,43,280,1,53298,1
2,31701,31343,34554,85046,2311,-3348,-3285,1566,243,-6,25,418,274,30,1,0,56,43,320,1,53298,1
2,31696,31659,34558,85047,2329,-3335,-3309,1577,-13,-19,38,421,267,29,1,0,56,43,360,1,53298,1
2,31715,31662,34504,85048,2348,-3359,-3323,1585,-87,13,110,425,273,33,1,0,56,43,400,1,53298,1
2,31742,30919,34241,85049,2367,-3530,-3348,1545,-565,456,76,414,278,26,1,0,56,43,440,1,53298,1
2,31664,31459,33982,85050,2385,-3575,-3657,1436,-1364,1907,357,419,277,21,1,0,56,43,480,1,53298,1
2,34708,33017,35397,85051,2402,-3687,-4104,1655,-2450,7152,3709,416,284,8,1,0,56,43,520,1,53298,1
2,32200,32701,34198,85052,2418,-3337,-2299,57,-2208,26151,15044,433,327,-41,1,0,56,43,560,1,53298,1
2,33392,31660,34039,85053,2432,-7483,468,-1335,-29852,24660,9880,461,357,-135,1,0,56,43,600,1,53298,1
2,33065,32000,33099,85054,2445,-1922,-3455,-2195,-31881,5931,18307,446,414,-170,1,0,56,43,640,1,53298,1
2,33261,33648,33608,85055,2458,-5094,-644,466,-5881,4174,18334,397,473,-183,1,0,56,43,680,1,53298,1
2,32860,33783,33560,85056,2470,-4731,-1982,686,-4651,1497,16711,359,499,-181,1,0,56,43,720,1,53298,1
2,30985,30629,31917,85057,2483,-4712,-3135,1294,-2326,-3030,13325,328,504,-190,1,0,56,43,760,1,53298,1
2,30945,30453,31855,85058,2495,-4501,-3676,1302,-5526,-7065,8946,295,499,-173,1,0,56,43,800,1,53298,1
2,30990,30411,31843,85059,2507,-4163,-3287,679,-6952,-9455,4560,279,491,-155,1,0,56,43,840,1,53298,1
2,31011,30290,31930,85060,2519,-4075,-3207,-223,-8071,-9397,892,273,477,-143,1,0,56,43,880,1,53298,1
2,30932,30025,31800,85061,2531,-3954,-2287,-612,-5385,-8532,-1455,278,482,-140,1,0,56,43,920,1,53298,1
2,30925,29872,31817,85062,2531,-3931,-1602,-571,-2584,-7271,-2067,282,466,-120,1,0,56,43,960,1,53298,1
1,30970,29974,31865,85063,1707,-4253,-1275,-416,-142,-6135,-2299,286,472,-108,1,0,56,44,0,1,53298,1
2,30971,30015,31828,85064,1718,-4553,-1216,-416,-1391,-5061,-2167,277,469,-99,1,0,56,44,40,1,53298,1
2,31033,30478,32070,85065,1730,-3308,-3073,979,-7576,-648,1222,296,468,-110,1,0,56,44,80,1,53298,1
2,31253,31968,32114,85066,1742,-5292,-1494,-304,-1046,-143,-485,287,459,-109,1,0,56,44,120,1,53298,1
2,31386,30368,32225,85067,1754,-4885,-1615,-233,1826,855,-841,292,464,-112,1,0,56,44,160,1,53298,1
2,31169,30112,32088,85068,1765,-4554,-1365,554,1775,801,-754,295,459,-105,1,0,56,44,200,1,53298,1
2,31358,30154,32206,85069,1777,-4288,-1516,702,926,710,-459,290,468,-106,1,0,56,44,240,1,53298,1
2,31474,30241,32316,85070,1789,-4726,-1316,406,119,441,-198,288,464,-108,1,0,56,44,280,1,53298,1
2,31117,30094,32123,85071,1801,-5203,-1410,210,26,170,-295,290,468,-112,1,0,56,44,320,1,53298,1
2,30923,30049,32058,85072,1814,-4512,-1661,242,368,110,-255,295,475,-103,1,0,56,44,360,1,53298,1
2,30728,30042,32069,85073,1826,-4387,-1589,395,101,124,-134,295,465,-111,1,0,56,44,400,1,53298,1
2,30588,30010,32058,85074,1838,-4579,-1558,316,179,-33,-108,291,463,-115,1,0,56,44,440,1,53298,1
2,30463,29990,32041,85075,1851,-4633,-1543,307,168,-89,-130,293,465,-111,1,0,56,44,480,1,53298,1
2,30410,30001,32046,85076,1863,-4508,-1572,353,113,-13,-75,292,470,-112,1,0,56,44,520,1,53298,1
2,30599,30015,32062,85077,1875,-4507,-1582,347,101,69,-9,290,466,-120,1,0,56,44,560,1,53298,1
2,30795,30021,32062,85078,1887,-4552,-1574,350,59,101,14,293,469,-115,1,0,56,44,600,1,53298,1
2,31007,30016,32082,85079,1898,-4537,-1558,342,-9,120,13,292,466,-110,1,0,56,44,640,1,53298,1
2,31325,30006,32088,85080,1910,-4524,-1568,315,-8,74,25,289,465,-115,1,0,56,44,680,1,53298,1
2,31395,30016,32103,85081,1921,-4546,-1573,320,14,-38,2,298,470,-114,1,0,56,44,720,1,53298,1
2,31444,30022,32107,85082,1932,-4546,-1574,318,37,-112,9,289,465,-111,1,0,56,44,760,1,53298,1
2,31432,30020,32046,85083,1943,-4524,-1577,330,49,-157,46,294,466,-122,1,0,56,44,800,1,53298,1
2,31445,30014,32063,85084,1955,-4530,-1567,344,60,-141,76,283,463,-109,1,0,56,44,840,1,53298,1
2,31470,30038,32073,85085,1967,-4538,-1586,335,61,-94,91,296,470,-118,1,0,56,44,880,1,53298,1
2,31494,30061,32101,85086,1978,-4540,-1567,358,17,-32,73,283,461,-107,1,0,56,44,920,1,53298,1
2,31506,30069,32096,85087,1978,-4548,-1574,355,-21,22,48,291,459,-109,1,0,56,44,960,1,53298,1
1,31527,30121,32115,85088,1253,-4543,-1554,349,-33,34,13,288,466,-110,1,0,56,45,0,0,53298,1
2,31525,30180,32120,85089,1264,-4530,-1554,336,-36,28,-8,297,467,-113,1,0,56,45,40,0,53298,1
2,31546,30126,32128,85090,1276,-4529,-1552,314,-36,-4,3,298,468,-112,1,0,56,45,80,0,53298,1
2,31549,30165,32124,85091,1288,-4539,-1578,356,-8,-31,25,295,463,-93,1,0,56,45,120,0,53298,1
2,31551,30178,32122,85092,1299,-4528,-1570,335,-1,-47,39,293,465,-113,1,0,56,45,160,0,53298,1
2,31554,30186,32125,85093,1311,-4526,-1563,343,12,-41,50,286,468,-114,1,0,56,45,200,0,53298,1
2,31542,30141,32116,85094,1323,-4536,-1577,347,-4,-21,47,295,467,-117,1,0,56,45,240,0,53298,1
2,31557,30103,32137,85095,1335,-4523,-1563,343,-13,7,29,298,476,-114,1,0,56,45,280,0,53298,1
2,31555,30154,32127,85096,1346,-4534,-1555,338,-31,26,24,293,467,-107,1,0,56,45,320,0,53298,1
2,31537,30117,32110,85097,1358,-4532,-1571,336,-31,49,22,296,456,-122,1,0,56,45,360,0,53298,1
2,31547,30058,32115,85098,1369,-4540,-1578,340,-28,44,17,297,469,-111,1,0,56,45,400,0,53298,1
2,31554,30063,32117,85099,1381,-4539,-1567,328,-39,38,9,291,467,-115,1,0,56,45,440,0,53298,1
2,31544,30096,32115,85100,1392,-4525,-1564,326,-31,16,4,291,465,-103,1,0,56,45,480,0,53298,1
2,31547,30141,32109,85101,1404,-4550,-1575,334,-23,-3,15,296,472,-112,1,0,56,45,520,0,53298,1
2,31548,30167,32113,85102,1415,-4541,-1585,316,-4,-25,34,282,470,-102,1,0,56,45,560,0,53298,1
2,31549,30208,32095,85103,1427,-4534,-1566,352,-10,-30,36,294,466,-98,1,0,56,45,600,0,53298,1
2,31526,30262,32090,85104,1438,-4535,-1567,339,-9,-30,31,297,463,-111,1,0,56,45,640,0,53298,1
2,31498,30186,32063,85105,1450,-4530,-1554,339,-10,-15,38,295,459,-113,1,0,56,45,680,0,53298,1
2,31499,30260,32067,85106,1461,-4532,-1568,339,-26,7,30,294,470,-118,1,0,56,45,720,0,53298,1
2,31499,30184,32054,85107,1474,-4530,-1559,345,-40,18,11,285,455,-109,1,0,56,45,760,0,53298,1
2,31500,30235,32060,85108,1486,-4521,-1555,332,-36,27,2,292,462,-110,1,0,56,45,800,0,53298,1
2,31489,30307,32053,85109,1499,-4538,-1575,344,-43,35,12,289,463,-105,1,0,56,45,840,0,53298,1
2,31480,30336,32036,85110,1511,-4539,-1575,320,-31,20,20,283,457,-115,1,0,56,45,880,0,53298,1
2,31475,30361,32028,85111,1523,-4542,-1573,329,-18,4,28,292,466,-116,1,0,56,45,920,0,53298,1
2,31462,30397,32021,85112,1523,-4541,-1578,335,-13,-10,31,293,465,-115,1,0,56,45,960,0,53298,1
1,31457,30386,32018,85113,800,-4536,-1573,343,-1,-15,36,286,458,-110,1,0,56,46,0,0,53298,1
2,31457,30379,32006,85114,812,-4536,-1559,332,-9,-25,45,303,461,-123,1,0,56,46,40,0,53298,1
2,31446,30463,32005,85115,824,-4528,-1577,329,-4,-33,43,294,464,-116,1,0,56,46,80,0,53298,1
2,31439,30356,32001,85116,835,-4543,-1560,335,9,-6,38,299,471,-109,1,0,56,46,120,0,53298,1
2,31440,30369,31994,85117,847,-4539,-1570,331,-28,10,21,292,462,-114,1,0,56,46,160,0,53298,1
2,31435,30362,31993,85118,859,-4544,-1571,328,-29,4,17,296,460,-116,1,0,56,46,200,0,53298,1
2,31441,30463,31996,85119,871,-4526,-1559,337,-3,10,27,291,463,-111,1,0,56,46,240,0,53298,1
2,31440,30532,31994,85120,883,-4531,-1580,325,-16,9,37,289,467,-105,1,0,56,46,280,0,53298,1
2,31441,30682,31994,85121,896,-4547,-1572,320,-33,-13,40,294,470,-106,1,0,56,46,320,0,53298,1
2,31458,30397,32009,85122,908,-4529,-1566,334,-13,-20,27,299,461,-105,1,0,56,46,360,0,53298,1
2,31483,30420,32032,85123,920,-4531,-1575,330,-13,-24,23,288,474,-112,1,0,56,46,400,0,53298,1
2,31490,30345,32044,85124,932,-4540,-1555,330,-26,-15,19,300,458,-112,1,0,56,46,440,0,53298,1
2,31500,30259,32066,85125,943,-4529,-1568,324,-26,-2,12,299,469,-113,1,0,56,46,480,0,53298,1
2,31525,30272,32081,85126,956,-4531,-1583,335,-23,-3,21,296,466,-116,1,0,56,46,520,0,53298,1
2,31524,30366,32078,85127,969,-4551,-1568,320,1,16,24,294,462,-114,1,0,56,46,560,0,53298,1
2,31508,30379,32066,85128,981,-4533,-1594,339,153,75,38,298,460,-114,1,0,56,46,600,0,53298,1
2,31504,30299,32052,85129,993,-4595,-1752,191,394,108,178,289,469,-121,1,0,56,46,640,0,53298,1
2,31490,29990,32043,85130,1005,-4791,-1450,-37,655,88,599,291,471,-113,1,0,56,46,680,0,53298,1
2,31508,30440,32042,85131,1018,-5163,-1528,-71,1538,711,910,287,465,-111,1,0,56,46,720,0,53298,1
2,31471,32977,31992,85132,1032,-4221,-1283,-216,3652,1862,1837,283,471,-109,1,0,56,46,760,0,53298,1
2,31664,31683,32204,85133,1047,-3956,240,-425,1102,2761,5020,277,479,-123,1,0,56,46,800,0,53298,1
2,31685,32739,32228,85134,1062,-4698,253,-909,-534,3617,7439,259,491,-113,1,0,56,46,840,0,53298,1
2,31577,31439,32110,85135,1076,-4967,-1001,-708,2504,4942,8188,231,503,-125,1,0,56,46,880,0,53298,1
2,31455,32694,32051,85136,1090,-5115,-802,-447,3031,5899,7411,229,491,-119,1,0,56,46,920,0,53298,1
2,31434,31958,32019,85137,1090,-5039,-1528,-602,2100,7040,5870,201,505,-137,1,0,56,46,960,0,53298,1
1,31381,33460,31939,85138,347,-4297,-1350,-862,1835,8753,4242,196,526,-154,1,0,56,47,0,0,53298,1
2,31450,33064,31945,85139,360,-4178,-1201,-859,2062,10890,2942,182,524,-168,1,0,56,47,40,0,53298,1
2,31313,31976,31908,85140,372,-4498,-1517,-542,3529,12129,1533,177,547,-193,1,0,56,47,80,0,53298,1
2,31322,32254,31886,85141,385,-4585,-2225,-209,4791,11856,-713,178,556,-232,1,0,56,47,120,0,53298,1
2,31310,32216,31864,85142,397,-4836,-2954,-104,5017,10064,-3975,187,565,-257,1,0,56,47,160,0,53298,1
2,31334,31793,31881,85143,410,-4776,-2812,-54,5790,6547,-7900,208,574,-286,1,0,56,47,200,0,53298,1
2,31377,31970,31918,85144,423,-4697,-2129,110,5864,3173,-11044,250,582,-298,1,0,56,47,240,0,53298,1
2,31410,32131,31938,85145,436,-4873,-1998,293,3885,-739,-12585,306,572,-304,1,0,56,47,280,0,53298,1
2,31465,32062,31981,85146,450,-4921,-1896,246,-406,-4984,-12968,355,573,-287,1,0,56,47,320,0,53298,1
2,31698,32454,32207,85147,464,-5017,-1636,-545,-1726,-8292,-12188,398,558,-274,1,0,56,47,360,0,53298,1
2,31944,33911,32383,85148,480,-5080,-1522,-686,1098,-10365,-11318,427,531,-243,1,0,56,47,400,0,53298,1
2,31761,32517,32171,85149,497,-4988,907,-1389,-1259,-11252,-9762,472,488,-218,1,0,56,47,440,0,53298,1
2,31721,31691,32124,85150,513,-5821,-1820,-2425,-5929,-9656,-7408,488,450,-206,1,0,56,47,480,0,53298,1
2,31290,33117,32502,85151,530,-5548,-2997,-925,1101,-7058,-6994,493,427,-197,1,0,56,47,520,0,53298,1
2,31914,31885,33289,85152,549,-3670,-1793,-1356,12878,-7112,-9125,496,392,-164,1,0,56,47,560,0,53298,1
2,32118,31664,32905,85153,568,-5167,-3140,87,-312,-5220,-3723,487,373,-159,1,0,56,47,600,0,53298,1
2,31525,30707,32746,85154,587,-4078,-4160,523,183,-4951,-7048,494,348,-154,1,0,56,47,640,0,53298,1
2,31584,30838,32220,85155,607,-3989,-2404,-187,1369,-5886,-4242,488,330,-144,1,0,56,47,680,0,53298,1
2,31466,30218,32247,85156,628,-3872,-2870,150,9720,-6756,-5413,483,305,-131,1,0,56,47,720,0,53298,1
2,31322,29933,31962,85157,649,-3792,-2788,-406,8028,-9494,-7231,486,288,-110,1,0,56,47,760,0,53298,1
2,30492,29968,31981,85158,670,-2777,-2639,-503,1821,-6428,-5395,475,267,-119,1,0,56,47,800,0,53298,1
2,30535,30265,32185,85159,690,-3451,-1728,-538,3686,-619,-364,474,260,-102,1,0,56,47,840,0,53298,1
2,30624,30136,32142,85160,708,-4475,-3735,902,5599,2188,921,484,276,-84,1,0,56,47,880,0,53298,1
2,30617,29783,32160,85161,732,-3617,-4392,1418,482,2295,-2644,474,280,-68,1,0,56,47,920,0,53298,1
2,30391,30437,32018,85162,732,-3325,-3312,811,-820,1520,-2570,484,282,-66,1,0,56,47,960,0,53298,1
1,31179,30379,32170,85163,0,-4678,-3162,730,1790,1027,-401,487,281,-63,1,0,56,48,0,0,53298,1
2,31260,30330,32207,85164,39919,-3654,-3563,793,2986,38,892,481,283,-61,1,0,56,48,40,0,53298,1
2,31201,30461,32244,85165,39943,-3700,-3427,627,1545,168,295,484,278,-52,1,0,56,48,80,0,53298,1
2,31187,30072,32259,85166,39966,-3557,-3545,666,429,709,-1120,485,287,-57,1,0,56,48,120,0,53298,1
2,31085,30436,32295,85167,39990,-3516,-3460,675,415,552,-871,483,281,-55,1,0,56,48,160,0,53298,1
1,30978,30500,32313,85168,12,-3491,-3426,778,746,543,-532,487,283,-45,1,0,56,48,200,0,53298,1
1,30993,30457,32322,85169,37,-3553,-3449,757,866,473,-314,478,282,-44,1,0,56,48,240,0,53298,1
1,30981,30434,32302,85170,62,-3552,-3508,720,923,292,-207,486,284,-44,1,0,56,48,280,0,53298,1
1,30971,30428,32310,85171,87,-3522,-3455,725,730,403,-337,483,279,-41,1,0,56,48,320,0,53298,1
1,30958,30429,32317,85172,113,-3496,-3462,790,619,523,-428,480,278,-42,1,0,56,48,360,0,53298,1
1,30912,30423,32338,85173,139,-3493,-3466,780,523,536,-378,477,275,-35,1,0,56,48,400,0,53298,1
1,30929,30427,32354,85174,164,-3524,-3483,735,513,483,-237,477,281,-35,1,0,56,48,440,0,53298,1
1,30958,30328,32368,85175,191,-3526,-3475,752,467,408,-131,477,277,-37,1,0,56,48,480,0,53298,1
1,30930,30334,32385,85176,216,-3518,-3469,749,315,339,-117,471,277,-37,1,0,56,48,520,0,53298,1
3,30963,30344,32380,85177,242,-3517,-3480,760,178,298,-118,474,278,-40,1,0,56,48,560,0,53298,1
3,30956,30285,32371,85178,267,-3513,-3469,750,126,244,-90,483,273,-33,1,0,56,48,600,0,53298,1
0,30984,30336,32365,85179,292,-3513,-3469,750,126,244,-90,471,285,-29,1,0,56,48,640,0,53298,1
2,30958,30346,32344,85180,316,-3524,-3478,732,147,141,-31,475,285,-33,1,0,56,48,680,0,53298,1
2,30920,30273,32241,85181,341,-3518,-3485,746,126,93,-19,485,279,-35,1,0,56,48,720,0,53298,1
2,30922,30267,32219,85182,365,-3508,-3454,745,76,46,9,473,285,-31,1,0,56,48,760,0,53298,1
2,30924,30265,32226,85183,391,-3515,-3473,736,38,3,36,479,283,-29,1,0,56,48,800,0,53298,1
2,30902,30267,32198,85184,416,-3508,-3468,762,21,-52,58,478,284,-32,1,0,56,48,840,0,53298,1
2,30866,30281,32162,85185,440,-3506,-3471,743,67,-56,56,470,280,-24,1,0,56,48,880,0,53298,1
2,30856,30241,32164,85186,465,-3517,-3469,751,67,-48,49,478,284,-38,1,0,56,48,920,0,53298,1
2,30845,30225,32146,85187,465,-3510,-3466,749,14,-52,55,474,278,-36,1,0,56,48,960,0,53298,1
1,30875,30247,32146,85188,0,-3505,-3456,755,-13,-49,54,473,281,-23,1,0,56,49,0,0,53298,1
2,30847,30238,32176,85189,39466,-3505,-3458,757,-5,-34,65,480,282,-28,1,0,56,49,40,0,53298,1
2,30825,30265,32189,85190,39490,-3514,-3454,767,-10,-33,68,482,276,-28,1,0,56,49,80,0,53298,1
2,30844,30277,32209,85191,39514,-3514,-3461,764,6,-31,66,477,281,-27,1,0,56,49,120,0,53298,1
2,30976,30338,32322,85192,39539,-3517,-3463,761,4,-20,54,468,272,-28,1,0,56,49,160,0,53298,1
2,30941,30255,32362,85193,39563,-3515,-3458,747,10,-3,21,465,285,-37,1,0,56,49,200,0,53298,1
2,30928,30295,32363,85194,39587,-3503,-3453,752,11,-4,7,480,284,-28,1,0,56,49,240,0,53298,1
2,30905,30238,32372,85195,39611,-3494,-3463,765,-4,0,14,474,276,-38,1,0,56,49,280,0,53298,1
2,30890,30022,32369,85196,39635,-3505,-3456,760,-11,-11,13,476,288,-34,1,0,56,49,320,0,53298,1
2,30884,29861,32363,85197,39659,-3511,-3448,766,5,-32,14,471,283,-31,1,0,56,49,360,0,53298,1
2,30886,29840,32366,85198,39683,-3527,-3462,759,4,-35,-3,481,281,-29,1,0,56,49,400,0,53298,1
2,30865,29825,32360,85199,39707,-3526,-3469,761,0,-19,4,474,280,-28,1,0,56,49,440,0,53298,1
2,30904,29843,32362,85200,39731,-3507,-3452,769,2,-9,-5,474,286,-10,1,0,56,49,480,0,53298,1
2,30894,29770,32362,85201,39756,-3506,-3457,764,17,-10,1,476,284,-28,1,0,56,49,520,0,53298,1
2,30892,29752,32370,85202,39780,-3506,-3459,772,53,-12,5,475,287,-25,1,0,56,49,560,0,53298,1
2,30876,29716,32357,85203,39804,-3511,-3459,771,30,-14,14,469,281,-31,1,0,56,49,600,0,53298,1
2,30829,29789,32348,85204,39828,-3512,-3463,758,-6,-6,6,476,278,-34,1,0,56,49,640,0,53298,1
2,30808,29727,32342,85205,39852,-3510,-3451,767,-24,-14,7,464,280,-20,1,0,56,49,680,0,53298,1
2,30832,29833,32337,85206,39877,-3510,-3462,762,-8,-15,5,470,284,-40,1,0,56,49,720,0,53298,1
2,30812,30078,32326,85207,39901,-3511,-3454,749,-9,-19,2,472,276,-34,1,0,56,49,760,0,53298,1
2,30788,30106,32320,85208,39926,-3504,-3448,762,-6,-19,-5,483,281,-21,1,0,56,49,800,0,53298,1
2,30780,30140,32313,85209,39951,-3515,-3456,770,-4,-16,2,473,279,-23,1,0,56,49,840,0,53298,1
2,30777,30289,32307,85210,39975,-3513,-3461,754,6,-10,4,469,279,-35,1,0,56,49,880,0,53298,1
1,30787,30603,32295,85211,39999,-3511,-3466,758,4,-5,6,473,279,-27,1,0,56,49,920,0,53298,1
1,30796,30656,32299,85212,23,-3498,-3436,772,7,-20,4,475,285,-33,1,0,56,49,960,0,53298,1
1,30605,30632,32300,85213,0,-3503,-3440,768,-14,-19,6,481,279,-27,1,0,56,50,0,0,53298,1
2,30628,30686,32298,85214,39007,-3509,-3454,766,-11,-18,1,480,284,-26,1,0,56,50,40,0,53298,1
2,30593,30836,32302,85215,39032,-3521,-3466,780,-4,-14,-2,477,279,-33,1,0,56,50,80,0,53298,1
2,30555,31230,32300,85216,39057,-3504,-3451,766,-6,-4,-4,474,284,-28,1,0,56,50,120,0,53298,1
2,30586,31109,32297,85217,39082,-3515,-3457,764,-2,-8,-7,470,280,-18,1,0,56,50,160,0,53298,1
2,30574,31412,32294,85218,39107,-3503,-3444,776,16,-28,-16,480,280,-30,1,0,56,50,200,0,53298,1
2,30557,31016,32298,85219,39132,-3501,-3450,785,24,-27,-16,474,278,-28,1,0,56,50,240,0,53298,1
2,30540,30946,32302,85220,39157,-3504,-3453,760,30,-31,-17,478,278,-28,1,0,56,50,280,0,53298,1
2,30525,31102,32306,85221,39182,-3526,-3460,776,-2,-29,-33,470,290,-26,1,0,56,50,320,0,53298,1
2,30514,31302,32312,85222,39208,-3505,-3457,780,-3,-37,-29,475,283,-25,1,0,56,50,360,0,53298,1
2,30545,31197,32313,85223,39234,-3499,-3448,772,-11,-32,-28,475,285,-35,1,0,56,50,400,0,53298,1
2,30522,31172,32306,85224,39261,-3507,-3460,792,-14,-42,-16,475,285,-29,1,0,56,50,440,0,53298,1
2,30538,31278,32318,85225,39287,-3500,-3468,779,-31,-39,12,474,280,-22,1,0,56,50,480,0,53298,1
2,30493,31307,32317,85226,39314,-3498,-3458,779,-55,-32,25,473,283,-27,1,0,56,50,520,0,53298,1
2,30488,31600,32311,85227,39340,-3544,-3469,754,-83,-47,32,478,290,-28,1,0,56,50,560,0,53298,1
2,30487,31700,32322,85228,39365,-3573,-3471,746,-162,-73,6,466,280,-20,1,0,56,50,600,0,53298,1
2,30483,31353,32314,85229,39390,-3577,-3536,702,-427,-17,-89,469,277,-17,1,0,56,50,640,0,53298,1
2,30387,30900,32269,85230,39415,-3761,-3659,512,-856,135,-63,478,282,-40,1,0,56,50,680,0,53298,1
2,30566,29786,32171,85231,39438,-4082,-3349,496,-1138,205,-252,477,283,-33,1,0,56,50,720,0,53298,1
2,30965,30482,32049,85232,39460,-3723,-3266,837,-1015,633,1307,474,286,-44,1,0,56,50,760,0,53298,1
2,30890,29872,31879,85233,39479,-3542,-1521,-448,-5144,1554,5871,476,300,-64,1,0,56,50,800,0,53298,1
2,30671,29915,31589,85234,39498,-5746,-731,-1107,-22502,2910,13829,487,331,-107,1,0,56,50,840,0,53298,1
2,30673,30033,31232,85235,39513,-1929,-2847,-1152,-24069,10505,6540,483,355,-165,1,0,56,50,880,0,53298,1
2,30405,29978,31177,85236,39527,-4901,-1721,-316,-9773,4573,16540,474,406,-178,1,0,56,50,920,0,53298,1
2,30396,30040,31215,85237,39540,-5120,-2214,73,-5392,3712,19181,436,458,-186,1,0,56,50,960,0,53298,1
1,30368,30017,31204,85238,0,-4952,-2790,826,-2349,1419,18796,381,501,-187,1,0,56,51,0,0,53298,1
2,30325,30012,31238,85239,38537,-4839,-4087,1155,-3245,-1855,15970,342,518,-176,1,0,56,51,40,0,53298,1
2,30314,30011,31293,85240,38551,-4508,-4327,901,-2206,-5173,11381,304,522,-166,1,0,56,51,80,0,53298,1
2,30242,29990,31212,85241,38565,-4231,-3685,667,-79,-7650,6159,289,523,-143,1,0,56,51,120,0,53298,1
2,30270,29899,31193,85242,38578,-4103,-2623,184,1492,-8966,2119,279,491,-125,1,0,56,51,160,0,53298,1
2,30305,29914,31221,85243,38591,-4250,-1837,-50,2511,-8935,-315,277,485,-115,1,0,56,51,200,0,53298,1
2,30346,29895,31225,85244,38604,-4365,-1391,-229,3315,-8186,-1678,277,471,-109,1,0,56,51,240,0,53298,1
2,30347,29808,31244,85245,38618,-4525,-1064,-300,3943,-6952,-2004,273,463,-99,1,0,56,51,280,0,53298,1
2,30335,29737,31256,85246,38632,-4496,-1165,-321,3446,-5550,-1916,268,454,-88,1,0,56,51,320,0,53298,1
2,30376,29710,31250,85247,38647,-4610,-1115,-267,3370,-3918,-2092,270,464,-84,1,0,56,51,360,0,53298,1
2,30386,29728,31269,85248,38661,-4768,-1392,476,3314,-2449,-1780,268,458,-74,1,0,56,51,400,0,53298,1
2,30388,29739,31295,85249,38674,-5573,-1091,599,1442,158,-151,259,457,-79,1,0,56,51,440,0,53298,1
2,30382,29906,31319,85250,38687,-4783,-1408,698,-365,111,-396,264,466,-80,1,0,56,51,480,0,53298,1
2,30328,29994,31316,85251,38700,-4485,-1271,734,386,137,-349,269,461,-79,1,0,56,51,520,0,53298,1
2,30270,29943,31255,85252,38712,-4200,-1664,790,659,159,-291,260,450,-80,1,0,56,51,560,0,53298,1
2,30267,29756,31255,85253,38724,-4396,-1495,671,606,653,-168,262,464,-88,1,0,56,51,600,0,53298,1
2,30235,30042,31263,85254,38737,-4637,-1338,681,808,836,-48,270,462,-82,1,0,56,51,640,0,53298,1
2,30252,30616,31268,85255,38750,-4679,-1404,625,508,616,-27,272,458,-92,1,0,56,51,680,0,53298,1
2,30262,30565,31253,85256,38762,-4581,-1415,632,448,458,-64,265,459,-81,1,0,56,51,720,0,53298,1
2,30246,30438,31246,85257,38774,-4504,-1384,690,395,395,-165,271,467,-85,1,0,56,51,760,0,53298,1
2,30228,30087,31244,85258,38785,-4518,-1414,665,189,380,-207,254,456,-86,1,0,56,51,800,0,53298,1
2,30259,30116,31227,85259,38798,-4535,-1445,625,36,332,-242,257,455,-83,1,0,56,51,840,0,53298,1
2,30236,29889,31235,85260,38810,-4526,-1446,622,-28,251,-237,264,458,-90,1,0,56,51,880,0,53298,1
2,30262,30099,31241,85261,38823,-4515,-1455,628,-52,156,-148,257,453,-79,1,0,56,51,920,0,53298,1
2,30265,30133,31237,85262,38836,-4515,-1464,618,-3,70,-33,270,460,-90,1,0,56,51,960,0,53298,1
1,30257,30145,31218,85263,0,-4523,-1449,607,36,-41,61,259,457,-81,1,0,56,52,0,0,53298,1
2,30258,29800,31234,85264,38079,-4520,-1442,623,88,-138,119,257,459,-81,1,0,56,52,40,0,53298,1
2,30235,30228,31243,85265,38093,-4512,-1444,636,94,-188,129,271,463,-89,1,0,56,52,80,0,53298,1
2,30231,29993,31250,85266,38106,-4515,-1436,640,73,-177,129,260,460,-80,1,0,56,52,120,0,53298,1
2,30245,30054,31272,85267,38119,-4524,-1436,645,51,-167,115,264,456,-86,1,0,56,52,160,0,53298,1
2,30250,30055,31307,85268,38132,-4525,-1434,646,34,-186,106,263,451,-83,1,0,56,52,200,0,53298,1
2,30322,30210,31436,85269,38145,-4512,-1426,656,41,-211,95,260,454,-84,1,0,56,52,240,0,53298,1
2,30400,30079,31535,85270,38158,-4524,-1441,641,41,-240,102,259,463,-75,1,0,56,52,280,0,53298,1
2,30540,30141,31563,85271,38171,-4517,-1430,678,49,-237,124,252,458,-88,1,0,56,52,320,0,53298,1
2,30565,30175,31578,85272,38183,-4513,-1422,681,52,-225,127,266,464,-90,1,0,56,52,360,0,53298,1
2,30529,30125,31577,85273,38196,-4521,-1432,675,40,-184,121,260,452,-88,1,0,56,52,400,0,53298,1
2,30555,30052,31579,85274,38208,-4518,-1417,670,5,-140,95,265,455,-81,1,0,56,52,440,0,53298,1
2,30595,30058,31600,85275,38220,-4529,-1418,685,-3,-105,76,272,456,-80,1,0,56,52,480,0,53298,1
2,30563,30175,31586,85276,38232,-4511,-1421,676,-14,-75,51,258,466,-76,1,0,56,52,520,0,53298,1
2,30524,29993,31596,85277,38245,-4521,-1423,675,-5,-65,41,264,462,-80,1,0,56,52,560,0,53298,1
2,30477,29931,31611,85278,38257,-4517,-1428,683,-8,-58,40,265,445,-83,1,0,56,52,600,0,53298,1
2,30458,29871,31602,85279,38270,-4530,-1438,679,-2,-59,39,250,456,-74,1,0,56,52,640,0,53298,1
2,30415,29898,31612,85280,38283,-4524,-1423,677,-13,-36,36,260,460,-84,1,0,56,52,680,0,53298,1
2,30410,29909,31611,85281,38296,-4524,-1424,673,-17,-22,29,265,463,-71,1,0,56,52,720,0,53298,1
2,30389,29815,31604,85282,38308,-4512,-1408,678,-22,-15,13,259,463,-73,1,0,56,52,760,0,53298,1
2,30406,29797,31608,85283,38320,-4518,-1416,693,-16,-2,18,261,453,-83,1,0,56,52,800,0,53298,1
2,30398,29745,31597,85284,38332,-4513,-1416,686,-23,6,28,263,457,-89,1,0,56,52,840,0,53298,1
2,30340,30015,31559,85285,38344,-4511,-1404,691,-18,-1,21,258,452,-90,1,0,56,52,880,0,53298,1
2,30324,30520,31545,85286,38357,-4523,-1436,672,-20,-13,23,262,460,-84,1,0,56,52,920,0,53298,1
2,30347,30999,31543,85287,38369,-4517,-1421,699,-18,-17,15,273,463,-79,1,0,56,52,960,0,53298,1
1,30306,30732,31548,85288,0,-4509,-1415,668,-18,-16,29,259,455,-89,1,0,56,53,0,0,53298,1
2,30375,30890,31547,85289,37626,-4515,-1421,684,-13,-7,31,260,452,-80,1,0,56,53,40,0,53298,1
2,30337,31542,31548,85290,37638,-4512,-1428,681,-18,-3,27,266,456,-84,1,0,56,53,80,0,53298,1
2,30397,30917,31570,85291,37651,-4534,-1436,670,-25,-4,26,260,460,-86,1,0,56,53,120,0,53298,1
2,30445,31100,31562,85292,37664,-4525,-1426,681,-15,-2,20,268,470,-82,1,0,56,53,160,0,53298,1
2,30471,31558,31560,85293,37677,-4518,-1427,665,-22,-2,13,246,458,-78,1,0,56,53,200,0,53298,1
2,30565,31578,31551,85294,37690,-4529,-1435,677,-18,-18,14,258,456,-86,1,0,56,53,240,0,53298,1
2,30588,31425,31517,85295,37703,-4512,-1431,687,-13,-13,25,257,459,-79,1,0,56,53,280,0,53298,1
2,30617,31403,31515,85296,37715,-4512,-1421,673,-14,-15,39,267,459,-87,1,0,56,53,320,0,53298,1
2,30648,31483,31520,85297,37727,-4518,-1425,669,-8,-8,33,259,453,-95,1,0,56,53,360,0,53298,1
2,30669,31411,31497,85298,37740,-4525,-1427,679,-16,-2,30,264,460,-80,1,0,56,53,400,0,53298,1
2,30694,31140,31494,85299,37752,-4512,-1419,688,-17,-8,17,263,453,-77,1,0,56,53,440,0,53298,1
2,30704,31054,31492,85300,37765,-4523,-1431,681,-19,-24,12,260,460,-92,1,0,56,53,480,0,53298,1
2,30675,31003,31462,85301,37777,-4521,-1416,673,-18,-17,22,267,455,-87,1,0,56,53,520,0,53298,1
2,30721,30884,31458,85302,37788,-4516,-1422,670,-18,-4,27,269,455,-81,1,0,56,53,560,0,53298,1
2,30708,30520,31460,85303,37799,-4530,-1432,699,-23,4,18,252,448,-94,1,0,56,53,600,0,53298,1
2,30686,30358,31461,85304,37811,-4505,-1414,667,-24,6,20,260,456,-80,1,0,56,53,640,0,53298,1
2,30666,30105,31454,85305,37822,-4504,-1416,650,-16,1,18,274,456,-88,1,0,56,53,680,0,53298,1
2,30705,30036,31443,85306,37835,-4526,-1415,680,-10,-14,25,263,455,-91,1,0,56,53,720,0,53298,1
2,30685,29930,31441,85307,37847,-4523,-1425,683,-5,-23,29,264,466,-82,1,0,56,53,760,0,53298,1
2,30679,29910,31424,85308,37859,-4516,-1422,679,-11,-15,32,261,449,-87,1,0,56,53,800,0,53298,1
2,30694,29763,31424,85309,37871,-4512,-1419,683,-15,-25,23,258,454,-88,1,0,56,53,840,0,53298,1
2,30693,29715,31408,85310,37883,-4513,-1425,674,-18,-27,28,259,457,-77,1,0,56,53,880,0,53298,1
2,30712,29713,31412,85311,37894,-4521,-1426,673,-12,-32,13,260,464,-90,1,0,56,53,920,0,53298,1
2,30771,29707,31400,85312,37905,-4523,-1445,671,-12,-24,25,261,461,-85,1,0,56,53,960,0,53298,1
1,30788,29710,31400,85313,0,-4534,-1411,683,11,5,13,264,454,-92,1,0,56,54,0,0,53298,1
2,30793,29750,31393,85314,37173,-4526,-1430,675,15,25,-9,261,457,-77,1,0,56,54,40,0,53298,1
2,30804,29815,31385,85315,37185,-4546,-1377,694,-49,53,-30,257,471,-81,1,0,56,54,80,0,53298,1
2,30798,29917,31376,85316,37198,-4570,-1444,635,-92,123,-33,267,461,-73,1,0,56,54,120,0,53298,1
2,30788,30151,31371,85317,37210,-4581,-1391,707,-158,142,64,257,467,-77,1,0,56,54,160,0,53298,1
2,30779,30223,31369,85318,37222,-4567,-1451,654,-673,-13,198,267,447,-91,1,0,56,54,200,0,53298,1
2,30778,29740,31355,85319,37235,-4572,-1481,567,-661,-66,276,258,452,-80,1,0,56,54,240,0,53298,1
2,30802,30091,31347,85320,37249,-4787,-1377,536,127,251,432,262,454,-82,1,0,56,54,280,0,53298,1
2,30861,30340,31371,85321,37263,-4573,-1175,407,1574,510,666,265,467,-87,1,0,56,54,320,0,53298,1
2,30829,29952,31378,85322,37279,-4473,-402,-160,1547,706,1541,258,460,-80,1,0,56,54,360,0,53298,1
2,30819,30256,31394,85323,37293,-4654,146,-887,998,2105,4457,243,463,-83,1,0,56,54,400,0,53298,1
2,30800,29842,31341,85324,37308,-4751,-342,-1168,1812,5080,7389,232,472,-92,1,0,56,54,440,0,53298,1
2,30796,30041,31386,85325,37322,-4952,-1075,-953,2626,8282,8479,208,482,-88,1,0,56,54,480,0,53298,1
2,30685,30048,31345,85326,37337,-4968,-1853,-439,1507,10834,7079,189,491,-99,1,0,56,54,520,0,53298,1
2,30558,29778,31283,85327,37351,-4716,-2718,-138,195,12189,3836,190,506,-130,1,0,56,54,560,0,53298,1
2,30791,30346,31567,85328,37365,-4537,-2893,105,1487,12780,-420,185,517,-147,1,0,56,54,600,0,53298,1
2,30472,33410,31186,85329,37378,-4608,-2602,449,2870,12115,-4928,201,549,-167,1,0,56,54,640,0,53298,1
2,30500,29832,31220,85330,37392,-4818,-2612,605,2435,10224,-8620,209,565,-193,1,0,56,54,680,0,53298,1
2,30522,30253,31264,85331,37406,-5011,-2958,862,1056,6892,-11472,261,579,-229,1,0,56,54,720,0,53298,1
2,30674,30204,31294,85332,37421,-5160,-2950,517,840,2884,-14001,313,563,-229,1,0,56,54,760,0,53298,1
2,30657,30078,31283,85333,37437,-5153,-2372,282,1338,-734,-16065,366,552,-226,1,0,56,54,800,0,53298,1
2,30639,29865,31273,85334,37452,-5125,-1701,150,953,-4160,-16798,427,519,-229,1,0,56,54,840,0,53298,1
2,30646,29760,31268,85335,37467,-5083,-1502,-43,-1357,-7042,-15977,469,457,-221,1,0,56,54,880,0,53298,1
2,30631,29811,31258,85336,37482,-5340,-1781,227,-2851,-9360,-14090,483,417,-205,1,0,56,54,920,0,53298,1
2,30709,30027,31287,85337,37496,-6015,-1539,-186,-2735,-11615,-12365,502,362,-202,1,0,56,54,960,0,53298,1
1,31323,30228,31630,85338,0,-2562,-1471,-640,2969,-12641,-12488,512,312,-170,1,0,56,55,0,1,53298,1
2,30680,30109,31187,85339,36727,-3342,-3519,-1595,20641,-15431,-12874,493,271,-125,1,0,56,55,40,1,53298,1
2,30623,29754,31518,85340,36745,-3764,-921,-1871,28424,-11073,-5579,456,260,-80,1,0,56,55,80,1,53298,1
2,30486,30301,31670,85341,36764,-3537,-2914,-337,8307,-7207,331,454,252,-68,1,0,56,55,120,1,53298,1
2,30388,30569,31747,85342,36783,-3611,-2766,-77,6861,-879,2039,445,249,-57,1,0,56,55,160,1,53298,1
2,30951,29809,31924,85343,36803,-3487,-4033,2199,3410,539,-894,440,260,-40,1,0,56,55,200,1,53298,1
2,30336,30653,32351,85344,36825,-3266,-3578,1270,966,-304,-1643,450,254,-18,1,0,56,55,240,1,53298,1
2,30845,30598,32452,85345,36848,-3214,-3126,1375,981,805,-2572,440,252,-24,1,0,56,55,280,1,53298,1
2,30743,30080,32465,85346,36874,-2888,-3512,1534,2615,767,-1722,454,260,-20,1,0,56,55,320,1,53298,1
2,29793,30145,32535,85347,36900,-3495,-2985,1623,4279,353,-1129,450,260,0,1,0,56,55,360,1,53298,1
2,31070,30040,32790,85348,36928,-4036,-3362,264,4548,-852,-1192,440,262,10,1,0,56,55,400,1,53298,1
2,30572,30002,32847,85349,36958,-4097,-4035,1243,3436,-1164,-2139,452,254,18,1,0,56,55,440,1,53298,1
2,30527,30104,32851,85350,36990,-3466,-3312,1306,1144,-165,-1524,440,254,30,1,0,56,55,480,1,53298,1
2,30521,29681,32852,85351,37026,-2972,-3108,1704,715,539,-1731,436,256,12,1,0,56,55,520,1,53298,1
2,30511,30231,32857,85352,37061,-2906,-3464,1781,713,270,-669,439,249,11,1,0,56,55,560,1,53298,1
2,30435,30106,32883,85353,37094,-3259,-3475,1470,473,-250,-83,431,245,21,1,0,56,55,600,1,53298,1
2,30871,29860,32931,85354,37125,-3614,-3330,1376,590,-335,322,420,252,30,1,0,56,55,640,1,53298,1
2,30840,29790,32937,85355,37156,-3457,-3375,1401,616,-120,293,433,259,35,1,0,56,55,680,1,53298,1
2,30818,29882,32938,85356,37186,-3266,-3367,1514,485,-136,-6,432,250,38,1,0,56,55,720,1,53298,1
2,30602,29760,32933,85357,37217,-3217,-3361,1586,543,-214,15,431,255,25,1,0,56,55,760,1,53298,1
2,30763,29729,32958,85358,37247,-3317,-3340,1534,460,-235,84,429,257,33,1,0,56,55,800,1,53298,1
2,30539,29679,32943,85359,37276,-3398,-3374,1479,305,-131,130,425,255,37,1,0,56,55,840,1,53298,1
2,30345,29704,32947,85360,37306,-3342,-3345,1522,113,46,72,437,247,33,1,0,56,55,880,1,53298,1
2,30311,29701,32945,85361,37335,-3290,-3336,1547,37,170,10,431,247,31,1,0,56,55,920,1,53298,1
2,30400,30861,32920,85362,37364,-3292,-3333,1538,32,177,-3,429,253,43,1,0,56,55,960,1,53298,1
1,30749,29795,32943,85363,0,-3340,-3333,1500,82,146,3,432,252,40,1,0,56,56,0,1,53298,1
2,30043,29774,32941,85364,36283,-3337,-3340,1519,134,97,-34,433,257,29,1,0,56,56,40,1,53298,1
2,30193,30322,32957,85365,36312,-3319,-3348,1518,125,64,-52,434,250,24,1,0,56,56,80,1,53298,1
2,30285,29698,32974,85366,36341,-3317,-3342,1534,103,11,-32,432,246,34,1,0,56,56,120,1,53298,1
2,30201,29839,32970,85367,36369,-3335,-3342,1524,98,-15,0,445,249,21,1,0,56,56,160,1,53298,1
2,30447,30378,32962,85368,36397,-3328,-3337,1529,95,-14,-4,427,251,27,1,0,56,56,200,1,53298,1
2,30677,29875,32972,85369,36425,-3324,-3341,1524,96,16,-20,439,247,25,1,0,56,56,240,1,53298,1
2,30629,29668,32965,85370,36453,-3327,-3333,1532,132,48,-43,428,254,32,1,0,56,56,280,1,53298,1
2,30095,30145,32976,85371,36481,-3311,-3328,1532,133,73,-56,433,251,35,1,0,56,56,320,1,53298,1
2,30004,30150,32993,85372,36509,-3327,-3331,1524,114,71,-70,425,251,31,1,0,56,56,360,1,53298,1
2,29958,29766,32970,85373,36537,-3302,-3329,1533,90,59,-73,427,249,45,1,0,56,56,400,1,53298,1
2,29979,29739,32984,85374,36565,-3312,-3347,1523,59,34,-68,442,258,36,1,0,56,56,440,1,53298,1
2,30145,29741,32994,85375,36593,-3330,-3340,1529,57,21,-56,440,254,34,1,0,56,56,480,1,53298,1
2,30180,29682,32946,85376,36621,-3307,-3335,1545,57,5,-46,431,249,37,1,0,56,56,520,1,53298,1
2,30269,29717,32972,85377,36648,-3308,-3333,1520,47,4,-39,433,249,31,1,0,56,56,560,1,53298,1
2,30730,29707,32979,85378,36675,-3312,-3326,1540,50,12,-32,433,257,33,1,0,56,56,600,1,53298,1
2,30835,29674,33007,85379,36703,-3320,-3336,1525,40,-3,-17,430,250,36,1,0,56,56,640,1,53298,1
2,30746,29678,33004,85380,36730,-3313,-3318,1526,28,0,-12,429,251,35,1,0,56,56,680,1,53298,1
2,30694,29798,33031,85381,36758,-3320,-3324,1527,31,-6,1,428,250,32,1,0,56,56,720,1,53298,1
2,30585,29854,32993,85382,36785,-3323,-3337,1536,29,-14,-4,433,255,31,1,0,56,56,760,1,53298,1
2,30733,30618,32995,85383,36813,-3318,-3331,1538,34,-20,-10,433,251,39,1,0,56,56,800,1,53298,1
2,30650,31912,32986,85384,36840,-3319,-3333,1553,27,-19,-20,435,247,37,1,0,56,56,840,1,53298,1
2,30704,29735,33000,85385,36868,-3318,-3325,1532,24,-13,-15,426,246,36,1,0,56,56,880,1,53298,1
2,30708,29936,33013,85386,36895,-3307,-3321,1540,26,-12,-21,438,250,32,1,0,56,56,920,1,53298,1
2,30704,29726,33018,85387,36923,-3320,-3334,1557,17,-6,-16,434,252,26,1,0,56,56,960,1,53298,1
1,30631,29687,33007,85388,0,-3316,-3331,1524,20,5,-13,428,252,40,1,0,56,57,0,1,53298,1
2,30667,30054,33029,85389,35825,-3326,-3330,1542,24,-4,-8,438,254,28,1,0,56,57,40,1,53298,1
2,30566,29763,33015,85390,35853,-3316,-3331,1543,19,-15,-13,439,255,35,1,0,56,57,80,1,53298,1
2,30624,29831,33032,85391,35880,-3318,-3338,1551,20,-12,-5,422,250,36,1,0,56,57,120,1,53298,1
2,30607,29690,33026,85392,35908,-3316,-3327,1549,-4,-13,0,431,251,35,1,0,56,57,160,1,53298,1
2,30846,29669,33052,85393,35936,-3321,-3327,1540,-14,-8,-12,433,253,41,1,0,56,57,200,1,53298,1
2,30968,29783,33056,85394,35963,-3303,-3329,1556,1,1,-26,432,252,28,1,0,56,57,240,1,53298,1
2,30971,29898,33051,85395,35991,-3298,-3330,1546,-5,11,-26,432,250,36,1,0,56,57,280,1,53298,1
2,31014,29760,33065,85396,36018,-3309,-3333,1544,-11,-11,-22,434,250,40,1,0,56,57,320,1,53298,1
2,31014,29679,33052,85397,36045,-3310,-3323,1526,12,-31,-1,430,254,44,1,0,56,57,360,1,53298,1
2,31030,29699,33057,85398,36073,-3305,-3323,1543,28,-18,5,432,248,38,1,0,56,57,400,1,53298,1
2,31124,29998,33087,85399,36101,-3303,-3312,1549,28,-3,2,438,248,32,1,0,56,57,440,1,53298,1
2,31141,29962,33079,85400,36129,-3313,-3316,1551,22,-1,2,428,250,44,1,0,56,57,480,1,53298,1
2,31145,29733,33083,85401,36156,-3328,-3335,1547,30,6,-18,430,250,40,1,0,56,57,520,1,53298,1
2,30991,29735,33062,85402,36184,-3315,-3327,1560,29,-2,-21,426,248,42,1,0,56,57,560,1,53298,1
2,30898,30450,33059,85403,36211,-3310,-3321,1530,19,-15,-13,426,250,38,1,0,56,57,600,1,53298,1
2,30893,29759,33064,85404,36238,-3326,-3344,1539,25,-25,2,423,251,39,1,0,56,57,640,1,53298,1
2,30738,30071,33054,85405,36265,-3333,-3330,1547,11,-5,8,435,255,27,1,0,56,57,680,1,53298,1
2,30731,29801,33056,85406,36293,-3318,-3325,1549,-4,-9,-12,433,259,35,1,0,56,57,720,1,53298,1
2,30755,29836,33041,85407,36321,-3315,-3322,1548,0,-14,-3,432,252,32,1,0,56,57,760,1,53298,1
2,30770,29763,33043,85408,36348,-3303,-3328,1544,-2,-14,-2,430,250,36,1,0,56,57,800,1,53298,1
2,30784,30055,33034,85409,36376,-3320,-3327,1547,-1,5,-3,435,257,45,1,0,56,57,840,1,53298,1
2,30769,29840,33030,85410,36403,-3312,-3320,1562,7,7,-14,434,256,36,1,0,56,57,880,1,53298,1
2,30769,30617,33015,85411,36431,-3298,-3315,1547,10,-4,-15,432,250,38,1,0,56,57,920,1,53298,1
2,30788,30665,33006,85412,36459,-3317,-3326,1550,15,12,-27,428,252,32,1,0,56,57,960,1,53298,1
1,30750,32340,33011,85413,0,-3320,-3328,1540,7,-1,-29,422,248,42,1,0,56,58,0,0,53298,1
2,30763,32594,33011,85414,35369,-3312,-3331,1557,8,-2,-24,433,251,35,1,0,56,58,40,0,53298,1
2,30786,31338,33014,85415,35395,-3315,-3324,1545,-8,-11,-8,428,256,36,1,0,56,58,80,0,53298,1
2,30833,31203,33014,85416,35422,-3384,-3326,1521,-83,-61,-10,433,253,37,1,0,56,58,120,0,53298,1
2,30811,30567,32948,85417,35449,-3703,-3422,1474,-502,-20,-53,426,252,44,1,0,56,58,160,0,53298,1
2,30981,30959,32810,85418,35477,-3895,-3810,1573,-126,142,320,429,255,27,1,0,56,58,200,0,53298,1
2,31109,30462,32690,85419,35505,-3465,-3072,1465,-306,734,672,417,253,13,1,0,56,58,240,0,53298,1
2,31235,30536,32357,85420,35530,-3012,-1905,574,-1252,3960,3593,425,269,7,1,0,56,58,280,0,53298,1
2,30845,30115,32154,85421,35551,-4718,-1776,-1626,-22764,5643,15285,453,303,-43,1,0,56,58,320,0,53298,1
2,30668,30623,31229,85422,35568,-4704,-2329,-790,-32768,15837,9849,474,334,-116,1,0,56,58,360,0,53298,1
2,29912,30605,31316,85423,35583,-5326,-877,442,-10282,7641,15396,463,385,-121,1,0,56,58,400,0,53298,1
2,27593,30596,31267,85424,35597,-4891,-1604,485,-4036,6620,17489,429,431,-135,1,0,56,58,440,0,53298,1
2,27496,30602,31264,85425,35611,-4822,-2471,1112,-1350,5397,18008,394,472,-138,1,0,56,58,480,0,53298,1
2,30618,30594,31298,85426,35625,-4801,-3025,1903,-1563,2629,16771,349,505,-133,1,0,56,58,520,0,53298,1
2,30157,30583,31276,85427,35638,-4514,-3483,1508,-1725,-1539,14130,311,505,-131,1,0,56,58,560,0,53298,1
2,28026,30605,31336,85428,35651,-4251,-3373,1222,-1882,-5032,10359,278,506,-128,1,0,56,58,600,0,53298,1
2,30377,30590,31305,85429,35665,-4414,-3035,873,-1486,-7308,6573,265,499,-119,1,0,56,58,640,0,53298,1
2,30445,30597,31313,85430,35679,-4228,-2334,137,-406,-8535,2874,252,484,-108,1,0,56,58,680,0,53298,1
2,30152,30599,31340,85431,35692,-4085,-1613,-360,1150,-8182,243,244,476,-94,1,0,56,58,720,0,53298,1
2,30362,30584,31311,85432,35707,-4087,-1463,-623,2045,-6441,-1406,244,456,-84,1,0,56,58,760,0,53298,1
2,30639,30595,31320,85433,35721,-4411,-1362,-179,3529,-4069,-2353,245,463,-79,1,0,56,58,800,0,53298,1
2,30662,30585,31313,85434,35735,-4653,-1194,52,3503,-2514,-2808,250,458,-76,1,0,56,58,840,0,53298,1
2,30694,30586,31318,85435,35749,-4597,-1096,276,2767,-1625,-2827,250,456,-64,1,0,56,58,880,0,53298,1
2,30804,30603,31400,85436,35763,-4626,-1337,419,1743,-1137,-2517,258,454,-78,1,0,56,58,920,0,53298,1
2,31138,30743,31783,85437,35777,-4550,-1267,478,1899,-972,-2602,259,457,-65,1,0,56,58,960,0,53298,1
1,31091,31720,31731,85438,0,-5660,-1027,76,943,473,-1056,261,461,-71,1,0,56,59,0,1,53298,1
2,31093,30748,31729,85439,34897,-4968,-1832,1044,-399,588,-442,261,465,-67,1,0,56,59,40,1,53298,1
2,31078,30614,31719,85440,34910,-4820,-908,821,135,979,-428,253,463,-69,1,0,56,59,80,1,53298,1
2,27116,29809,31412,85441,34922,-4561,-1338,783,-504,605,-288,270,456,-66,1,0,56,59,120,1,53298,1
2,27347,30169,31378,85442,34934,-4532,-1569,582,-1033,809,-350,260,460,-74,1,0,56,59,160,1,53298,1
2,29852,30617,31423,85443,34946,-4684,-1428,643,-401,1179,-483,267,465,-85,1,0,56,59,200,1,53298,1
2,30315,30645,31483,85444,34958,-4583,-1414,637,-30,1244,-618,259,467,-73,1,0,56,59,240,1,53298,1
2,29769,30653,31525,85445,34971,-4507,-1478,608,-216,1131,-726,267,469,-79,1,0,56,59,280,1,53298,1
2,29148,30605,31437,85446,34982,-4531,-1494,562,-330,945,-767,265,463,-85,1,0,56,59,320,1,53298,1
2,28057,30532,31401,85447,34993,-4553,-1524,538,-305,711,-718,270,464,-84,1,0,56,59,360,1,53298,1
2,27452,30606,31392,85448,35005,-4524,-1543,547,-246,484,-603,269,461,-91,1,0,56,59,400,1,53298,1
2,27171,30580,31382,85449,35018,-4490,-1541,552,-204,355,-422,267,459,-87,1,0,56,59,440,1,53298,1
2,27165,30520,31374,85450,35030,-4524,-1569,534,-154,276,-192,266,468,-82,1,0,56,59,480,1,53298,1
2,27124,30132,31361,85451,35042,-4528,-1552,536,-48,218,-12,267,467,-85,1,0,56,59,520,1,53298,1
2,27030,29904,31359,85452,35054,-4529,-1543,536,36,136,86,257,461,-87,1,0,56,59,560,1,53298,1
2,26916,30544,31359,85453,35066,-4533,-1535,527,51,52,111,269,473,-89,1,0,56,59,600,1,53298,1
2,27015,30552,31358,85454,35079,-4535,-1540,530,46,-45,89,264,462,-88,1,0,56,59,640,1,53298,1
2,26940,30235,31352,85455,35090,-4518,-1525,548,57,-165,84,266,472,-74,1,0,56,59,680,1,53298,1
2,26912,30786,31329,85456,35102,-4514,-1526,550,71,-239,96,268,460,-80,1,0,56,59,720,1,53298,1
2,26844,30940,31331,85457,35113,-4524,-1529,558,65,-242,96,271,471,-79,1,0,56,59,760,1,53298,1
2,26930,30135,31365,85458,35125,-4520,-1526,555,48,-230,93,273,465,-89,1,0,56,59,800,1,53298,1
2,26883,30365,31400,85459,35136,-4516,-1526,564,27,-161,92,268,464,-90,1,0,56,59,840,1,53298,1
2,26734,29788,31435,85460,35148,-4517,-1528,558,19,-96,95,270,462,-90,1,0,56,59,880,1,53298,1
2,26778,29848,31537,85461,35160,-4510,-1523,562,1,-41,73,267,469,-77,1,0,56,59,920,1,53298,1
2,26748,30400,31748,85462,35171,-4527,-1524,541,-16,-7,50,271,455,-87,1,0,56,59,960,1,53298,1
1,26776,30087,31753,85463,0,-4516,-1522,559,-16,-8,59,271,465,-85,1,0,57,0,0,1,53298,1
2,26755,29887,31782,85464,34442,-4518,-1520,553,8,-68,74,270,466,-74,1,0,57,0,40,1,53298,1
2,26702,30125,31789,85465,34454,-4514,-1517,549,41,-139,96,264,462,-86,1,0,57,0,80,1,53298,1
2,26670,30377,31794,85466,34466,-4535,-1536,567,61,-185,117,268,464,-90,1,0,57,0,120,1,53298,1
2,26633,30138,31515,85467,34478,-4503,-1514,571,66,-195,122,271,459,-81,1,0,57,0,160,1,53298,1
2,26645,30071,31424,85468,34490,-4531,-1517,576,47,-144,107,269,465,-81,1,0,57,0,200,1,53298,1
2,26750,30073,31405,85469,34501,-4515,-1512,576,12,-72,63,263,475,-89,1,0,57,0,240,1,53298,1
2,26740,30232,31395,85470,34513,-4521,-1508,586,-35,7,14,270,466,-82,1,0,57,0,280,1,53298,1
2,26793,29916,31377,85471,34525,-4539,-1523,587,-56,71,-14,266,460,-74,1,0,57,0,320,1,53298,1
2,26811,30085,31373,85472,34537,-4512,-1510,570,-73,95,-19,270,468,-80,1,0,57,0,360,1,53298,1
2,26751,30109,31369,85473,34550,-4525,-1517,579,-56,77,-19,264,466,-86,1,0,57,0,400,1,53298,1
2,26720,30275,31366,85474,34561,-4522,-1527,561,-43,40,-3,262,460,-68,1,0,57,0,440,1,53298,1
2,26697,30339,31364,85475,34573,-4523,-1519,560,-20,-14,22,266,464,-76,1,0,57,0,480,1,53298,1
2,26675,30325,31363,85476,34585,-4518,-1514,566,2,-53,50,265,463,-79,1,0,57,0,520,1,53298,1
2,26667,30305,31364,85477,34597,-4528,-1519,567,14,-64,48,258,464,-86,1,0,57,0,560,1,53298,1
2,26634,30301,31370,85478,34609,-4513,-1520,569,2,-55,52,269,465,-91,1,0,57,0,600,1,53298,1
2,26625,30304,31374,85479,34621,-4515,-1514,582,-12,-24,41,263,465,-93,1,0,57,0,640,1,53298,1
2,26642,30401,31388,85480,34634,-4524,-1516,565,-24,4,27,257,465,-75,1,0,57,0,680,1,53298,1
2,26671,30501,31427,85481,34647,-4526,-1513,563,-27,18,14,266,466,-92,1,0,57,0,720,1,53298,1
2,26650,30510,31472,85482,34660,-4526,-1518,560,-33,21,-1,257,467,-89,1,0,57,0,760,1,53298,1
2,26672,30540,31605,85483,34672,-4532,-1521,578,-24,11,15,252,468,-82,1,0,57,0,800,1,53298,1
2,26763,30599,31838,85484,34684,-4501,-1501,567,-20,-4,24,268,470,-86,1,0,57,0,840,1,53298,1
2,26794,30618,31831,85485,34696,-4526,-1522,562,-14,-16,29,261,463,-85,1,0,57,0,880,1,53298,1
2,26786,30591,31836,85486,34708,-4526,-1512,569,-9,-28,34,269,459,-87,1,0,57,0,920,1,53298,1
2,27742,30562,31840,85487,34721,-4522,-1527,570,-2,-30,37,265,467,-81,1,0,57,0,960,1,53298,1
1,30691,30536,31840,85488,0,-4518,-1499,577,-9,-20,42,268,468,-86,1,0,57,1,0,0,53298,1
2,30927,30416,31860,85489,33989,-4526,-1515,558,-9,-1,27,263,461,-91,1,0,57,1,40,0,53298,1
2,31075,30458,31864,85490,34001,-4516,-1515,561,-22,4,15,268,464,-84,1,0,57,1,80,0,53298,1
2,31123,30490,31871,85491,34014,-4516,-1515,569,-19,8,11,264,464,-88,1,0,57,1,120,0,53298,1
2,31194,30532,31872,85492,34026,-4522,-1518,574,-19,2,17,269,461,-93,1,0,57,1,160,0,53298,1
2,31215,30586,31881,85493,34039,-4533,-1526,565,-11,-4,26,269,465,-91,1,0,57,1,200,0,53298,1
2,31237,30571,31898,85494,34052,-4537,-1525,563,-13,-6,25,260,468,-86,1,0,57,1,240,0,53298,1
2,31240,30574,31891,85495,34064,-4526,-1529,567,-18,-5,28,267,465,-89,1,0,57,1,280,0,53298,1
2,31248,30595,31893,85496,34077,-4520,-1524,565,-6,-17,23,271,469,-85,1,0,57,1,320,0,53298,1
2,31244,30601,31892,85497,34089,-4521,-1513,561,-1,-12,16,265,459,-85,1,0,57,1,360,0,53298,1
2,31257,30627,31911,85498,34101,-4530,-1526,559,-4,-8,25,271,467,-83,1,0,57,1,400,0,53298,1
2,31256,30631,31905,85499,34114,-4534,-1520,572,5,-12,35,270,462,-84,1,0,57,1,440,0,53298,1
2,31253,30616,31905,85500,34125,-4504,-1500,571,5,-14,27,264,468,-80,1,0,57,1,480,0,53298,1
2,31243,30559,31897,85501,34137,-4546,-1535,542,-18,-14,31,268,466,-88,1,0,57,1,520,0,53298,1
2,31246,30614,31902,85502,34149,-4593,-1508,505,132,69,38,264,462,-86,1,0,57,1,560,0,53298,1
2,31237,30644,31900,85503,34160,-4549,-1539,449,543,263,84,265,469,-89,1,0,57,1,600,0,53298,1
2,31304,30824,31919,85504,34172,-4680,-1577,457,183,248,393,264,460,-72,1,0,57,1,640,0,53298,1
2,31359,30754,31904,85505,34187,-4334,-1545,-125,1698,1001,718,269,463,-79,1,0,57,1,680,0,53298,1
2,31384,30836,31934,85506,34202,-4180,-691,-820,3779,2247,1604,261,467,-81,1,0,57,1,720,0,53298,1
2,31373,29876,31937,85507,34217,-4995,555,-1363,5238,4651,4250,241,471,-87,1,0,57,1,760,0,53298,1
2,27125,30034,31895,85508,34232,-5261,-52,-815,3343,7169,6618,227,487,-93,1,0,57,1,800,0,53298,1
2,27068,30715,31894,85509,34246,-5077,-810,-2186,-1730,9899,7740,204,494,-98,1,0,57,1,840,0,53298,1
2,27653,30168,31955,85510,34259,-4945,-1402,-1488,3652,14327,7222,182,516,-124,1,0,57,1,880,0,53298,1
2,27753,30883,31952,85511,34273,-5078,-2042,-1090,5559,18877,5418,164,538,-164,1,0,57,1,920,0,53298,1
2,26827,30820,31941,85512,34287,-5149,-2954,-260,5868,20117,1426,159,553,-207,1,0,57,1,960,0,53298,1
1,27243,30692,31897,85513,0,-5369,-3356,1060,8794,18321,-4513,181,571,-273,1,0,57,2,0,0,53298,1
2,28693,30910,31891,85514,33540,-5472,-2761,1577,7584,12955,-10023,205,573,-305,1,0,57,2,40,0,53298,1
2,27495,30830,31880,85515,33555,-5417,-2240,1804,3827,5132,-13397,251,567,-309,1,0,57,2,80,0,53298,1
2,27065,30905,31890,85516,33569,-5345,-1647,1488,-2331,-2291,-14238,292,564,-302,1,0,57,2,120,0,53298,1
2,27298,30926,31891,85517,33584,-5112,-1871,892,-7661,-8964,-13271,326,556,-282,1,0,57,2,160,0,53298,1
2,27625,30933,31900,85518,33598,-5306,-2506,379,-7721,-14091,-12600,365,531,-263,1,0,57,2,200,0,53298,1
2,27659,30938,31919,85519,33612,-5267,-2288,-674,-3183,-17478,-12611,398,496,-214,1,0,57,2,240,0,53298,1
2,27788,30872,31943,85520,33626,-4988,-2504,-1284,2258,-17875,-12594,434,454,-186,1,0,57,2,280,0,53298,1
2,27598,30922,32007,85521,33640,-5073,-2873,-1430,4905,-15862,-12994,444,406,-162,1,0,57,2,320,0,53298,1
2,27027,30841,31292,85522,33654,-5619,-1764,-5496,22082,-8537,-16789,444,364,-120,1,0,57,2,360,0,53298,1
2,26556,30333,31293,85523,33670,-2770,-1525,-1269,16384,-7152,-3986,431,335,-89,1,0,57,2,400,0,53298,1
2,26520,30423,31252,85524,33683,-3278,-1900,22,4146,-7462,-4529,421,315,-89,1,0,57,2,440,0,53298,1
2,26594,29878,31294,85525,33696,-3011,-753,-1975,5071,-5346,-1352,419,303,-93,1,0,57,2,480,0,53298,1
2,26654,30156,31269,85526,33712,-3114,-2495,58,1743,280,-780,427,303,-85,1,0,57,2,520,0,53298,1
2,26561,29690,31301,85527,33728,-3383,-3463,582,-4135,-1459,-1015,423,309,-75,1,0,57,2,560,0,53298,1
2,26597,30493,31358,85528,33743,-3714,-3499,443,-3140,-1211,192,441,305,-81,1,0,57,2,600,0,53298,1
2,26538,30498,31360,85529,33760,-3728,-3383,957,-1648,-418,26,452,304,-74,1,0,57,2,640,0,53298,1
2,26576,30421,31379,85530,33776,-4247,-3596,1460,324,1086,-674,457,311,-77,1,0,57,2,680,0,53298,1
2,28380,30497,31343,85531,33795,-3690,-3352,875,753,1046,-1510,458,304,-72,1,0,57,2,720,0,53298,1
2,26533,30548,31340,85532,33813,-3695,-3376,606,440,-604,-1205,448,310,-58,1,0,57,2,760,0,53298,1
2,26542,30548,31363,85533,33832,-3672,-3280,633,3208,399,-106,456,312,-70,1,0,57,2,800,0,53298,1
2,26503,30440,31387,85534,33853,-3661,-3101,758,4267,1905,-459,447,313,-47,1,0,57,2,840,0,53298,1
2,26645,30358,31401,85535,33875,-3527,-3356,762,3611,2523,-721,456,310,-40,1,0,57,2,880,0,53298,1
2,26774,30000,31387,85536,33899,-3779,-3449,908,3842,2405,-539,455,317,-45,1,0,57,2,920,0,53298,1
2,26724,30184,31441,85537,33923,-3524,-3922,800,3447,1875,-770,455,309,-33,1,0,57,2,960,0,53298,1
1,26736,30204,31454,85538,0,-3849,-3366,507,1870,1411,-1083,451,325,-19,1,0,57,3,0,0,53298,1
2,26723,30204,31428,85539,33098,-3780,-3136,531,1637,1129,-887,439,313,-17,1,0,57,3,40,0,53298,1
2,26771,30398,31451,85540,33123,-3636,-3424,805,1784,1129,-1077,447,325,-15,1,0,57,3,80,0,53298,1
2,26737,30390,31542,85541,33149,-3550,-3496,814,1932,1113,-960,440,316,-10,1,0,57,3,120,0,53298,1
2,26743,30197,31528,85542,33175,-3581,-3328,790,1959,1286,-997,445,309,-7,1,0,57,3,160,0,53298,1
2,26692,30279,31645,85543,33204,-3598,-3462,794,2061,1485,-891,433,317,-9,1,0,57,3,200,0,53298,1
2,26627,30030,31479,85544,33233,-3564,-3463,837,1595,1383,-606,442,320,-4,1,0,57,3,240,0,53298,1
2,26629,29981,31485,85545,33262,-3571,-3395,827,1428,1247,-377,441,333,5,1,0,57,3,280,0,53298,1
2,26546,30408,31485,85546,33291,-3552,-3415,806,1297,1099,-178,436,328,6,1,0,57,3,320,0,53298,1
2,26630,29812,31493,85547,33321,-3545,-3407,834,941,768,-50,440,332,2,1,0,57,3,360,0,53298,1
2,26557,29931,31444,85548,33350,-3554,-3400,846,591,410,14,440,332,16,1,0,57,3,400,0,53298,1
2,26666,29833,31437,85549,33379,-3546,-3403,838,379,157,91,431,335,9,1,0,57,3,440,0,53298,1
2,30421,29998,31467,85550,33408,-3558,-3403,855,303,33,135,433,331,17,1,0,57,3,480,0,53298,1
2,27080,29828,31435,85551,33436,-3573,-3386,838,262,18,117,428,336,16,1,0,57,3,520,0,53298,1
2,28158,30143,31435,85552,33465,-3574,-3376,831,152,72,110,430,330,12,1,0,57,3,560,0,53298,1
2,27603,29957,31434,85553,33493,-3559,-3380,840,28,91,108,429,331,11,1,0,57,3,600,0,53298,1
2,26584,30101,31435,85554,33521,-3538,-3372,837,3,78,117,430,332,8,1,0,57,3,640,0,53298,1
2,26552,30245,31425,85555,33548,-3573,-3364,849,5,58,113,428,336,16,1,0,57,3,680,0,53298,1
2,26561,30180,31444,85556,33574,-3566,-3379,838,-41,21,98,432,338,16,1,0,57,3,720,0,53298,1
2,26579,29675,31447,85557,33601,-3558,-3380,836,-7,2,94,430,336,18,1,0,57,3,760,0,53298,1
2,26610,29983,31461,85558,33628,-3568,-3378,846,55,-14,89,428,334,12,1,0,57,3,800,0,53298,1
2,26583,29754,31429,85559,33655,-3586,-3379,836,64,0,97,436,336,18,1,0,57,3,840,0,53298,1
2,26527,30428,31457,85560,33681,-3584,-3371,838,64,37,90,425,339,17,1,0,57,3,880,0,53298,1
2,26539,30041,31454,85561,33708,-3575,-3372,855,26,69,73,432,332,14,1,0,57,3,920,0,53298,1
2,26606,29888,31434,85562,33734,-3555,-3353,851,13,74,60,437,337,17,1,0,57,3,960,0,53298,1
1,26803,30124,31439,85563,0,-3581,-3362,840,60,97,42,439,329,19,1,0,57,4,0,0,53298,1
2,26980,30021,31455,85564,32650,-3570,-3371,835,115,105,27,431,337,25,1,0,57,4,40,0,53298,1
2,26828,30337,31458,85565,32677,-3563,-3378,860,128,89,33,425,339,19,1,0,57,4,80,0,53298,1
2,26701,29828,31454,85566,32704,-3579,-3366,836,146,78,41,427,333,11,1,0,57,4,120,0,53298,1
2,26608,30323,31485,85567,32732,-3574,-3359,852,107,61,35,423,333,25,1,0,57,4,160,0,53298,1
2,26695,29918,31475,85568,32760,-3564,-3382,863,96,78,40,429,343,19,1,0,57,4,200,0,53298,1
2,26569,30026,31485,85569,32788,-3566,-3365,879,86,70,49,430,338,18,1,0,57,4,240,0,53298,1
2,26598,33580,31466,85570,32816,-3576,-3370,865,33,66,40,422,340,22,1,0,57,4,280,0,53298,1
2,26587,29976,31460,85571,32844,-3565,-3352,856,21,58,38,430,328,20,1,0,57,4,320,0,53298,1
2,26561,29661,31458,85572,32871,-3569,-3369,873,27,62,37,421,333,23,1,0,57,4,360,0,53298,1
2,26582,30124,31475,85573,32898,-3564,-3372,857,-4,46,38,431,341,23,1,0,57,4,400,0,53298,1
2,26593,30301,31480,85574,32925,-3596,-3372,848,35,42,50,426,338,18,1,0,57,4,440,0,53298,1
2,26554,30318,31479,85575,32952,-3575,-3372,857,35,41,73,426,338,14,1,0,57,4,480,0,53298,1
2,26582,30233,31487,85576,32979,-3560,-3360,853,-8,18,74,436,340,22,1,0,57,4,520,0,53298,1
2,26562,30261,31481,85577,33006,-3577,-3362,857,6,19,66,428,346,26,1,0,57,4,560,0,53298,1
2,26536,29648,31479,85578,33033,-3561,-3359,860,18,27,53,436,336,22,1,0,57,4,600,0,53298,1
2,26534,29815,31482,85579,33059,-3568,-3361,854,-4,36,45,431,337,21,1,0,57,4,640,0,53298,1
2,26580,29639,31500,85580,33087,-3567,-3361,841,19,52,40,423,335,29,1,0,57,4,680,0,53298,1
2,26571,29987,31503,85581,33114,-3568,-3355,865,31,54,45,423,341,23,1,0,57,4,720,0,53298,1
2,26528,30360,31515,85582,33141,-3572,-3371,862,3,51,55,429,339,17,1,0,57,4,760,0,53298,1
2,26508,30162,31478,85583,33169,-3576,-3362,846,-36,15,61,435,337,27,1,0,57,4,800,0,53298,1
2,26514,30179,31465,85584,33197,-3617,-3360,835,-190,26,46,423,337,31,1,0,57,4,840,0,53298,1
2,26533,30203,31446,85585,33224,-3750,-3405,804,-795,19,9,425,339,19,1,0,57,4,880,0,53298,1
2,26571,30245,31408,85586,33249,-3873,-3510,550,-2363,-373,51,427,333,7,1,0,57,4,920,0,53298,1
2,26518,30068,31297,85587,33270,-4093,-3588,528,-5217,-1286,446,440,330,-2,1,0,57,4,960,0,53298,1
1,26734,30154,31201,85588,0,-4098,-3922,710,-6819,-1980,1871,441,335,-25,1,0,57,5,0,0,53298,1
2,30369,31761,31200,85589,32186,-3093,-3470,683,-5691,-1014,3537,431,327,-37,1,0,57,5,40,0,53298,1
2,30043,31683,31135,85590,32199,-2859,-2472,-1616,-15061,-1170,1553,447,315,-67,1,0,57,5,80,0,53298,1
2,27807,32225,31065,85591,32210,-5049,1355,-1823,-32768,-2267,3906,487,341,-157,1,0,57,5,120,0,53298,1
2,26475,31150,31082,85592,32222,-4502,-1175,-878,-14740,5633,13193,483,375,-167,1,0,57,5,160,0,53298,1
2,28120,31658,31115,85593,32234,-4711,-1225,-306,-2190,6720,16248,455,429,-175,1,0,57,5,200,0,53298,1
2,27868,31461,31146,85594,32246,-4925,-1954,796,-1249,4758,19216,399,477,-169,1,0,57,5,240,0,53298,1
2,27106,30510,31135,85595,32257,-5329,-3243,1779,-1420,1313,18781,361,509,-175,1,0,57,5,280,0,53298,1
2,27649,30220,31170,85596,32270,-4971,-3489,1691,-3680,-4362,15733,328,522,-166,1,0,57,5,320,0,53298,1
2,29444,30369,31161,85597,32282,-4508,-3443,1277,-4068,-9477,11705,294,512,-156,1,0,57,5,360,0,53298,1
2,28681,30512,31166,85598,32294,-4451,-3298,538,-3638,-12727,7758,282,502,-134,1,0,57,5,400,0,53298,1
2,29998,30332,31200,85599,32306,-4364,-2727,-265,-2729,-13590,3686,267,487,-113,1,0,57,5,440,0,53298,1
2,27553,31247,31200,85600,32319,-4308,-2115,-803,-295,-12167,173,276,472,-92,1,0,57,5,480,0,53298,1
2,27010,33218,31216,85601,32332,-4346,-1847,-1079,372,-9243,-2274,266,460,-84,1,0,57,5,520,0,53298,1
2,27260,31037,31238,85602,32345,-4417,-1525,-750,2058,-5627,-3749,272,450,-76,1,0,57,5,560,0,53298,1
2,30775,30889,31262,85603,32358,-4428,-1331,-260,2926,-2729,-4314,286,454,-82,1,0,57,5,600,0,53298,1
2,26620,31618,31229,85604,32370,-5388,3644,-2852,2496,-605,-3515,278,460,-62,1,0,57,5,640,0,53298,1
2,26556,32104,31221,85605,32381,-4808,-1311,460,1317,1641,-1441,281,455,-77,1,0,57,5,680,0,53298,1
2,26545,32330,31271,85606,32392,-5623,-2406,1285,-509,1621,-958,280,454,-70,1,0,57,5,720,0,53298,1
2,26646,32504,31660,85607,32404,-4833,-974,822,2223,51,-424,284,460,-76,1,0,57,5,760,0,53298,1
2,26609,32690,31519,85608,32415,-4696,-1088,731,468,-209,113,287,457,-73,1,0,57,5,800,0,53298,1
2,26894,31961,31291,85609,32427,-4452,-1637,782,-204,-100,-70,290,466,-82,1,0,57,5,840,0,53298,1
2,28030,33699,31329,85610,32438,-4499,-1428,703,200,457,-354,285,453,-81,1,0,57,5,880,0,53298,1
2,27313,31400,31314,85611,32449,-4755,-1371,713,200,767,-490,285,461,-83,1,0,57,5,920,0,53298,1
2,27461,31065,31324,85612,32461,-4865,-1407,631,-187,766,-523,288,456,-78,1,0,57,5,960,0,53298,1
1,26820,32372,31328,85613,0,-4547,-1580,535,-368,851,-699,292,460,-86,1,0,57,6,0,1,53298,1
2,26829,31417,31328,85614,31725,-4415,-1579,637,-344,878,-804,288,458,-86,1,0,57,6,40,1,53298,1
2,26756,31296,31321,85615,31738,-4501,-1596,564,-356,754,-696,291,451,-81,1,0,57,6,80,1,53298,1
2,26906,30897,31340,85616,31750,-4555,-1633,479,-300,488,-512,282,468,-88,1,0,57,6,120,1,53298,1
2,27147,31165,31324,85617,31762,-4502,-1651,515,-163,170,-296,304,468,-86,1,0,57,6,160,1,53298,1
2,27451,31088,31582,85618,31776,-4484,-1642,550,37,-65,-59,286,462,-86,1,0,57,6,200,1,53298,1
2,28173,31468,32164,85619,31788,-4503,-1606,555,123,-163,104,303,455,-93,1,0,57,6,240,1,53298,1
2,27782,31221,31320,85620,31800,-4511,-1608,565,136,-168,191,291,465,-83,1,0,57,6,280,1,53298,1
2,28256,31359,31483,85621,31812,-4496,-1598,580,140,-112,185,294,468,-82,1,0,57,6,320,1,53298,1
2,28148,31201,31304,85622,31824,-4506,-1586,569,87,-39,148,292,466,-84,1,0,57,6,360,1,53298,1
2,28266,31423,31314,85623,31835,-4515,-1593,567,19,3,64,297,465,-91,1,0,57,6,400,1,53298,1
2,27978,31720,31326,85624,31847,-4491,-1592,552,-11,-12,-11,286,470,-86,1,0,57,6,440,1,53298,1
2,27882,32168,31317,85625,31859,-4501,-1611,544,-1,-67,-30,292,460,-86,1,0,57,6,480,1,53298,1
2,27758,31507,31324,85626,31871,-4499,-1604,569,17,-148,5,293,461,-87,1,0,57,6,520,1,53298,1
2,27774,31295,31325,85627,31882,-4491,-1596,580,43,-177,75,293,461,-85,1,0,57,6,560,1,53298,1
2,27901,31236,31322,85628,31895,-4491,-1610,567,55,-155,109,286,466,-84,1,0,57,6,600,1,53298,1
2,27837,30778,31328,85629,31906,-4485,-1581,596,52,-103,96,294,462,-86,1,0,57,6,640,1,53298,1
2,27496,30736,31336,85630,31918,-4522,-1595,577,10,-29,52,288,468,-86,1,0,57,6,680,1,53298,1
2,27578,30372,31342,85631,31930,-4509,-1606,577,-26,22,5,293,459,-81,1,0,57,6,720,1,53298,1
2,27637,30451,31340,85632,31941,-4504,-1604,571,-23,24,-25,291,463,-79,1,0,57,6,760,1,53298,1
2,27644,30333,31343,85633,31953,-4498,-1601,576,-33,8,-27,283,465,-89,1,0,57,6,800,1,53298,1
2,27428,30361,31338,85634,31965,-4492,-1598,578,-6,-15,24,289,459,-93,1,0,57,6,840,1,53298,1
2,27494,30358,31343,85635,31976,-4516,-1607,575,11,-31,51,290,456,-94,1,0,57,6,880,1,53298,1
2,27617,31348,31340,85636,31987,-4503,-1594,585,6,-50,50,290,470,-78,1,0,57,6,920,1,53298,1
2,27649,31772,31336,85637,31999,-4501,-1602,589,-10,-37,35,295,465,-85,1,0,57,6,960,1,53298,1
1,28012,32065,31339,85638,0,-4499,-1586,579,-22,6,23,288,462,-88,1,0,57,7,0,1,53298,1
2,27853,32740,31337,85639,31270,-4504,-1598,601,-30,32,6,291,469,-75,1,0,57,7,40,1,53298,1
2,28174,32937,31335,85640,31282,-4497,-1600,575,-36,36,-11,291,463,-85,1,0,57,7,80,1,53298,1
2,28315,33501,31347,85641,31295,-4506,-1603,568,-23,15,1,288,458,-84,1,0,57,7,120,1,53298,1
2,28310,33677,31366,85642,31306,-4506,-1599,581,-10,-10,16,289,465,-81,1,0,57,7,160,1,53298,1
2,28424,33695,31361,85643,31318,-4498,-1601,578,1,-28,32,290,466,-86,1,0,57,7,200,1,53298,1
2,28275,33650,31360,85644,31330,-4508,-1606,587,5,-34,27,296,466,-90,1,0,57,7,240,1,53298,1
2,28297,33722,31369,85645,31342,-4496,-1602,588,0,-28,32,293,471,-83,1,0,57,7,280,1,53298,1
2,28418,33706,31372,85646,31353,-4498,-1600,582,0,-20,23,289,467,-91,1,0,57,7,320,1,53298,1
2,28300,33745,31374,85647,31365,-4505,-1598,578,-10,-11,15,291,465,-89,1,0,57,7,360,1,53298,1
2,28398,33791,31396,85648,31377,-4502,-1608,592,-13,-12,25,287,465,-77,1,0,57,7,400,1,53298,1
2,28330,33733,31392,85649,31388,-4514,-1612,582,-5,-12,22,284,462,-84,1,0,57,7,440,1,53298,1
2,28625,33762,31422,85650,31400,-4506,-1601,572,-9,-22,30,289,465,-79,1,0,57,7,480,1,53298,1
2,28651,33786,31417,85651,31411,-4495,-1594,574,2,-37,2,291,465,-77,1,0,57,7,520,1,53298,1
2,29129,33825,31520,85652,31421,-4498,-1600,583,6,-50,7,293,461,-81,1,0,57,7,560,1,53298,1
2,29021,33937,31539,85653,31433,-4495,-1605,599,12,-58,23,296,458,-80,1,0,57,7,600,1,53298,1
2,28944,33698,31373,85654,31445,-4499,-1604,579,23,-77,44,290,460,-82,1,0,57,7,640,1,53298,1
2,28490,33681,31361,85655,31456,-4496,-1579,594,16,-59,34,298,462,-88,1,0,57,7,680,1,53298,1
2,28504,33719,31368,85656,31467,-4502,-1607,588,-12,-21,11,288,466,-90,1,0,57,7,720,1,53298,1
2,28744,33727,31367,85657,31478,-4509,-1609,568,-23,8,-34,284,456,-78,1,0,57,7,760,1,53298,1
2,28863,33742,31370,85658,31489,-4499,-1586,595,-29,6,-100,291,469,-75,1,0,57,7,800,1,53298,1
2,28980,33760,31371,85659,31501,-4501,-1619,583,-58,-22,-80,286,456,-78,1,0,57,7,840,1,53298,1
2,29008,33715,31365,85660,31513,-4510,-1613,577,-15,-88,8,281,461,-79,1,0,57,7,880,1,53298,1
2,28904,33780,31380,85661,31524,-4507,-1611,585,63,-139,72,287,465,-87,1,0,57,7,920,1,53298,1
2,28773,33783,31373,85662,31536,-4518,-1590,583,120,-117,75,294,460,-86,1,0,57,7,960,1,53298,1
1,28918,33761,31371,85663,0,-4613,-1575,519,150,35,57,299,467,-85,1,0,57,8,0,0,53298,1
2,28920,33852,31355,85664,30818,-5068,-1610,366,270,135,225,283,463,-89,1,0,57,8,40,0,53298,1
2,27258,32319,31462,85665,30831,-4900,-1439,634,-247,-672,669,291,461,-81,1,0,57,8,80,0,53298,1
2,27277,31598,31329,85666,30845,-4172,-1203,203,406,-514,1822,290,462,-86,1,0,57,8,120,0,53298,1
2,27185,33256,31334,85667,30858,-4269,234,-630,1490,772,4345,280,466,-76,1,0,57,8,160,0,53298,1
2,27036,32673,31285,85668,30873,-4531,270,-658,1538,3124,7458,261,467,-85,1,0,57,8,200,0,53298,1
2,27230,32933,31287,85669,30888,-4877,-80,-669,1233,5219,9401,238,484,-76,1,0,57,8,240,0,53298,1
2,28816,32780,31264,85670,30901,-5136,-996,-609,910,7330,10025,215,487,-91,1,0,57,8,280,0,53298,1
2,26850,32974,31280,85671,30915,-5075,-2646,-416,1495,9439,8555,188,496,-104,1,0,57,8,320,0,53298,1
2,27171,30217,31334,85672,30928,-5064,-3254,56,3019,11503,4085,183,515,-127,1,0,57,8,360,0,53298,1
2,26859,30078,31303,85673,30941,-4666,-3673,420,2068,12051,-2039,191,537,-143,1,0,57,8,400,0,53298,1
2,26832,30018,31318,85674,30955,-4457,-3865,541,2297,11258,-8266,210,542,-174,1,0,57,8,440,0,53298,1
2,26715,30199,31370,85675,30968,-4546,-3073,677,4066,9707,-14059,255,555,-193,1,0,57,8,480,0,53298,1
2,26856,30135,31305,85676,30981,-4856,-2827,866,3958,6859,-18513,311,563,-217,1,0,57,8,520,0,53298,1
2,27145,29961,31234,85677,30994,-5441,-1943,1008,4650,2933,-20625,377,541,-217,1,0,57,8,560,0,53298,1
2,27323,30298,31238,85678,31007,-5875,-1154,925,2510,-2295,-20409,437,497,-201,1,0,57,8,600,0,53298,1
2,27250,30161,31226,85679,31020,-6015,-1253,657,-1673,-7968,-17180,481,449,-185,1,0,57,8,640,0,53298,1
2,27281,29900,31254,85680,31033,-5634,-2637,396,-3506,-12910,-13648,501,387,-179,1,0,57,8,680,0,53298,1
2,27654,30458,32085,85681,31046,-4589,-721,-918,759,-15807,-13763,495,341,-151,1,0,57,8,720,0,53298,1
2,26579,30175,31997,85682,31072,-1282,-3688,-1039,32160,-20279,-18618,485,305,-83,1,0,57,8,760,0,53298,1
2,26480,29989,31718,85683,31096,-2936,-3794,-1370,426,-10213,-3948,471,275,-79,1,0,57,8,800,0,53298,1
2,26526,30178,31611,85684,31118,-3751,-4589,-971,9533,-3526,-5170,469,265,-63,1,0,57,8,840,0,53298,1
2,27391,30567,31699,85685,31142,-3859,-1831,-1198,2421,110,72,473,261,-53,1,0,57,8,880,0,53298,1
2,26540,30542,31830,85686,31166,-3768,-4243,1369,1072,4492,-2526,474,274,-52,1,0,57,8,920,0,53298,1
2,26618,30674,31904,85687,31197,-3046,-4082,924,974,4263,-5098,478,262,-34,1,0,57,8,960,0,53298,1
1,26585,30404,31892,85688,0,-3163,-3589,934,1598,3283,-5046,467,261,-35,1,0,57,9,0,0,53298,1
2,26708,30435,31946,85689,30379,-2923,-3803,929,4160,1566,573,471,273,-31,1,0,57,9,40,0,53298,1
2,26879,30252,32128,85690,30411,-3330,-3576,917,4498,-8,616,480,266,-8,1,0,57,9,80,0,53298,1
2,26459,30488,32258,85691,30445,-3662,-3741,640,2765,-554,-904,464,262,6,1,0,57,9,120,0,53298,1
2,26841,30076,32377,85692,30481,-3606,-3797,626,1621,-620,-567,467,259,-1,1,0,57,9,160,0,53298,1
2,26712,30190,32461,85693,30517,-3421,-3750,790,1397,116,-196,464,258,0,1,0,57,9,200,0,53298,1
2,26844,30545,32480,85694,30554,-3193,-3681,1011,852,545,-572,460,260,2,1,0,57,9,240,0,53298,1
2,26851,30476,32496,85695,30589,-3045,-3739,1051,345,602,-580,467,269,19,1,0,57,9,280,0,53298,1
2,26836,30411,32559,85696,30622,-3082,-3795,1011,29,384,-386,455,267,7,1,0,57,9,320,0,53298,1
2,26854,30230,32570,85697,30655,-3184,-3780,893,206,243,-169,465,271,19,1,0,57,9,360,0,53298,1
2,26839,30525,32760,85698,30686,-3204,-3736,881,527,275,-48,457,269,9,1,0,57,9,400,0,53298,1
2,26782,30420,32600,85699,30717,-3216,-3748,920,580,314,-19,464,264,12,1,0,57,9,440,0,53298,1
2,26812,30364,33242,85700,30747,-3157,-3734,950,488,291,-41,474,270,14,1,0,57,9,480,0,53298,1
2,26771,30635,32707,85701,30777,-3138,-3741,965,401,218,-43,462,276,14,1,0,57,9,520,0,53298,1
2,26808,29840,32640,85702,30808,-3158,-3732,949,298,128,1,464,264,18,1,0,57,9,560,0,53298,1
2,26798,29755,32659,85703,30838,-3193,-3731,944,219,83,27,461,267,17,1,0,57,9,600,0,53298,1
2,26813,30523,32666,85704,30868,-3192,-3737,963,167,80,34,460,268,18,1,0,57,9,640,0,53298,1
2,26808,30358,32663,85705,30899,-3178,-3745,976,146,85,31,466,264,14,1,0,57,9,680,0,53298,1
2,26832,30620,33138,85706,30929,-3179,-3739,964,126,77,42,451,273,21,1,0,57,9,720,0,53298,1
2,26875,30474,32965,85707,30960,-3159,-3719,967,92,69,43,456,264,18,1,0,57,9,760,0,53298,1
2,26838,30378,32684,85708,30991,-3174,-3731,956,40,41,23,464,266,14,1,0,57,9,800,0,53298,1
2,26845,30811,32724,85709,31021,-3179,-3728,959,38,8,19,460,258,24,1,0,57,9,840,0,53298,1
2,26819,30102,32671,85710,31052,-3188,-3719,970,43,-15,14,459,269,17,1,0,57,9,880,0,53298,1
2,26818,29702,32637,85711,31081,-3168,-3726,977,56,-16,11,452,272,26,1,0,57,9,920,0,53298,1
2,26825,29894,32664,85712,31110,-3175,-3724,978,69,0,1,455,267,25,1,0,57,9,960,0,53298,1
1,26828,29852,32696,85713,0,-3183,-3728,975,30,30,4,460,272,12,1,0,57,10,0,1,53298,1
2,26830,29761,32680,85714,29924,-3180,-3726,974,2,52,6,463,267,17,1,0,57,10,40,1,53298,1
2,26833,31199,32684,85715,29953,-3178,-3715,957,12,54,-4,471,273,21,1,0,57,10,80,1,53298,1
2,26818,30819,32655,85716,29982,-3179,-3725,970,29,59,-4,459,271,31,1,0,57,10,120,1,53298,1
2,26824,29901,32691,85717,30011,-3174,-3731,976,18,34,0,465,273,19,1,0,57,10,160,1,53298,1
2,26810,30049,32681,85718,30039,-3170,-3716,961,32,21,4,456,270,24,1,0,57,10,200,1,53298,1
2,26807,31050,32666,85719,30068,-3175,-3719,973,41,5,6,466,274,18,1,0,57,10,240,1,53298,1
2,26824,30116,32700,85720,30097,-3178,-3718,970,40,-10,0,460,262,28,1,0,57,10,280,1,53298,1
2,26821,29692,32676,85721,30125,-3193,-3729,978,34,-8,5,453,277,33,1,0,57,10,320,1,53298,1
2,26831,30080,32711,85722,30155,-3164,-3713,976,15,19,8,448,276,32,1,0,57,10,360,1,53298,1
2,26829,29921,32707,85723,30183,-3187,-3723,979,-19,21,8,457,271,17,1,0,57,10,400,1,53298,1
2,26834,30174,32706,85724,30212,-3170,-3714,968,-10,26,-3,461,263,29,1,0,57,10,440,1,53298,1
2,26834,30222,32712,85725,30240,-3159,-3715,960,-11,25,-3,459,269,25,1,0,57,10,480,1,53298,1
2,26830,30255,32718,85726,30268,-3175,-3722,984,-15,11,-8,458,278,24,1,0,57,10,520,1,53298,1
2,26845,30101,32722,85727,30297,-3175,-3727,985,-1,-3,-15,467,261,11,1,0,57,10,560,1,53298,1
2,26835,29745,32698,85728,30326,-3187,-3720,975,-1,-1,-4,465,271,27,1,0,57,10,600,1,53298,1
2,26829,32842,32670,85729,30354,-3173,-3727,982,-7,21,8,459,267,31,1,0,57,10,640,1,53298,1
2,26833,29826,32708,85730,30384,-3167,-3712,979,-16,10,5,464,268,24,1,0,57,10,680,1,53298,1
2,26827,29686,32705,85731,30413,-3198,-3731,981,-29,7,7,462,270,26,1,0,57,10,720,1,53298,1
2,26851,29780,32703,85732,30442,-3233,-3708,941,-140,7,-8,455,269,27,1,0,57,10,760,1,53298,1
2,26855,29790,32677,85733,30470,-3258,-3794,1040,-308,29,-73,457,267,17,1,0,57,10,800,1,53298,1
2,26879,29845,32717,85734,30500,-3527,-3796,915,-1281,-707,-182,454,272,20,1,0,57,10,840,1,53298,1
2,26850,30026,32305,85735,30529,-3429,-3747,798,-2299,-1116,141,463,277,1,1,0,57,10,880,1,53298,1
2,26485,29855,32057,85736,30557,-2855,-3800,928,-1293,-136,2015,460,266,0,1,0,57,10,920,1,53298,1
2,26690,31318,31659,85737,30582,-4163,-1834,-774,-6327,-762,7239,464,286,-12,1,0,57,10,960,1,53298,1
1,26512,30562,31128,85738,0,-6406,-1136,-813,-30078,977,15548,497,317,-111,1,0,57,11,0,1,53298,1
2,26487,30512,31165,85739,29453,-3047,-3902,-1214,-24675,2642,15722,481,355,-143,1,0,57,11,40,1,53298,1
2,26469,30339,31112,85740,29467,-4922,-1723,-319,1175,8219,17010,461,403,-139,1,0,57,11,80,1,53298,1
2,26537,30551,31161,85741,29481,-4652,-1869,503,4267,7900,18386,417,445,-137,1,0,57,11,120,1,53298,1
2,26480,30588,31237,85742,29494,-4733,-1168,1415,4969,6192,17967,375,477,-137,1,0,57,11,160,1,53298,1
2,26486,30552,31146,85743,29506,-4428,-3602,1876,-739,2019,16866,331,503,-143,1,0,57,11,200,1,53298,1
2,26467,30536,31164,85744,29520,-4583,-3033,1944,648,-2195,13773,304,504,-132,1,0,57,11,240,1,53298,1
2,26653,30549,31212,85745,29533,-4106,-2837,840,-3256,-7056,10219,282,502,-128,1,0,57,11,280,1,53298,1
2,26602,30537,31185,85746,29546,-4086,-3021,262,-2793,-8693,6639,267,485,-115,1,0,57,11,320,1,53298,1
2,26608,30529,31196,85747,29558,-4251,-2432,-127,-202,-8735,3180,256,478,-96,1,0,57,11,360,1,53298,1
2,26571,30528,31196,85748,29571,-4284,-1993,-494,1168,-7884,135,251,483,-81,1,0,57,11,400,1,53298,1
2,26554,30535,31197,85749,29584,-4339,-1596,-470,2210,-5783,-2038,243,481,-75,1,0,57,11,440,1,53298,1
2,26562,30521,31200,85750,29597,-4375,-1427,-180,2587,-3660,-3051,249,469,-61,1,0,57,11,480,1,53298,1
2,26540,30527,31193,85751,29609,-4337,-1382,-103,2197,-2144,-3622,260,470,-72,1,0,57,11,520,1,53298,1
2,26436,30476,31234,85752,29621,-4388,-1679,979,2453,-1298,-4004,264,464,-68,1,0,57,11,560,1,53298,1
2,27500,30335,31342,85753,29632,-5267,-1019,1637,1508,1903,-936,270,474,-74,1,0,57,11,600,1,53298,1
2,29815,30556,31325,85754,29645,-5682,-788,619,-772,1300,-290,267,469,-67,1,0,57,11,640,1,53298,1
2,28724,30375,31287,85755,29657,-5231,-1358,363,-133,584,-436,259,469,-79,1,0,57,11,680,1,53298,1
2,29662,30231,31254,85756,29670,-4183,-1869,463,-871,270,-866,266,464,-78,1,0,57,11,720,1,53298,1
2,30118,30433,31304,85757,29681,-4304,-1495,623,-389,757,-838,267,475,-71,1,0,57,11,760,1,53298,1
2,28597,29695,31227,85758,29693,-4630,-1528,488,-101,1041,-601,275,473,-71,1,0,57,11,800,1,53298,1
2,28186,30013,31250,85759,29707,-4693,-1535,326,-109,791,-458,277,463,-75,1,0,57,11,840,1,53298,1
2,27605,29984,31252,85760,29720,-4467,-1583,507,-204,384,-434,263,469,-75,1,0,57,11,880,1,53298,1
2,28141,29715,31242,85761,29733,-4501,-1571,453,-161,255,-264,270,468,-76,1,0,57,11,920,1,53298,1
2,27935,29765,31238,85762,29746,-4563,-1580,428,-62,119,-105,276,474,-80,1,0,57,11,960,1,53298,1
1,27835,29828,31227,85763,0,-4515,-1562,464,56,-62,17,265,471,-89,1,0,57,12,0,0,53298,1
2,27775,29827,31236,85764,28993,-4500,-1564,500,97,-108,75,267,475,-77,1,0,57,12,40,0,53298,1
2,27751,29820,31245,85765,29007,-4512,-1534,486,80,-4,88,268,478,-82,1,0,57,12,80,0,53298,1
2,27565,29853,31239,85766,29020,-4527,-1560,465,27,58,41,279,475,-87,1,0,57,12,120,0,53298,1
2,27516,29881,31269,85767,29032,-4522,-1564,467,-8,42,20,274,466,-84,1,0,57,12,160,0,53298,1
2,27310,29749,31241,85768,29044,-4538,-1565,456,4,-18,5,269,473,-89,1,0,57,12,200,0,53298,1
2,27457,29715,31249,85769,29057,-4530,-1559,453,16,-83,12,267,473,-79,1,0,57,12,240,0,53298,1
2,27218,29726,31250,85770,29069,-4526,-1564,466,15,-133,37,278,468,-84,1,0,57,12,280,0,53298,1
2,27464,29768,31249,85771,29082,-4511,-1552,467,25,-143,59,267,467,-87,1,0,57,12,320,0,53298,1
2,27795,30107,31232,85772,29095,-4516,-1554,482,37,-125,76,272,476,-86,1,0,57,12,360,0,53298,1
2,27461,29869,31236,85773,29108,-4517,-1555,488,39,-104,81,266,470,-90,1,0,57,12,400,0,53298,1
2,27662,29830,31237,85774,29121,-4520,-1550,476,27,-71,76,270,470,-88,1,0,57,12,440,0,53298,1
2,27365,29880,31238,85775,29134,-4532,-1560,479,26,-67,71,265,473,-83,1,0,57,12,480,0,53298,1
2,27466,29898,31243,85776,29147,-4523,-1551,487,19,-59,52,268,470,-86,1,0,57,12,520,0,53298,1
2,27309,29901,31243,85777,29160,-4526,-1557,474,12,-56,52,264,466,-80,1,0,57,12,560,0,53298,1
2,27122,30361,31237,85778,29172,-4519,-1554,490,11,-53,39,265,465,-89,1,0,57,12,600,0,53298,1
2,26974,30245,31237,85779,29185,-4527,-1556,481,4,-54,32,267,475,-83,1,0,57,12,640,0,53298,1
2,26801,30110,31239,85780,29197,-4535,-1567,486,1,-50,40,261,469,-79,1,0,57,12,680,0,53298,1
2,26845,30018,31242,85781,29209,-4518,-1556,484,-7,-33,38,271,465,-87,1,0,57,12,720,0,53298,1
2,26894,29936,31241,85782,29221,-4519,-1558,486,-5,-12,30,266,472,-78,1,0,57,12,760,0,53298,1
2,26847,29842,31244,85783,29233,-4524,-1561,488,-22,10,8,269,467,-79,1,0,57,12,800,0,53298,1
2,26737,29840,31254,85784,29245,-4511,-1546,487,-28,13,9,268,474,-86,1,0,57,12,840,0,53298,1
2,26746,29783,31255,85785,29258,-4528,-1556,497,-19,6,14,264,476,-84,1,0,57,12,880,0,53298,1
2,26844,29740,31260,85786,29270,-4529,-1549,493,-9,-22,20,265,467,-87,1,0,57,12,920,0,53298,1
2,26814,29735,31262,85787,29282,-4528,-1557,481,-13,-32,22,270,478,-86,1,0,57,12,960,0,53298,1
1,26711,29768,31266,85788,0,-4518,-1554,481,-3,-34,23,263,475,-83,1,0,57,13,0,1,53298,1
2,26704,29807,31272,85789,28536,-4518,-1553,482,-10,-23,17,262,470,-80,1,0,57,13,40,1,53298,1
2,26704,29834,31273,85790,28548,-4523,-1545,496,-12,-16,28,261,473,-85,1,0,57,13,80,1,53298,1
2,26690,29850,31272,85791,28560,-4523,-1558,483,-12,-10,18,261,465,-91,1,0,57,13,120,1,53298,1
2,26707,29850,31279,85792,28573,-4521,-1555,488,-9,-7,14,260,476,-88,1,0,57,13,160,1,53298,1
2,26649,29853,31279,85793,28586,-4517,-1544,497,-12,-8,25,264,470,-82,1,0,57,13,200,1,53298,1
2,26680,29854,31277,85794,28599,-4511,-1556,494,-5,-11,20,266,476,-78,1,0,57,13,240,1,53298,1
2,26654,29853,31275,85795,28613,-4527,-1557,486,-10,-22,24,266,468,-84,1,0,57,13,280,1,53298,1
2,26645,29870,31274,85796,28625,-4508,-1552,499,-6,-30,21,262,470,-84,1,0,57,13,320,1,53298,1
2,26658,29878,31272,85797,28638,-4526,-1556,483,-4,-23,33,270,468,-78,1,0,57,13,360,1,53298,1
2,26638,29882,31275,85798,28650,-4517,-1554,478,-7,-23,26,266,468,-84,1,0,57,13,400,1,53298,1
2,26630,29896,31275,85799,28664,-4522,-1554,486,-8,-21,15,260,470,-88,1,0,57,13,440,1,53298,1
2,26645,29875,31276,85800,28678,-4535,-1565,494,-14,-17,19,271,473,-83,1,0,57,13,480,1,53298,1
2,26621,29800,31275,85801,28691,-4527,-1554,506,-7,-20,22,274,468,-82,1,0,57,13,520,1,53298,1
2,26617,29753,31270,85802,28705,-4512,-1546,492,-1,-21,22,270,466,-82,1,0,57,13,560,1,53298,1
2,26632,29747,31259,85803,28718,-4527,-1559,482,-5,-21,29,263,469,-85,1,0,57,13,600,1,53298,1
2,26648,29754,31257,85804,28731,-4535,-1570,487,7,-38,37,265,475,-89,1,0,57,13,640,1,53298,1
2,26643,29783,31257,85805,28744,-4532,-1555,494,38,-42,41,268,468,-78,1,0,57,13,680,1,53298,1
2,26575,29781,31258,85806,28757,-4535,-1564,494,70,-24,65,265,467,-83,1,0,57,13,720,1,53298,1
2,26669,29795,31245,85807,28770,-4549,-1549,471,104,22,68,265,467,-85,1,0,57,13,760,1,53298,1
2,26702,29774,31247,85808,28782,-4551,-1523,512,158,68,26,270,474,-76,1,0,57,13,800,1,53298,1
2,26745,29735,31246,85809,28796,-4537,-1550,478,146,65,111,259,471,-85,1,0,57,13,840,1,53298,1
2,26751,29760,31234,85810,28809,-4627,-1510,459,39,-32,279,277,467,-81,1,0,57,13,880,1,53298,1
2,26787,29764,31215,85811,28822,-4517,-1566,455,21,-284,351,275,467,-89,1,0,57,13,920,1,53298,1
2,26892,29769,31207,85812,28835,-4583,-1524,515,430,-133,441,259,473,-73,1,0,57,13,960,1,53298,1
1,26815,29872,31196,85813,0,-4541,-1487,542,479,-44,576,266,464,-84,1,0,57,14,0,1,53298,1
2,26582,30031,31173,85814,28083,-4621,-1477,268,418,-42,972,267,469,-87,1,0,57,14,40,1,53298,1
2,26596,30227,31199,85815,28097,-4518,-1009,-145,969,210,1478,255,473,-81,1,0,57,14,80,1,53298,1
2,26560,30342,31298,85816,28112,-4659,489,-1072,207,895,3425,247,473,-81,1,0,57,14,120,1,53298,1
2,26525,30336,31259,85817,28127,-4888,-218,-1528,-3791,2769,7174,233,487,-65,1,0,57,14,160,1,53298,1
2,26587,30353,31279,85818,28142,-4875,-1347,-1418,-4540,5728,9107,227,485,-87,1,0,57,14,200,1,53298,1
2,26601,30382,31237,85819,28157,-4990,-2351,-696,-1914,9076,8440,204,498,-106,1,0,57,14,240,1,53298,1
2,26620,30072,31202,85820,28173,-4921,-3220,57,-396,11481,4753,198,520,-128,1,0,57,14,280,1,53298,1
2,26778,30506,31212,85821,28187,-4724,-3878,809,426,12343,-1738,210,536,-146,1,0,57,14,320,1,53298,1
2,27125,29916,31163,85822,28202,-4777,-3685,1485,1719,11274,-9158,231,553,-179,1,0,57,14,360,1,53298,1
2,26818,29944,31172,85823,28217,-4933,-2633,1643,2392,8188,-14861,286,558,-192,1,0,57,14,400,1,53298,1
2,26846,30281,31179,85824,28231,-5057,-2132,1307,1013,4041,-17581,344,546,-188,1,0,57,14,440,1,53298,1
2,26811,30530,31180,85825,28247,-5078,-1955,860,383,-258,-17636,399,521,-195,1,0,57,14,480,1,53298,1
2,26775,30530,31197,85826,28262,-5044,-1860,323,-175,-4370,-16498,438,478,-192,1,0,57,14,520,1,53298,1
2,26693,30138,31218,85827,28277,-5056,-1920,49,-579,-7543,-14451,464,430,-184,1,0,57,14,560,1,53298,1
2,27619,30462,31769,85828,28293,-5682,-1689,68,-2382,-10316,-13334,496,376,-158,1,0,57,14,600,1,53298,1
2,27192,29867,31451,85829,28316,-4223,-3081,-2157,16036,-10599,-22244,490,340,-128,1,0,57,14,640,1,53298,1
2,26713,30396,31335,85830,28334,-3575,-3968,-1478,-7673,-7931,-3933,493,319,-147,1,0,57,14,680,1,53298,1
2,26852,30171,31355,85831,28353,-4526,-3881,-17,2060,-2651,-5349,499,303,-135,1,0,57,14,720,1,53298,1
2,26844,29974,31368,85832,28374,-3237,-3109,-817,7685,-4541,-2793,496,290,-132,1,0,57,14,760,1,53298,1
2,26833,29805,31311,85833,28396,-3424,-3546,0,1261,-1703,-6473,492,276,-116,1,0,57,14,800,1,53298,1
2,27143,33103,31280,85834,28420,-3488,-3257,-3,1558,-1293,-6050,495,261,-125,1,0,57,14,840,1,53298,1
2,27625,29996,31307,85835,28442,-3464,-2442,-1170,6333,689,-3848,487,255,-97,1,0,57,14,880,1,53298,1
2,26956,30112,31345,85836,28463,-3549,-3011,-105,4847,2490,-992,493,255,-85,1,0,57,14,920,1,53298,1
2,28295,30013,31388,85837,28486,-3098,-3181,-353,1627,1854,1288,495,267,-83,1,0,57,14,960,1,53298,1
1,29451,30630,31532,85838,0,-2846,-2821,-350,2024,2165,2094,498,280,-80,1,0,57,15,0,1,53298,1
2,28439,30372,31639,85839,27641,-3496,-5624,1409,6663,3300,2526,492,292,-54,1,0,57,15,40,1,53298,1
2,28044,30564,31447,85840,27672,-3807,-4006,1024,2741,-294,14,489,295,-41,1,0,57,15,80,1,53298,1
2,26958,30595,31521,85841,27702,-3747,-2969,179,5042,173,-346,482,298,-24,1,0,57,15,120,1,53298,1
2,26769,30486,31601,85842,27734,-3797,-3619,573,5030,1808,-1256,495,295,-27,1,0,57,15,160,1,53298,1
2,26840,30635,31703,85843,27774,-3929,-3931,688,4115,2266,-1492,485,307,-13,1,0,57,15,200,1,53298,1
2,26710,30604,31672,85844,27816,-3363,-3641,586,2199,2136,-845,480,302,-10,1,0,57,15,240,1,53298,1
2,26634,30592,31658,85845,27858,-3179,-3740,803,1244,1947,-529,478,304,-4,1,0,57,15,280,1,53298,1
2,26625,30584,31672,85846,27901,-3168,-3748,808,1133,1765,-265,480,316,12,1,0,57,15,320,1,53298,1
2,26618,30360,31685,85847,27943,-3228,-3736,780,609,984,-70,473,313,9,1,0,57,15,360,1,53298,1
2,26518,30472,31674,85848,27983,-3294,-3677,637,248,384,-46,487,305,-7,1,0,57,15,400,1,53298,1
2,26535,30460,31683,85849,28023,-3325,-3690,599,319,197,-61,478,312,2,1,0,57,15,440,1,53298,1
2,26543,30534,31690,85850,28063,-3366,-3669,592,494,197,-72,482,310,8,1,0,57,15,480,1,53298,1
2,26543,30531,31720,85851,28103,-3333,-3698,650,605,243,-97,479,311,5,1,0,57,15,520,1,53298,1
2,26595,30475,31909,85852,28143,-3316,-3669,626,620,276,-70,474,308,4,1,0,57,15,560,1,53298,1
2,26562,30388,31736,85853,28184,-3323,-3685,669,436,210,-20,476,308,0,1,0,57,15,600,1,53298,1
2,26579,30379,31733,85854,28224,-3330,-3708,706,236,153,52,475,315,15,1,0,57,15,640,1,53298,1
2,26628,30344,31747,85855,28265,-3324,-3680,663,-5,86,77,474,318,2,1,0,57,15,680,1,53298,1
2,26565,31331,31704,85856,28305,-3316,-3675,643,-88,69,98,466,314,8,1,0,57,15,720,1,53298,1
2,26506,30518,31714,85857,28344,-3314,-3687,676,2,74,91,470,316,0,1,0,57,15,760,1,53298,1
2,26516,29936,31695,85858,28384,-3322,-3671,654,97,81,64,486,312,10,1,0,57,15,800,1,53298,1
2,26489,30990,31683,85859,28424,-3325,-3681,672,152,53,40,475,319,13,1,0,57,15,840,1,53298,1
2,26493,30312,31725,85860,28464,-3310,-3682,654,137,11,12,474,312,2,1,0,57,15,880,1,53298,1
2,26485,30035,31721,85861,28504,-3317,-3677,668,91,-19,31,480,320,6,1,0,57,15,920,1,53298,1
2,26486,29922,31717,85862,28543,-3343,-3679,678,57,-4,43,484,318,8,1,0,57,15,960,1,53298,1
1,26495,30239,31726,85863,0,-3328,-3667,679,18,41,51,481,323,7,1,0,57,16,0,1,53298,1
2,26481,30163,31730,85864,27196,-3316,-3663,678,10,74,57,485,321,15,1,0,57,16,40,1,53298,1
2,26466,30016,31714,85865,27235,-3305,-3651,680,19,74,52,469,311,3,1,0,57,16,80,1,53298,1
2,26478,30478,31740,85866,27274,-3318,-3664,656,28,61,47,478,320,18,1,0,57,16,120,1,53298,1
2,26472,30534,31741,85867,27313,-3324,-3664,678,14,51,30,479,319,9,1,0,57,16,160,1,53298,1
2,26482,30443,31742,85868,27351,-3329,-3665,680,49,76,15,480,320,6,1,0,57,16,200,1,53298,1
2,26479,30465,31744,85869,27389,-3300,-3665,686,78,61,17,477,317,7,1,0,57,16,240,1,53298,1
2,26480,30444,31745,85870,27427,-3330,-3679,648,126,43,47,482,310,12,1,0,57,16,280,1,53298,1
2,26481,30502,31752,85871,27465,-3341,-3672,659,119,50,63,481,313,13,1,0,57,16,320,1,53298,1
2,26480,30380,31750,85872,27504,-3332,-3664,669,21,51,37,471,319,11,1,0,57,16,360,1,53298,1
2,26479,29752,31724,85873,27541,-3311,-3676,681,-12,45,21,482,308,-2,1,0,57,16,400,1,53298,1
2,26478,29706,31718,85874,27579,-3317,-3658,682,-2,35,26,478,312,20,1,0,57,16,440,1,53298,1
2,26480,30109,31746,85875,27616,-3330,-3682,668,0,51,33,476,310,6,1,0,57,16,480,1,53298,1
2,26489,30288,31753,85876,27652,-3318,-3664,672,34,49,46,486,314,14,1,0,57,16,520,1,53298,1
2,26489,30180,31753,85877,27689,-3321,-3668,672,37,38,53,478,314,8,1,0,57,16,560,1,53298,1
2,26464,29885,31742,85878,27726,-3328,-3653,667,53,39,43,477,317,13,1,0,57,16,600,1,53298,1
2,26465,29744,31741,85879,27763,-3328,-3670,673,45,29,37,481,307,11,1,0,57,16,640,1,53298,1
2,26475,29699,31742,85880,27801,-3323,-3668,688,26,18,37,478,312,16,1,0,57,16,680,1,53298,1
2,26485,29776,31745,85881,27839,-3308,-3659,685,-7,13,40,477,307,15,1,0,57,16,720,1,53298,1
2,26478,30010,31750,85882,27877,-3335,-3670,679,7,30,40,474,314,14,1,0,57,16,760,1,53298,1
2,26508,30465,31759,85883,27914,-3320,-3664,683,13,40,27,478,322,12,1,0,57,16,800,1,53298,1
2,26519,30422,31759,85884,27952,-3317,-3671,674,17,40,37,482,320,14,1,0,57,16,840,1,53298,1
2,26507,30420,31759,85885,27988,-3325,-3665,691,20,34,32,476,318,0,1,0,57,16,880,1,53298,1
2,26502,30405,31758,85886,28025,-3323,-3673,685,1,31,31,470,316,8,1,0,57,16,920,1,53298,1
2,26514,30384,31759,85887,28063,-3311,-3661,696,20,12,38,477,305,15,1,0,57,16,960,1,53298,1
1,26499,29752,31752,85888,0,-3308,-3653,681,30,19,51,472,316,8,1,0,57,17,0,1,53298,1
2,26487,30285,31758,85889,26737,-3322,-3668,687,17,33,49,480,316,10,1,0,57,17,40,1,53298,1
2,26492,30239,31756,85890,26775,-3314,-3661,690,-2,25,41,475,319,19,1,0,57,17,80,1,53298,1
2,26517,30065,31751,85891,26812,-3333,-3669,684,-11,28,33,485,313,15,1,0,57,17,120,1,53298,1
2,26524,30177,31755,85892,26850,-3306,-3658,702,-19,28,23,474,316,16,1,0,57,17,160,1,53298,1
2,26512,30343,31760,85893,26888,-3331,-3653,687,1,23,31,475,315,17,1,0,57,17,200,1,53298,1
2,26511,30235,31760,85894,26925,-3336,-3671,681,15,30,34,476,318,12,1,0,57,17,240,1,53298,1
2,26514,30130,31762,85895,26963,-3320,-3666,695,18,24,40,479,313,9,1,0,57,17,280,1,53298,1
2,26520,30150,31759,85896,27001,-3323,-3663,699,-5,19,57,472,316,16,1,0,57,17,320,1,53298,1
2,26515,30204,31758,85897,27040,-3315,-3658,694,-19,15,58,476,316,14,1,0,57,17,360,1,53298,1
2,26529,30193,31760,85898,27079,-3350,-3660,683,-34,14,55,471,317,15,1,0,57,17,400,1,53298,1
2,26528,30205,31750,85899,27117,-3355,-3660,678,-142,16,31,480,314,16,1,0,57,17,440,1,53298,1
2,26512,30210,31725,85900,27155,-3498,-3733,598,-462,4,-27,476,308,14,1,0,57,17,480,1,53298,1
2,26496,30195,31611,85901,27188,-3782,-3774,183,-2833,-623,-215,478,318,4,1,0,57,17,520,1,53298,1
2,27567,29876,31388,85902,27215,-4110,-4378,553,-6948,-1673,619,480,314,-20,1,0,57,17,560,1,53298,1
2,26559,29935,31309,85903,27237,-3035,-4019,427,-8155,-1541,3385,483,317,-57,1,0,57,17,600,1,53298,1
2,26598,30001,31188,85904,27253,-4768,-2133,-1960,-12807,1651,5665,492,314,-106,1,0,57,17,640,1,53298,1
2,27124,29918,31191,85905,27265,-2267,949,-2422,-32768,-5107,14687,500,352,-164,1,0,57,17,680,1,53298,1
2,26436,29904,31087,85906,27278,-4896,-497,-675,-9663,5341,15991,480,392,-172,1,0,57,17,720,1,53298,1
2,27078,29838,31047,85907,27290,-4745,-1321,-110,-7878,6084,17283,446,440,-192,1,0,57,17,760,1,53298,1
2,26560,29708,31075,85908,27302,-4857,-2452,542,-4762,4586,18865,417,479,-203,1,0,57,17,800,1,53298,1
2,29544,29697,31371,85909,27313,-4739,-3384,1609,-2512,894,17202,380,516,-202,1,0,57,17,840,1,53298,1
2,30410,29962,31380,85910,27325,-4547,-3692,1184,-3332,-4342,13932,340,520,-192,1,0,57,17,880,1,53298,1
2,30505,29707,31219,85911,27337,-4265,-3329,624,-1574,-8500,9648,319,515,-169,1,0,57,17,920,1,53298,1
2,30615,29802,31625,85912,27348,-4123,-3188,-138,-1730,-10952,6039,295,505,-145,1,0,57,17,960,1,53298,1
1,31198,30072,31540,85913,0,-4105,-2659,-542,2389,-10775,2816,277,497,-125,1,0,57,18,0,1,53298,1
2,30531,29892,31268,85914,26261,-4378,-2050,-570,3919,-9599,560,275,493,-109,1,0,57,18,40,1,53298,1
2,30508,29760,31204,85915,26274,-4415,-1709,-710,3444,-8013,-1276,282,476,-92,1,0,57,18,80,1,53298,1
2,30549,29955,31549,85916,26288,-4505,-1809,-819,2549,-5820,-2296,271,471,-87,1,0,57,18,120,1,53298,1
2,30536,30017,31230,85917,26301,-4626,-1649,-398,4679,-3366,-3004,280,468,-86,1,0,57,18,160,1,53298,1
2,30530,30051,31214,85918,26314,-4720,-1522,37,5442,-2142,-3737,279,455,-77,1,0,57,18,200,1,53298,1
2,30550,29939,31200,85919,26327,-4521,-1284,-262,3871,-1568,-4023,290,468,-68,1,0,57,18,240,1,53298,1
2,30800,29905,31237,85920,26339,-5542,-423,-468,4038,846,-1833,289,465,-71,1,0,57,18,280,1,53298,1
2,31065,30136,31315,85921,26351,-4913,-1897,1389,3417,1459,-691,284,460,-82,1,0,57,18,320,1,53298,1
2,30635,30183,31402,85922,26363,-4543,-1013,932,1814,654,-637,288,460,-74,1,0,57,18,360,1,53298,1
2,30627,30670,31323,85923,26375,-4426,-1395,664,758,138,-199,290,466,-68,1,0,57,18,400,1,53298,1
2,30731,32529,31305,85924,26386,-4724,-1674,347,-259,353,-347,284,472,-78,1,0,57,18,440,1,53298,1
2,30743,30088,31309,85925,26398,-5074,-1558,246,-35,766,-488,290,470,-82,1,0,57,18,480,1,53298,1
2,30764,30495,31333,85926,26411,-4471,-1664,437,127,691,-691,292,472,-74,1,0,57,18,520,1,53298,1
2,30766,29955,31311,85927,26423,-4379,-1604,547,97,558,-645,288,474,-90,1,0,57,18,560,1,53298,1
2,30836,29848,31350,85928,26435,-4513,-1652,408,-138,382,-516,289,473,-73,1,0,57,18,600,1,53298,1
2,30801,29694,31323,85929,26447,-4580,-1658,380,-53,176,-379,295,471,-91,1,0,57,18,640,1,53298,1
2,30762,29827,31310,85930,26459,-4487,-1678,448,6,-11,-283,284,464,-94,1,0,57,18,680,1,53298,1
2,31002,29825,31369,85931,26470,-4480,-1673,445,38,-62,-148,285,467,-85,1,0,57,18,720,1,53298,1
2,30813,29728,31310,85932,26482,-4506,-1660,439,50,-11,-72,292,466,-86,1,0,57,18,760,1,53298,1
2,30898,30028,31370,85933,26494,-4503,-1640,438,21,87,-63,299,463,-87,1,0,57,18,800,1,53298,1
2,30802,29744,31338,85934,26506,-4495,-1669,429,-48,151,-74,286,468,-78,1,0,57,18,840,1,53298,1
2,30828,29832,31354,85935,26518,-4508,-1675,419,-47,161,-60,294,464,-84,1,0,57,18,880,1,53298,1
2,30847,29915,31384,85936,26531,-4512,-1677,424,-17,102,-60,289,471,-91,1,0,57,18,920,1,53298,1
2,30935,30024,31459,85937,26543,-4488,-1669,402,-11,7,-43,289,469,-87,1,0,57,18,960,1,53298,1
1,30794,29959,31338,85938,0,-4494,-1679,395,10,-68,9,296,474,-96,1,0,57,19,0,1,53298,1
2,30788,29855,31330,85939,25802,-4497,-1675,424,50,-151,69,284,478,-80,1,0,57,19,40,1,53298,1
2,30778,29780,31313,85940,25814,-4485,-1658,437,89,-193,98,286,464,-88,1,0,57,19,80,1,53298,1
2,30802,29846,31332,85941,25827,-4497,-1657,454,74,-143,78,290,468,-76,1,0,57,19,120,1,53298,1
2,30791,29834,31335,85942,25841,-4505,-1673,446,8,-47,21,294,474,-86,1,0,57,19,160,1,53298,1
2,30788,29781,31319,85943,25853,-4495,-1674,441,-36,41,-29,284,464,-88,1,0,57,19,200,1,53298,1
2,30792,29787,31342,85944,25865,-4487,-1661,430,-58,99,-43,293,467,-91,1,0,57,19,240,1,53298,1
2,30785,29831,31323,85945,25878,-4513,-1670,426,-66,102,-44,296,472,-88,1,0,57,19,280,1,53298,1
2,30788,29877,31326,85946,25890,-4503,-1680,418,-55,63,-36,287,469,-93,1,0,57,19,320,1,53298,1
2,30788,29910,31322,85947,25903,-4501,-1673,425,-27,10,4,288,470,-88,1,0,57,19,360,1,53298,1
2,30792,29936,31330,85948,25916,-4509,-1685,421,2,-36,31,292,472,-90,1,0,57,19,400,1,53298,1
2,30803,29973,31335,85949,25928,-4505,-1678,437,11,-58,41,296,468,-82,1,0,57,19,440,1,53298,1
2,30803,29952,31345,85950,25940,-4498,-1680,430,-3,-42,32,284,470,-80,1,0,57,19,480,1,53298,1
2,30794,29944,31332,85951,25952,-4501,-1677,444,-5,-12,28,284,472,-96,1,0,57,19,520,1,53298,1
2,30810,29931,31348,85952,25964,-4490,-1663,440,-12,4,18,284,470,-82,1,0,57,19,560,1,53298,1
2,30807,29901,31349,85953,25976,-4503,-1668,425,-28,-4,18,296,466,-92,1,0,57,19,600,1,53298,1
2,30791,29887,31332,85954,25988,-4501,-1675,430,-10,-12,32,289,473,-87,1,0,57,19,640,1,53298,1
2,30791,29856,31335,85955,26001,-4501,-1670,427,-1,-27,37,285,465,-79,1,0,57,19,680,1,53298,1
2,30804,29869,31339,85956,26014,-4487,-1664,431,-7,-43,32,287,467,-83,1,0,57,19,720,1,53298,1
2,30799,29869,31336,85957,26026,-4492,-1662,435,-6,-42,22,297,473,-91,1,0,57,19,760,1,53298,1
2,30812,29849,31348,85958,26037,-4506,-1670,431,-15,-22,17,292,466,-86,1,0,57,19,800,1,53298,1
2,30800,29832,31338,85959,26049,-4495,-1663,433,-7,-18,23,296,466,-90,1,0,57,19,840,1,53298,1
2,30796,29830,31335,85960,26062,-4504,-1673,422,-4,-17,32,297,469,-91,1,0,57,19,880,1,53298,1
2,30793,29806,31330,85961,26074,-4496,-1668,421,-9,-18,22,302,468,-88,1,0,57,19,920,1,53298,1
2,30790,29789,31329,85962,26086,-4502,-1674,434,-10,-15,15,297,467,-83,1,0,57,19,960,1,53298,1
1,30787,29778,31326,85963,0,-4527,-1691,430,-14,-4,21,291,473,-87,1,0,57,20,0,0,53298,1
2,30789,29781,31325,85964,25346,-4500,-1664,426,-29,-5,14,288,468,-82,1,0,57,20,40,0,53298,1
2,30785,29777,31326,85965,25358,-4515,-1680,422,-21,-1,4,294,476,-94,1,0,57,20,80,0,53298,1
2,30790,29782,31324,85966,25370,-4497,-1671,427,-23,4,3,293,465,-89,1,0,57,20,120,0,53298,1
2,30786,29776,31327,85967,25383,-4497,-1678,419,-17,2,15,294,466,-90,1,0,57,20,160,0,53298,1
2,30793,29784,31326,85968,25395,-4493,-1678,431,-11,-9,26,290,466,-86,1,0,57,20,200,0,53298,1
2,30786,29782,31327,85969,25408,-4500,-1676,430,-4,-18,33,296,466,-84,1,0,57,20,240,0,53298,1
2,30788,29796,31321,85970,25420,-4502,-1661,432,2,-36,30,292,464,-74,1,0,57,20,280,0,53298,1
2,30785,29806,31321,85971,25432,-4500,-1683,440,3,-39,31,288,476,-88,1,0,57,20,320,0,53298,1
2,30789,29791,31325,85972,25444,-4500,-1674,435,-1,-25,33,287,465,-93,1,0,57,20,360,0,53298,1
2,30789,29822,31324,85973,25456,-4490,-1667,439,-7,-13,22,290,468,-98,1,0,57,20,400,0,53298,1
2,30787,29840,31329,85974,25469,-4501,-1676,420,-24,-6,10,286,466,-92,1,0,57,20,440,0,53298,1
2,30789,29837,31322,85975,25481,-4502,-1683,441,-15,-10,7,295,469,-85,1,0,57,20,480,0,53298,1
2,30790,29842,31325,85976,25494,-4499,-1672,430,-17,-2,24,290,464,-92,1,0,57,20,520,0,53298,1
2,30789,29832,31325,85977,25507,-4517,-1690,423,-6,-17,22,286,472,-78,1,0,57,20,560,0,53298,1
2,30789,29860,31326,85978,25519,-4508,-1680,429,-7,-19,21,291,475,-95,1,0,57,20,600,0,53298,1
2,30787,29840,31327,85979,25532,-4512,-1673,424,-5,-38,23,287,473,-81,1,0,57,20,640,0,53298,1
2,30791,29842,31327,85980,25545,-4500,-1675,430,-1,-37,26,292,458,-84,1,0,57,20,680,0,53298,1
2,30785,29833,31326,85981,25558,-4510,-1667,431,10,-21,32,289,473,-89,1,0,57,20,720,0,53298,1
2,30788,29850,31326,85982,25571,-4546,-1715,413,81,27,52,288,464,-86,1,0,57,20,760,0,53298,1
2,30785,29840,31321,85983,25584,-4548,-1660,403,227,106,115,289,471,-91,1,0,57,20,800,0,53298,1
2,30751,29738,31286,85984,25597,-4923,-1650,267,391,259,387,288,462,-88,1,0,57,20,840,0,53298,1
2,30749,29910,31244,85985,25611,-4708,-1673,321,240,-81,864,288,468,-92,1,0,57,20,880,0,53298,1
2,30804,29864,31260,85986,25624,-4170,-1338,-116,2931,1256,1493,274,468,-88,1,0,57,20,920,0,53298,1
2,30776,30707,31235,85987,25639,-4355,125,-534,3751,2875,2807,275,483,-95,1,0,57,20,960,0,53298,1
1,30740,29779,31239,85988,0,-4697,-81,-741,642,4874,5048,257,483,-89,1,0,57,21,0,0,53298,1
2,30804,29920,31304,85989,24892,-4925,-532,-841,-1170,6303,6696,240,494,-90,1,0,57,21,40,0,53298,1
2,30746,30303,31253,85990,24907,-4872,-904,-1131,-867,7536,7454,225,505,-115,1,0,57,21,80,0,53298,1
2,30713,30305,31245,85991,24921,-4772,-1866,-1008,553,8788,7001,207,505,-121,1,0,57,21,120,0,53298,1
2,30653,32790,31203,85992,24936,-4922,-2243,-582,3031,10326,5431,196,518,-130,1,0,57,21,160,0,53298,1
2,30635,31297,31155,85993,24950,-4767,-2968,-10,1238,10638,2286,182,532,-170,1,0,57,21,200,0,53298,1
2,30657,29924,31174,85994,24964,-4485,-3515,539,-452,9734,-2196,199,547,-181,1,0,57,21,240,0,53298,1
2,30675,30139,31153,85995,24977,-4504,-3604,1244,-642,7446,-7270,228,558,-210,1,0,57,21,280,0,53298,1
2,30734,29865,31174,85996,24991,-4493,-3727,1231,-717,4032,-12351,268,558,-214,1,0,57,21,320,0,53298,1
2,30825,30075,31382,85997,25006,-4871,-3600,583,-863,489,-16689,329,555,-211,1,0,57,21,360,0,53298,1
2,30837,30353,31153,85998,25020,-5391,-2478,6,855,-2170,-19314,395,531,-209,1,0,57,21,400,0,53298,1
2,30877,29999,31300,85999,25035,-6113,-1382,-198,3530,-4879,-19956,453,481,-189,1,0,57,21,440,0,53298,1
2,30957,30129,31245,86000,25049,-5977,-1433,-633,1208,-7834,-18177,481,423,-181,1,0,57,21,480,0,53298,1
2,31096,29993,31613,86001,25063,-5362,-1942,-907,332,-9733,-14722,488,376,-164,1,0,57,21,520,0,53298,1
2,27116,31041,31358,86002,25078,-4584,746,-4627,16946,-5745,-20987,482,326,-122,1,0,57,21,560,0,53298,1
2,27155,31412,31421,86003,25097,-2438,-1844,-294,9098,-8222,-4205,481,323,-115,1,0,57,21,600,0,53298,1
2,27140,32585,31201,86004,25113,-3099,-3328,-315,1337,-4777,-2280,481,293,-123,1,0,57,21,640,0,53298,1
2,27543,30083,31461,86005,25131,-3656,-2897,-103,8983,-4332,-1343,475,293,-97,1,0,57,21,680,0,53298,1
2,30408,31490,31235,86006,25152,-3168,-3021,-218,5216,-5258,689,470,284,-90,1,0,57,21,720,0,53298,1
2,30516,31628,31290,86007,25174,-3080,-4152,-620,1245,-3230,-1406,463,277,-87,1,0,57,21,760,0,53298,1
2,27760,29784,31373,86008,25194,-3868,-2473,669,3766,925,-1311,473,297,-69,1,0,57,21,800,0,53298,1
2,27789,30465,31464,86009,25213,-3262,-3416,-580,3411,447,2570,469,299,-59,1,0,57,21,840,0,53298,1
2,28815,30612,31570,86010,25233,-3675,-3566,1565,3430,2702,1224,468,312,-68,1,0,57,21,880,0,53298,1
2,27460,30674,31566,86011,25260,-3267,-3804,1202,1867,947,-539,468,310,-34,1,0,57,21,920,0,53298,1
2,26748,30671,31497,86012,25289,-3334,-4571,614,1002,-528,-1648,479,311,-35,1,0,57,21,960,0,53298,1
1,27385,30528,31569,86013,0,-3584,-3799,510,5392,1362,-1083,473,315,-11,1,0,57,22,0,0,53298,1
2,26824,30747,31778,86014,24455,-3954,-3314,784,5524,1838,-653,472,328,4,1,0,57,22,40,0,53298,1
2,26705,30849,32089,86015,24497,-3743,-3554,756,3289,1700,-797,462,330,8,1,0,57,22,80,0,53298,1
