sensorStatus,cap1,cap2,cap3,counter,microseconds_since_last_tick,accX,accY,accZ,gyroX,gyroY,gyroZ,magnetX,magnetY,magnetZ,day,hour,min,sec,msec,sync,battery_fuel,crc_good
1,31643,30526,32117,39464,7719,-4942,-422,-441,1924,192,-98,225,503,-135,1,0,26,20,40,0,53298,1
2,31639,30546,32137,39465,7737,-4580,-1042,-958,-638,239,-601,219,501,-151,1,0,26,20,80,0,53298,1
2,31610,30538,32155,39466,7754,-4449,-1836,-1913,1722,693,-1260,211,507,-143,1,0,26,20,120,0,53298,1
2,31689,30560,32251,39467,7772,-4214,-815,-214,9765,1540,-1206,213,517,-151,1,0,26,20,160,0,53298,1
2,31703,30567,32307,39468,7788,-4331,159,588,10338,1140,-406,210,520,-152,1,0,26,20,200,0,53298,1
2,31712,30544,32275,39469,7805,-4802,492,1161,3249,-49,-23,215,517,-137,1,0,26,20,240,0,53298,1
2,31668,30544,32172,39470,7822,-5325,820,1664,-4995,-2001,666,205,505,-141,1,0,26,20,280,0,53298,1
2,31670,30346,32100,39471,7838,-4931,233,826,-9883,-3391,2074,219,505,-129,1,0,26,20,320,0,53298,1
2,31640,30314,32065,39472,7854,-4830,-1289,-2861,-15309,-2963,961,235,487,-147,1,0,26,20,360,0,53298,1
2,31567,30493,32024,39473,7870,-4126,-2665,-4982,-10481,751,-891,226,502,-146,1,0,26,20,400,0,53298,1
2,31524,30465,32004,39474,7886,-3808,-1783,-589,9537,4559,-749,228,504,-148,1,0,26,20,440,0,53298,1
2,31540,30450,32024,39475,7903,-4404,33,2099,15317,3442,-918,222,506,-144,1,0,26,20,480,0,53298,1
2,31710,30544,32424,39476,7918,-5521,27,-1164,5943,289,299,216,506,-150,1,0,26,20,520,0,53298,1
2,31707,30607,32429,39477,7934,-4924,-1724,-1676,-1962,1010,-417,221,517,-143,1,0,26,20,560,0,53298,1
2,31629,30509,32291,39478,7950,-4994,755,2029,1611,-387,-718,216,512,-142,1,0,26,20,600,0,53298,1
2,31655,30516,32214,39479,7966,-4027,936,3150,1209,-3570,2527,208,500,-138,1,0,26,20,640,0,53298,1
2,31649,30519,32220,39480,7982,-4531,-1301,-2525,-10209,-5442,2916,221,495,-137,1,0,26,20,680,0,53298,1
2,31605,30405,32236,39481,7999,-4255,-3947,-4911,-16417,-158,-80,225,497,-147,1,0,26,20,720,0,53298,1
2,31606,30375,32200,39482,8015,-4878,-180,976,5078,2279,-1414,213,501,-133,1,0,26,20,760,0,53298,1
2,31645,30368,32200,39483,8032,-3980,262,2289,9048,1825,-328,225,501,-143,1,0,26,20,800,0,53298,1
2,31656,30387,32224,39484,8049,-5228,-713,-1590,1350,-737,1059,218,500,-132,1,0,26,20,840,0,53298,1
2,31605,30457,32233,39485,8066,-4610,-1861,-2146,-8030,1095,-620,223,503,-147,1,0,26,20,880,0,53298,1
2,31630,30371,32231,39486,8083,-4992,-50,1121,-224,1024,-791,223,499,-139,1,0,26,20,920,0,53298,1
2,31680,30362,32236,39487,8099,-4015,-150,1169,708,-882,545,217,493,-139,1,0,26,20,960,0,53298,1
1,31686,30378,32261,39488,7255,-4554,-1548,-2737,-4034,-2082,788,227,499,-137,1,0,26,21,0,1,53298,1
2,31660,30445,32283,39489,7271,-4345,-1820,-1937,-4297,785,-737,232,504,-130,1,0,26,21,40,1,53298,1
2,31659,30449,32269,39490,7288,-4948,-48,1216,5575,897,-186,215,495,-135,1,0,26,21,80,1,53298,1
2,31709,30473,32272,39491,7304,-4753,124,737,3433,-440,771,221,505,-135,1,0,26,21,120,1,53298,1
2,31706,30531,32280,39492,7320,-4603,-1120,-1511,-484,-1118,910,215,507,-125,1,0,26,21,160,1,53298,1
2,31680,30475,32293,39493,7336,-4442,-864,-495,-1621,139,-13,212,496,-136,1,0,26,21,200,1,53298,1
2,31663,30337,32275,39494,7352,-4474,-728,-58,-1100,868,-422,229,499,-133,1,0,26,21,240,1,53298,1
2,31669,30349,32276,39495,7367,-4777,-720,-542,767,512,74,219,497,-135,1,0,26,21,280,1,53298,1
2,31674,30383,32279,39496,7383,-4691,-576,-449,1345,182,204,221,495,-145,1,0,26,21,320,1,53298,1
2,31685,30567,32290,39497,7399,-4555,-665,-189,-45,153,86,222,502,-136,1,0,26,21,360,1,53298,1
2,31676,30505,32282,39498,7415,-4550,-802,-543,-711,74,136,219,493,-127,1,0,26,21,400,1,53298,1
2,31668,30474,32280,39499,7431,-4607,-720,-571,238,-35,140,215,497,-131,1,0,26,21,440,1,53298,1
2,31656,30391,32258,39500,7447,-4588,-648,-331,464,-83,14,216,498,-140,1,0,26,21,480,1,53298,1
2,31658,30404,32255,39501,7464,-4571,-706,-421,-7,-155,-6,227,499,-135,1,0,26,21,520,1,53298,1
2,31680,30625,32291,39502,7479,-4582,-743,-456,-162,-217,-15,222,500,-146,1,0,26,21,560,1,53298,1
2,31690,30740,32290,39503,7494,-4592,-734,-427,-31,-311,42,228,510,-144,1,0,26,21,600,1,53298,1
2,31683,30772,32289,39504,7509,-4559,-718,-404,64,-352,116,222,500,-138,1,0,26,21,640,1,53298,1
2,31683,30765,32288,39505,7525,-4600,-691,-369,152,-299,153,219,499,-129,1,0,26,21,680,1,53298,1
2,31689,30755,32285,39506,7540,-4605,-681,-356,89,-175,130,213,503,-141,1,0,26,21,720,1,53298,1
2,31673,30746,32278,39507,7557,-4591,-701,-389,48,-28,100,226,498,-136,1,0,26,21,760,1,53298,1
2,31669,30732,32274,39508,7573,-4594,-710,-422,78,66,59,222,492,-134,1,0,26,21,800,1,53298,1
2,31671,30766,32274,39509,7588,-4594,-699,-372,187,114,35,223,503,-135,1,0,26,21,840,1,53298,1
2,31685,30783,32290,39510,7604,-4593,-709,-429,73,91,-1,215,497,-139,1,0,26,21,880,1,53298,1
2,31694,30803,32311,39511,7620,-5466,-306,-1045,-1396,647,-587,217,503,-133,1,0,26,21,920,1,53298,1
2,31644,30759,32250,39512,7620,-5021,-885,-241,-956,572,-817,215,501,-137,1,0,26,21,960,1,53298,1
1,31627,30756,32199,39513,6790,-4085,-721,-84,1269,-281,-77,222,506,-142,1,0,26,22,0,1,53298,1
2,31627,30763,32190,39514,6805,-3794,-965,-211,1341,-338,415,230,502,-138,1,0,26,22,40,1,53298,1
2,31619,30773,32162,39515,6821,-4121,-912,-585,-336,291,131,224,496,-144,1,0,26,22,80,1,53298,1
2,31697,30385,32251,39516,6837,-4638,-807,-580,-335,757,-87,228,506,-142,1,0,26,22,120,1,53298,1
2,31782,30643,32304,39517,6853,-4689,-617,-439,943,753,651,227,499,-135,1,0,26,22,160,1,53298,1
2,31805,30746,32305,39518,6869,-4608,-686,-515,1580,184,625,218,500,-144,1,0,26,22,200,1,53298,1
2,31771,30816,32265,39519,6885,-4891,-938,-872,1349,-75,294,213,513,-141,1,0,26,22,240,1,53298,1
2,31732,30682,32232,39520,6901,-4546,-1058,-1395,5440,-363,974,214,508,-146,1,0,26,22,280,1,53298,1
2,31726,30777,32230,39521,6917,-4151,-1150,-1223,9494,378,643,197,503,-133,1,0,26,22,320,1,53298,1
2,31691,30829,32211,39522,6933,-4208,-553,-316,12179,1345,364,203,521,-135,1,0,26,22,360,1,53298,1
2,31669,30737,32221,39523,6949,-4852,603,1184,9071,1199,-183,186,524,-128,1,0,26,22,400,1,53298,1
2,31654,30444,32160,39524,6965,-5511,791,1739,-1080,-1169,41,199,515,-127,1,0,26,22,440,1,53298,1
2,31639,30519,32139,39525,6981,-5081,487,708,-12219,-3135,545,219,499,-133,1,0,26,22,480,1,53298,1
2,31510,32247,31948,39526,6997,-4552,-708,-539,-18220,-3713,165,223,495,-139,1,0,26,22,520,1,53298,1
2,31659,30366,32060,39527,7012,-4342,-1276,-1311,-17803,-2686,-875,235,481,-133,1,0,26,22,560,1,53298,1
2,31672,30601,32095,39528,7027,-4579,-1011,-1233,-10796,-1711,-601,246,490,-132,1,0,26,22,600,1,53298,1
2,31712,30667,32130,39529,7044,-4277,-929,-1540,-4977,-1088,-135,235,489,-133,1,0,26,22,640,1,53298,1
2,31705,30646,32239,39530,7062,-4221,-3026,-4321,-1761,1448,-729,237,493,-141,1,0,26,22,680,1,53298,1
2,31925,30680,32451,39531,7078,-3767,-1348,-154,14379,3864,-1077,227,499,-135,1,0,26,22,720,1,53298,1
2,31926,30698,32428,39532,7094,-4995,1183,2936,15397,1719,-1250,224,498,-136,1,0,26,22,760,1,53298,1
2,31928,30694,32370,39533,7111,-5121,1819,2537,2623,-1840,1295,226,496,-138,1,0,26,22,800,1,53298,1
2,31888,30689,32386,39534,7127,-5719,-1779,-3724,-9743,-3150,2030,225,491,-143,1,0,26,22,840,1,53298,1
2,31830,30640,32373,39535,7143,-4272,-3321,-3143,-1439,1676,-241,229,499,-151,1,0,26,22,880,1,53298,1
2,31815,30711,32333,39536,7160,-4192,67,2021,14923,3213,-2086,226,510,-130,1,0,26,22,920,1,53298,1
2,31874,30667,32333,39537,7160,-3596,2009,4169,12943,535,429,219,501,-129,1,0,26,22,960,1,53298,1
1,31911,30684,32421,39538,6327,-5428,-1227,-2137,-6002,-1462,1959,216,502,-138,1,0,26,23,0,0,53298,1
2,31854,30696,32426,39539,6345,-5226,-3277,-3934,-10981,1557,95,215,503,-147,1,0,26,23,40,0,53298,1
2,31780,30674,32292,39540,6363,-4932,319,1325,3794,2393,-2192,209,513,-141,1,0,26,23,80,0,53298,1
2,31800,30664,32255,39541,6380,-3425,692,3086,5792,-93,632,215,501,-129,1,0,26,23,120,0,53298,1
2,31860,30672,32311,39542,6396,-4552,-1105,-1809,-4831,-3116,2553,228,492,-140,1,0,26,23,160,0,53298,1
2,31784,30570,32304,39543,6412,-4467,-3273,-5057,-14605,273,-266,220,490,-144,1,0,26,23,200,0,53298,1
2,31770,30551,32271,39544,6430,-5361,468,1093,4251,1265,-1373,225,495,-135,1,0,26,23,240,0,53298,1
2,31827,30556,32316,39545,6447,-4512,573,1432,5344,104,-42,221,487,-139,1,0,26,23,280,0,53298,1
2,31968,30565,32604,39546,6464,-5336,-1731,-2864,-145,-1444,1281,224,502,-138,1,0,26,23,320,0,53298,1
2,31886,30591,32555,39547,6480,-4120,-1911,-972,-250,1189,-758,223,505,-141,1,0,26,23,360,0,53298,1
2,31809,30544,32400,39548,6497,-4402,652,2917,5507,781,-887,224,488,-144,1,0,26,23,400,0,53298,1
2,31867,30535,32400,39549,6513,-3240,1169,2479,969,-2683,1804,222,486,-136,1,0,26,23,440,0,53298,1
2,31873,30538,32457,39550,6530,-5162,-2023,-4436,-13138,-2401,1965,235,501,-139,1,0,26,23,480,0,53298,1
2,31814,30485,32439,39551,6547,-4589,-3942,-3851,-10877,2930,-2036,220,500,-136,1,0,26,23,520,0,53298,1
2,31789,30479,32397,39552,6564,-5185,304,1974,13365,3000,-1569,212,502,-134,1,0,26,23,560,0,53298,1
2,31870,30489,32490,39553,6581,-4375,1712,1575,9887,690,328,222,494,-134,1,0,26,23,600,0,53298,1
2,31841,30468,32514,39554,6600,-5267,-2092,-2989,-1451,-511,821,212,500,-146,1,0,26,23,640,0,53298,1
2,31768,30463,32478,39555,6618,-4211,-2049,-1088,-737,2142,-1563,222,508,-146,1,0,26,23,680,0,53298,1
2,31717,30441,32362,39556,6635,-3938,640,2657,5015,1107,-1480,214,508,-140,1,0,26,23,720,0,53298,1
2,31798,30458,32352,39557,6652,-3714,1210,2840,4214,-2833,2167,221,499,-129,1,0,26,23,760,0,53298,1
2,31673,30443,32339,39558,6669,-5352,-2081,-3174,-10173,-3959,2781,218,492,-134,1,0,26,23,800,0,53298,1
2,31675,30731,32239,39559,6687,-5527,-1875,-3135,-12744,217,-762,226,500,-136,1,0,26,23,840,0,53298,1
2,31688,30526,32226,39560,6705,-5672,174,1579,4373,-33,-473,216,494,-136,1,0,26,23,880,0,53298,1
2,31649,30510,32216,39561,6722,-4386,130,-360,3296,-658,709,212,492,-136,1,0,26,23,920,0,53298,1
2,31626,30527,32205,39562,6722,-4118,-2368,-2864,-1561,270,314,221,499,-141,1,0,26,23,960,0,53298,1
1,31602,30445,32214,39563,5863,-3858,-1856,72,2850,2722,-1034,216,500,-126,1,0,26,24,0,0,53298,1
2,31640,30344,32203,39564,5880,-3882,373,2488,4799,1731,-930,225,503,-131,1,0,26,24,40,0,53298,1
2,31670,30399,32238,39565,5898,-4556,974,236,-371,-1131,1194,226,494,-134,1,0,26,24,80,0,53298,1
2,31652,30320,32275,39566,5915,-5083,-2003,-3869,-10152,-674,152,227,495,-139,1,0,26,24,120,0,53298,1
2,31620,30281,32250,39567,5932,-5205,-1108,-633,-1771,1230,-1386,228,502,-152,1,0,26,24,160,0,53298,1
2,31642,30299,32202,39568,5949,-4804,19,1734,5950,44,-199,213,497,-135,1,0,26,24,200,0,53298,1
2,31649,30290,32245,39569,5966,-4599,350,-188,2985,-2151,1503,225,499,-131,1,0,26,24,240,0,53298,1
2,31613,30303,32261,39570,5983,-4395,-1855,-2525,-7115,-786,-22,233,503,-137,1,0,26,24,280,0,53298,1
2,31588,30319,32225,39571,5999,-4634,-1095,-59,-946,1393,-891,217,501,-137,1,0,26,24,320,0,53298,1
2,31614,30292,32223,39572,6016,-4199,-44,1297,4036,945,-280,221,493,-127,1,0,26,24,360,0,53298,1
2,31647,30299,32270,39573,6032,-4931,-231,-773,1694,-555,860,220,506,-146,1,0,26,24,400,0,53298,1
2,31620,30285,32264,39574,6049,-4844,-1340,-1720,-3610,434,-421,227,497,-141,1,0,26,24,440,0,53298,1
2,31619,30279,32229,39575,6066,-4795,-393,341,998,937,-614,226,500,-140,1,0,26,24,480,0,53298,1
2,31625,30270,32221,39576,6083,-4253,-447,381,1558,25,217,216,500,-140,1,0,26,24,520,0,53298,1
2,31630,30277,32212,39577,6099,-4246,-1208,-807,17,-894,679,213,499,-129,1,0,26,24,560,0,53298,1
2,31646,30279,32208,39578,6115,-4652,-757,-219,409,-604,712,220,496,-136,1,0,26,24,600,0,53298,1
2,31663,30276,32251,39579,6131,-4847,-653,-962,-966,-393,517,229,501,-137,1,0,26,24,640,0,53298,1
2,31743,30318,32322,39580,6148,-5769,-496,-917,-2009,492,-722,222,492,-134,1,0,26,24,680,0,53298,1
2,31761,30362,32336,39581,6165,-4897,-344,378,1211,-194,44,229,497,-131,1,0,26,24,720,0,53298,1
2,31803,30368,32355,39582,6181,-3720,-788,-148,251,-759,438,226,492,-134,1,0,26,24,760,0,53298,1
2,31772,30393,32336,39583,6196,-4488,-946,-1231,-2925,448,-488,232,494,-144,1,0,26,24,800,0,53298,1
2,31675,30385,32109,39584,6212,-4838,-1080,-715,-2135,1737,-1055,223,491,-155,1,0,26,24,840,0,53298,1
2,31608,30550,31972,39585,6229,-4329,-678,52,2963,1167,-30,236,500,-156,1,0,26,24,880,0,53298,1
2,31629,30349,32072,39586,6245,-3997,-774,147,3028,240,587,230,498,-150,1,0,26,24,920,0,53298,1
2,31845,30590,32439,39587,6245,-4987,-413,-613,-1941,155,-78,226,494,-142,1,0,26,24,960,0,53298,1
1,31848,30551,32465,39588,5399,-4821,-784,-519,-1903,-11,-15,225,491,-153,1,0,26,25,0,0,53298,1
2,31821,30475,32406,39589,5415,-4074,-938,-290,377,-357,431,223,497,-151,1,0,26,25,40,0,53298,1
2,31784,30365,32376,39590,5431,-3677,-1462,-274,1245,-550,575,232,496,-146,1,0,26,25,80,0,53298,1
2,31821,30505,32423,39591,5446,-5884,-181,-1322,-3067,460,-968,231,493,-161,1,0,26,25,120,0,53298,1
2,31845,30709,32398,39592,5462,-5104,-447,-55,1223,390,0,227,485,-149,1,0,26,25,160,0,53298,1
2,31778,30395,32336,39593,5477,-3658,-827,233,3188,-574,1122,228,492,-140,1,0,26,25,200,0,53298,1
2,31773,30413,32356,39594,5492,-2976,-1767,72,660,-809,860,215,497,-145,1,0,26,25,240,0,53298,1
2,31836,30457,32422,39595,5508,-5577,-183,-1798,-4567,324,-1118,234,490,-154,1,0,26,25,280,0,53298,1
2,31823,30458,32422,39596,5524,-6013,-474,-440,-852,1273,-849,225,497,-153,1,0,26,25,320,0,53298,1
2,31769,30457,32320,39597,5539,-4133,-492,258,4358,37,750,218,492,-148,1,0,26,25,360,0,53298,1
2,31766,30453,32314,39598,5555,-3877,-929,-106,1554,-792,739,221,487,-139,1,0,26,25,400,0,53298,1
2,31784,30458,32337,39599,5570,-4919,-822,-989,-3700,-30,-431,238,500,-152,1,0,26,25,440,0,53298,1
2,31761,30445,32296,39600,5585,-4824,-721,-463,-418,214,-99,219,497,-151,1,0,26,25,480,0,53298,1
2,31737,30446,32291,39601,5602,-3571,-1146,115,2556,-178,615,221,491,-147,1,0,26,25,520,0,53298,1
2,31775,30465,32355,39602,5618,-5077,-232,-1306,-606,-89,-300,235,491,-153,1,0,26,25,560,0,53298,1
2,31760,30447,32278,39603,5634,-5756,-488,-525,-2175,925,-847,220,496,-160,1,0,26,25,600,0,53298,1
2,31643,30601,32140,39604,5650,-4257,-506,208,2388,-22,557,230,494,-158,1,0,26,25,640,0,53298,1
2,31695,31323,32190,39605,5666,-3163,-1358,221,2013,-1025,1072,228,498,-148,1,0,26,25,680,0,53298,1
2,31743,30988,32247,39606,5681,-3999,-970,-1068,-1282,-848,209,235,495,-155,1,0,26,25,720,0,53298,1
2,31730,30652,32286,39607,5697,-6318,-650,-1532,-5901,1644,-2041,229,489,-153,1,0,26,25,760,0,53298,1
2,31681,30611,32197,39608,5712,-5194,-83,182,3797,985,47,227,497,-159,1,0,26,25,800,0,53298,1
2,31724,30560,32180,39609,5728,-3523,-684,572,5493,-976,1438,234,500,-142,1,0,26,25,840,0,53298,1
2,31767,30762,32273,39610,5743,-2994,-1923,-133,458,-1453,1092,223,493,-135,1,0,26,25,880,0,53298,1
2,31782,30611,32337,39611,5759,-6114,-294,-2173,-8025,779,-1832,234,498,-156,1,0,26,25,920,0,53298,1
2,31741,30552,32292,39612,5759,-6004,-456,-260,-188,1238,-731,226,500,-152,1,0,26,25,960,0,53298,1
1,31731,30540,32278,39613,4936,-3930,-521,399,5322,-426,1079,229,491,-149,1,0,26,26,0,0,53298,1
2,31749,30602,32299,39614,4951,-4206,-722,-426,381,-893,583,224,504,-148,1,0,26,26,40,0,53298,1
2,31718,30661,32251,39615,4967,-4487,-985,-731,-2695,-170,-20,222,490,-150,1,0,26,26,80,0,53298,1
2,31707,30575,32275,39616,4983,-4145,-995,-288,-243,301,-13,228,492,-148,1,0,26,26,120,0,53298,1
2,31778,30696,32375,39617,4999,-5206,-284,-891,-102,445,-306,237,495,-155,1,0,26,26,160,0,53298,1
2,31806,30757,32415,39618,5015,-5228,-616,-491,-418,386,-312,233,495,-155,1,0,26,26,200,0,53298,1
2,31768,30750,32367,39619,5030,-4156,-689,-48,1779,-245,498,221,495,-145,1,0,26,26,240,0,53298,1
2,31837,30806,32437,39620,5046,-3077,-1475,257,1493,-625,744,230,488,-144,1,0,26,26,280,0,53298,1
2,31980,30723,32602,39621,5062,-5332,-93,-1993,-2658,-98,-612,239,501,-143,1,0,26,26,320,0,53298,1
2,31976,30721,32578,39622,5078,-6598,-657,-791,-4280,1501,-1647,231,485,-157,1,0,26,26,360,0,53298,1
2,31935,30658,32533,39623,5094,-4066,-306,484,5644,-84,1084,220,496,-150,1,0,26,26,400,0,53298,1
2,31998,30652,32596,39624,5109,-3172,-1102,483,4040,-1468,1603,227,493,-149,1,0,26,26,440,0,53298,1
2,31996,30673,32581,39625,5125,-2663,-2326,-223,-1320,-1264,855,228,490,-154,1,0,26,26,480,0,53298,1
2,31995,30646,32640,39626,5141,-6228,-52,-2657,-7811,1241,-2309,231,497,-151,1,0,26,26,520,0,53298,1
2,31954,30629,32608,39627,5158,-6574,-357,-288,254,2233,-1346,229,495,-151,1,0,26,26,560,0,53298,1
2,31833,30418,32455,39628,5175,-3927,-332,531,7286,50,1281,219,495,-139,1,0,26,26,600,0,53298,1
2,32043,30501,32785,39629,5191,-2896,-1311,363,3637,-1181,1369,225,491,-145,1,0,26,26,640,0,53298,1
2,32468,31013,33145,39630,5207,-2920,-2065,-1234,-775,-910,217,228,502,-148,1,0,26,26,680,0,53298,1
2,32361,31065,33082,39631,5224,-3809,-1772,-1745,-284,1637,-1766,214,506,-138,1,0,26,26,720,0,53298,1
2,32129,30616,32875,39632,5241,-5596,32,-783,4777,2410,-2003,216,520,-148,1,0,26,26,760,0,53298,1
2,31863,30526,32637,39633,5258,-8064,1443,1335,5168,232,216,215,515,-135,1,0,26,26,800,0,53298,1
2,31759,30428,32405,39634,5275,-4644,-344,-50,-361,-2544,750,218,510,-136,1,0,26,26,840,0,53298,1
2,31697,30426,32241,39635,5292,-3897,-349,501,-4385,-3223,782,219,509,-125,1,0,26,26,880,0,53298,1
2,31680,30387,32289,39636,5309,-3859,-1543,-1361,-7387,-2859,1224,221,499,-133,1,0,26,26,920,0,53298,1
2,31527,31174,32160,39637,5309,-4947,-3539,-5092,-2961,944,-235,219,517,-133,1,0,26,26,960,0,53298,1
1,31741,30424,32432,39638,4472,-4589,-444,-734,15023,4514,-1937,213,527,-131,1,0,26,27,0,0,53298,1
2,31660,30359,32310,39639,4489,-6984,-3061,691,12576,193,289,211,519,-135,1,0,26,27,40,0,53298,1
2,31681,30343,32280,39640,4505,-3966,454,778,277,-1806,1915,208,504,-132,1,0,26,27,80,0,53298,1
2,31686,30343,32299,39641,4522,-4706,-792,-1910,-10566,-2616,1507,229,503,-131,1,0,26,27,120,0,53298,1
2,31729,30419,32329,39642,4539,-4964,-1646,-1170,-11660,-122,-471,223,501,-133,1,0,26,27,160,0,53298,1
2,31768,30419,32328,39643,4555,-4977,-458,816,-491,-703,-54,210,492,-132,1,0,26,27,200,0,53298,1
2,31730,30354,32236,39644,4572,-4323,-76,143,2224,-1677,1369,223,493,-135,1,0,26,27,240,0,53298,1
2,31709,30543,32184,39645,4588,-4078,-1197,-1635,-7133,-1035,354,227,495,-137,1,0,26,27,280,0,53298,1
2,31712,30690,32170,39646,4604,-5176,-566,553,-4083,-523,737,219,489,-119,1,0,26,27,320,0,53298,1
2,31666,33829,32097,39647,4621,-4543,-287,-476,-3979,-1218,793,226,486,-126,1,0,26,27,360,0,53298,1
2,31760,30479,32261,39648,4637,-5089,-2845,-5030,-5610,1241,741,225,485,-145,1,0,26,27,400,0,53298,1
2,31735,30682,32260,39649,4653,-3808,-1507,-297,11742,3590,-256,216,498,-148,1,0,26,27,440,0,53298,1
2,31713,30665,32218,39650,4669,-4116,1071,3344,15865,1984,-1312,221,499,-135,1,0,26,27,480,0,53298,1
2,31780,30655,32259,39651,4685,-4402,643,124,3632,-1092,909,214,502,-142,1,0,26,27,520,0,53298,1
2,31769,30682,32320,39652,4701,-5504,-3293,-5093,-4711,374,1890,205,503,-153,1,0,26,27,560,0,53298,1
2,31713,30433,32250,39653,4719,-4542,-13,530,7140,2397,-2104,209,507,-141,1,0,26,27,600,0,53298,1
2,31715,30851,32219,39654,4735,-4049,2066,4612,10102,-192,-933,209,503,-127,1,0,26,27,640,0,53298,1
2,31741,30803,32195,39655,4752,-4182,842,-362,-2512,-4532,3371,202,502,-136,1,0,26,27,680,0,53298,1
2,31684,30700,32240,39656,4769,-4897,-3774,-6691,-17516,-341,2197,220,504,-148,1,0,26,27,720,0,53298,1
2,31682,30761,32245,39657,4786,-4339,-929,-206,-1294,4449,-3867,214,502,-146,1,0,26,27,760,0,53298,1
2,31665,30416,32130,39658,4802,-4252,1137,3836,11578,3047,-3033,205,499,-117,1,0,26,27,800,0,53298,1
2,31725,30682,32160,39659,4819,-4572,3011,1088,8053,-3223,2484,211,499,-135,1,0,26,27,840,0,53298,1
2,31617,30380,32127,39660,4836,-5565,-2116,-5290,-15135,-1386,2093,222,502,-138,1,0,26,27,880,0,53298,1
2,31587,30457,32096,39661,4853,-4719,-1892,-1084,-7463,3067,-2563,225,509,-143,1,0,26,27,920,0,53298,1
2,31587,30351,32009,39662,4853,-4509,404,2904,5853,2100,-2007,207,505,-139,1,0,26,27,960,0,53298,1
1,31633,30398,32031,39663,4010,-3568,2088,1681,7692,-3760,2381,220,496,-138,1,0,26,28,0,0,53298,1
2,31623,30351,32131,39664,4028,-4944,-2437,-4771,-11814,-2671,2579,227,507,-133,1,0,26,28,40,0,53298,1
2,31554,30608,32052,39665,4045,-4508,-3309,-2168,-7646,2665,-1536,213,501,-141,1,0,26,28,80,0,53298,1
2,31628,30407,32053,39666,4061,-4880,689,2600,8420,2328,-2139,209,505,-133,1,0,26,28,120,0,53298,1
2,31685,30383,32097,39667,4077,-3696,1969,2332,7531,-1856,1241,215,495,-137,1,0,26,28,160,0,53298,1
2,31598,30828,32101,39668,4094,-5324,-2470,-3863,-8245,-2385,2268,216,498,-138,1,0,26,28,200,0,53298,1
2,31619,30348,32132,39669,4111,-4371,-3761,-2868,-7758,2658,-1472,221,501,-135,1,0,26,28,240,0,53298,1
2,31624,30424,32087,39670,4128,-4609,578,1973,7960,2462,-2418,218,512,-140,1,0,26,28,280,0,53298,1
2,31708,30420,32141,39671,4144,-4018,1125,3073,7348,-699,508,209,501,-141,1,0,26,28,320,0,53298,1
2,31826,30441,32311,39672,4161,-5680,-2034,-2851,-5282,-2947,2263,219,503,-133,1,0,26,28,360,0,53298,1
2,31761,30475,32321,39673,4178,-4707,-3259,-3516,-8802,1012,-576,229,499,-143,1,0,26,28,400,0,53298,1
2,31664,30638,32168,39674,4194,-4545,134,1156,4230,1983,-2122,230,504,-140,1,0,26,28,440,0,53298,1
2,31728,30422,32188,39675,4210,-4025,195,2941,5635,208,57,214,500,-132,1,0,26,28,480,0,53298,1
2,31866,30549,32317,39676,4226,-4854,269,-654,1242,-3333,2748,224,492,-132,1,0,26,28,520,0,53298,1
2,31840,30588,32362,39677,4241,-4942,-2173,-4348,-11971,-1030,538,214,506,-146,1,0,26,28,560,0,53298,1
2,31808,30465,32318,39678,4257,-4731,-993,-584,-1792,2209,-1757,224,502,-138,1,0,26,28,600,0,53298,1
2,31783,30407,32256,39679,4272,-4573,-318,1610,6208,1678,-994,212,502,-136,1,0,26,28,640,0,53298,1
2,31854,30442,32304,39680,4288,-4437,700,701,7207,-1293,1670,218,502,-128,1,0,26,28,680,0,53298,1
2,31853,30456,32339,39681,4304,-4511,-1548,-2223,-4501,-1427,711,216,500,-134,1,0,26,28,720,0,53298,1
2,31823,30450,32327,39682,4321,-4591,-1442,-769,-4516,877,-760,225,505,-131,1,0,26,28,760,0,53298,1
2,31827,30491,32313,39683,4337,-4675,-179,1035,1452,446,-436,220,504,-130,1,0,26,28,800,0,53298,1
2,31926,30549,32425,39684,4354,-4775,-209,-806,1699,-706,925,225,503,-135,1,0,26,28,840,0,53298,1
2,31944,30572,32560,39685,4371,-4391,-2017,-2276,-1480,486,-453,223,511,-143,1,0,26,28,880,0,53298,1
2,31885,30540,32431,39686,4386,-4388,-596,474,2815,1806,-1468,223,503,-131,1,0,26,28,920,0,53298,1
2,31816,30497,32326,39687,4386,-4674,524,2432,1699,241,-211,219,505,-135,1,0,26,28,960,0,53298,1
1,31831,30461,32334,39688,3547,-4840,871,90,-2326,-2949,2122,227,497,-127,1,0,26,29,0,0,53298,1
2,31783,30518,32353,39689,3564,-4964,-1981,-3909,-14391,-2003,292,230,500,-140,1,0,26,29,40,0,53298,1
2,31749,30478,32335,39690,3581,-4427,-2279,-1883,-4610,1924,-1228,231,501,-153,1,0,26,29,80,0,53298,1
2,31732,30441,32261,39691,3597,-4347,-581,1237,8682,1967,-819,219,505,-127,1,0,26,29,120,0,53298,1
2,31784,30472,32302,39692,3613,-4047,636,1702,9334,62,964,214,500,-134,1,0,26,29,160,0,53298,1
2,31791,30492,32347,39693,3630,-4897,-958,-1855,-2717,-1440,1036,221,501,-143,1,0,26,29,200,0,53298,1
2,31760,30491,32367,39694,3647,-4911,-2072,-2125,-7687,899,-738,228,504,-138,1,0,26,29,240,0,53298,1
2,31750,30466,32341,39695,3665,-4617,-671,362,2206,1335,-1334,222,496,-136,1,0,26,29,280,0,53298,1
2,31780,30472,32307,39696,3681,-4392,45,1429,5692,0,197,221,505,-129,1,0,26,29,320,0,53298,1
2,31792,30475,32333,39697,3697,-4918,-61,-598,3077,-2046,1825,219,501,-125,1,0,26,29,360,0,53298,1
2,31761,30469,32365,39698,3713,-4671,-1587,-2099,-6538,-541,-112,227,489,-135,1,0,26,29,400,0,53298,1
2,31759,30486,32340,39699,3729,-4517,-1117,-317,-1680,1353,-1037,232,502,-140,1,0,26,29,440,0,53298,1
2,31759,30490,32275,39700,3746,-4588,-235,1215,2912,649,-423,212,500,-124,1,0,26,29,480,0,53298,1
2,31793,30495,32265,39701,3762,-4705,86,675,4160,-1262,1794,221,503,-129,1,0,26,29,520,0,53298,1
2,31796,30556,32303,39702,3778,-4684,-960,-2106,-4835,-1545,741,224,500,-130,1,0,26,29,560,0,53298,1
2,31714,30393,32261,39703,3794,-4478,-1839,-1722,-6517,838,-773,232,500,-134,1,0,26,29,600,0,53298,1
2,31598,33275,32115,39704,3810,-4280,-1113,71,1253,1758,-942,222,496,-132,1,0,26,29,640,0,53298,1
2,31614,33272,32101,39705,3826,-4389,-207,791,5516,374,224,214,502,-124,1,0,26,29,680,0,53298,1
2,31604,33682,32098,39706,3842,-5008,-388,-1090,2374,-999,1098,221,495,-139,1,0,26,29,720,0,53298,1
2,31588,32461,32177,39707,3858,-4857,-1409,-1620,-4190,51,-548,230,496,-140,1,0,26,29,760,0,53298,1
2,31584,33027,32138,39708,3875,-4516,-917,56,-264,870,-1026,223,499,-139,1,0,26,29,800,0,53298,1
2,31598,33576,32110,39709,3890,-4370,-304,837,2518,71,-247,222,502,-128,1,0,26,29,840,0,53298,1
2,31589,33480,32235,39710,3906,-4893,-347,-834,2227,-1304,1079,227,499,-129,1,0,26,29,880,0,53298,1
2,31555,32805,32304,39711,3921,-5004,-1849,-2319,-4036,391,-516,228,504,-134,1,0,26,29,920,0,53298,1
2,31557,32984,32304,39712,3921,-4468,-998,-374,2339,2255,-1341,232,508,-136,1,0,26,29,960,0,53298,1
1,31556,33050,32225,39713,3084,-4121,-102,1580,5881,1454,1411,225,509,-133,1,0,26,30,0,0,53298,1
2,31614,32052,32262,39714,3100,-4044,335,1737,4651,-1390,1413,212,502,-132,1,0,26,30,40,0,53298,1
2,31628,31912,32353,39715,3116,-4949,-1008,-2200,-7397,-2337,1531,224,502,-134,1,0,26,30,80,0,53298,1
2,31642,30737,32382,39716,3132,-5192,-2484,-3008,-10693,768,-971,229,505,-147,1,0,26,30,120,0,53298,1
2,31630,30733,32319,39717,3148,-4772,-789,0,2970,1351,-1097,227,517,-143,1,0,26,30,160,0,53298,1
2,31623,30610,32242,39718,3163,-4274,113,1596,8072,262,415,228,502,-132,1,0,26,30,200,0,53298,1
2,31666,30540,32286,39719,3179,-4387,349,337,4271,-1881,2039,225,501,-143,1,0,26,30,240,0,53298,1
2,31630,30658,32310,39720,3196,-4676,-1533,-2365,-9391,-1002,224,232,504,-144,1,0,26,30,280,0,53298,1
2,31601,30640,32281,39721,3213,-4662,-1550,-1031,-5586,1406,-1221,232,498,-130,1,0,26,30,320,0,53298,1
2,31608,30672,32253,39722,3230,-4463,-749,477,3761,1173,-763,222,502,-136,1,0,26,30,360,0,53298,1
2,31636,30731,32318,39723,3246,-4603,226,356,8104,-716,1474,220,508,-124,1,0,26,30,400,0,53298,1
2,31666,30533,32421,39724,3262,-4769,-1705,-2429,-1571,-236,-62,224,512,-138,1,0,26,30,440,0,53298,1
2,31634,30477,32412,39725,3278,-4541,-1312,-822,483,2177,-1192,224,516,-146,1,0,26,30,480,0,53298,1
2,31637,30456,32334,39726,3295,-4289,86,1588,4978,1465,-1021,217,503,-139,1,0,26,30,520,0,53298,1
2,31696,30448,32323,39727,3310,-4207,401,2322,4134,-1410,1302,219,503,-131,1,0,26,30,560,0,53298,1
2,31709,30475,32371,39728,3326,-4856,-317,-1635,-5320,-3450,2001,211,499,-131,1,0,26,30,600,0,53298,1
2,31659,30442,32363,39729,3343,-5278,-2789,-3795,-13503,-35,-437,228,502,-136,1,0,26,30,640,0,53298,1
2,31629,30430,32312,39730,3359,-4798,-1043,-360,1291,1982,-1584,231,509,-135,1,0,26,30,680,0,53298,1
2,31629,30427,32220,39731,3375,-4219,26,1691,7995,1218,-206,218,504,-140,1,0,26,30,720,0,53298,1
2,31660,30432,32238,39732,3391,-4253,611,1267,7119,-1678,2245,222,502,-136,1,0,26,30,760,0,53298,1
2,31653,30364,32280,39733,3407,-4749,-890,-2537,-9026,-1929,898,240,498,-140,1,0,26,30,800,0,53298,1
2,31626,30365,32283,39734,3423,-4772,-2414,-2381,-11101,1289,-1054,229,503,-139,1,0,26,30,840,0,53298,1
2,31630,30356,32260,39735,3439,-4551,-980,203,2905,1804,-1265,224,498,-140,1,0,26,30,880,0,53298,1
2,31660,30357,32244,39736,3456,-4389,66,1357,9337,35,755,210,498,-130,1,0,26,30,920,0,53298,1
2,31669,30369,32277,39737,3456,-4895,-56,-806,3644,-1932,1692,227,509,-131,1,0,26,30,960,0,53298,1
1,31626,30351,32296,39738,2621,-4798,-1651,-2198,-7979,1428,-1172,229,507,-147,1,0,26,31,0,1,53298,1
2,31613,30355,32271,39739,2638,-4593,-1228,-319,-1884,1354,-547,225,501,-143,1,0,26,31,40,1,53298,1
2,31631,30348,32252,39740,2656,-4204,-573,748,3693,984,1587,222,500,-134,1,0,26,31,80,1,53298,1
2,31658,30356,32272,39741,2673,-4602,113,681,6446,-1133,459,226,498,-130,1,0,26,31,120,1,53298,1
2,31646,30352,32309,39742,2689,-5030,-1133,-2258,-3093,-779,-1075,223,509,-139,1,0,26,31,160,1,53298,1
2,31619,30355,32325,39743,2707,-4812,-1404,-882,-3670,1237,-1189,231,505,-141,1,0,26,31,200,1,53298,1
2,31617,30345,32292,39744,2723,-4265,-635,488,1966,1302,693,220,504,-140,1,0,26,31,240,1,53298,1
2,31639,30348,32235,39745,2740,-4264,-67,1319,4916,-72,1573,215,505,-135,1,0,26,31,280,1,53298,1
2,31657,30362,32277,39746,2756,-4639,-246,-676,262,-1963,-250,214,498,-126,1,0,26,31,320,1,53298,1
2,31632,30358,32302,39747,2772,-4860,-1778,-2455,-7914,-178,-1089,224,510,-142,1,0,26,31,360,1,53298,1
2,31623,30352,32295,39748,2789,-4728,-1074,-445,-1129,1358,-348,218,508,-118,1,0,26,31,400,1,53298,1
2,31639,30347,32255,39749,2805,-4423,-474,815,3925,646,1530,219,491,-141,1,0,26,31,440,1,53298,1
2,31660,30348,32255,39750,2822,-4462,51,601,4960,-1299,607,222,500,-138,1,0,26,31,480,1,53298,1
2,31637,30358,32282,39751,2839,-4789,-1013,-1913,-4521,-1323,-702,220,504,-148,1,0,26,31,520,1,53298,1
2,31619,30352,32285,39752,2856,-4797,-1587,-1199,-5413,867,-954,228,504,-134,1,0,26,31,560,1,53298,1
2,31625,30350,32266,39753,2872,-4313,-951,49,1476,1388,409,231,505,-147,1,0,26,31,600,1,53298,1
2,31650,30352,32257,39754,2889,-4248,-249,817,5519,209,971,223,509,-129,1,0,26,31,640,1,53298,1
2,31654,30359,32282,39755,2907,-4659,-399,-728,1703,-1030,-308,228,500,-140,1,0,26,31,680,1,53298,1
2,31638,30362,32306,39756,2925,-5011,-1376,-1801,-4750,219,-903,224,504,-136,1,0,26,31,720,1,53298,1
2,31636,30357,32293,39757,2942,-4712,-865,-202,-846,849,172,231,509,-137,1,0,26,31,760,1,53298,1
2,31643,30352,32250,39758,2959,-4603,-338,749,3323,-186,1385,224,504,-130,1,0,26,31,800,1,53298,1
2,31661,30358,32251,39759,2976,-4372,-290,369,2849,-1382,450,230,512,-130,1,0,26,31,840,1,53298,1
2,31655,30367,32296,39760,2994,-4687,-992,-1982,-4652,-1094,-992,224,506,-134,1,0,26,31,880,1,53298,1
2,31636,30358,32292,39761,3011,-4651,-1752,-1313,-5134,1384,-1016,238,504,-142,1,0,26,31,920,1,53298,1
2,31638,30358,32259,39762,3011,-4425,-726,192,3131,1625,504,229,511,-131,1,0,26,31,960,1,53298,1
1,31661,30364,32255,39763,2159,-4435,-32,1088,574,-1299,1084,219,503,-133,1,0,26,32,0,0,53298,1
2,31658,30357,32272,39764,2176,-4846,-400,-998,596,137,-397,221,499,-139,1,0,26,32,40,0,53298,1
2,31635,30358,32278,39765,2194,-4867,-1638,-1753,-6348,816,-832,226,500,-140,1,0,26,32,80,0,53298,1
2,31624,30349,32264,39766,2212,-4538,-960,-234,-757,159,45,228,504,-140,1,0,26,32,120,0,53298,1
2,31654,30350,32230,39767,2229,-4353,-513,668,3716,-1204,1431,223,503,-139,1,0,26,32,160,0,53298,1
2,31668,30358,32216,39768,2245,-4423,-232,415,3984,-921,611,213,503,-133,1,0,26,32,200,0,53298,1
2,31652,30367,32248,39769,2262,-4915,-1063,-2095,-3655,943,-856,225,499,-129,1,0,26,32,240,0,53298,1
2,31636,30351,32249,39770,2280,-4807,-1257,-807,-4092,937,-688,226,506,-134,1,0,26,32,280,0,53298,1
2,31644,30357,32218,39771,2297,-4509,-695,328,1963,-548,796,221,501,-133,1,0,26,32,320,0,53298,1
2,31657,30354,32167,39772,2314,-4543,-118,961,4171,-1741,1489,221,495,-145,1,0,26,32,360,0,53298,1
2,31675,30360,32202,39773,2331,-4681,-29,-466,75,-543,-180,228,496,-140,1,0,26,32,400,0,53298,1
2,31660,30363,32208,39774,2348,-4775,-1355,-2135,-8574,1198,-716,225,497,-133,1,0,26,32,440,0,53298,1
2,31635,30357,32202,39775,2364,-4482,-1487,-994,-2308,1235,-532,225,499,-135,1,0,26,32,480,0,53298,1
2,31646,30358,32183,39776,2381,-4250,-886,317,4372,-229,603,213,501,-131,1,0,26,32,520,0,53298,1
2,31669,30399,32198,39777,2396,-4310,-97,801,6157,-991,584,231,501,-129,1,0,26,32,560,0,53298,1
2,31663,30392,32221,39778,2412,-4919,-667,-1305,-1459,371,-491,221,505,-143,1,0,26,32,600,0,53298,1
2,31647,30391,32246,39779,2428,-4900,-1298,-1130,-5065,537,-577,223,505,-123,1,0,26,32,640,0,53298,1
2,31633,30375,32206,39780,2443,-4483,-943,-151,238,63,226,220,506,-140,1,0,26,32,680,0,53298,1
2,31641,30390,32180,39781,2458,-4296,-632,53,3807,-282,558,215,513,-137,1,0,26,32,720,0,53298,1
2,31650,30396,32198,39782,2474,-4629,-634,-477,2534,239,-189,223,505,-135,1,0,26,32,760,0,53298,1
2,31644,30398,32166,39783,2489,-5369,-258,-461,-1492,255,-392,231,501,-137,1,0,26,32,800,0,53298,1
2,31673,30461,32147,39784,2504,-5078,-666,-29,-2929,-570,415,232,504,-130,1,0,26,32,840,0,53298,1
2,31687,30549,32191,39785,2519,-4348,-664,-328,-801,-184,-181,230,500,-144,1,0,26,32,880,0,53298,1
2,31775,30542,32439,39786,2534,-4831,-797,-1128,-1952,944,-652,227,503,-155,1,0,26,32,920,0,53298,1
2,31722,32921,32370,39787,2534,-4895,-928,-582,-1838,598,489,228,510,-146,1,0,26,32,960,0,53298,1
1,31782,30848,32321,39788,1697,-4216,-863,-169,1996,128,896,228,498,-146,1,0,26,33,0,1,53298,1
2,31743,30937,32373,39789,1713,-3769,-1012,-169,378,138,384,229,493,-153,1,0,26,33,40,1,53298,1
2,31645,33893,32242,39790,1729,-3724,-1237,-463,1265,270,361,223,501,-143,1,0,26,33,80,1,53298,1
2,31708,31401,32373,39791,1746,-4210,-1190,-601,-2965,1019,-1176,231,501,-145,1,0,26,33,120,1,53298,1
2,31992,31291,32686,39792,1763,-6469,-163,-1224,49,-484,866,225,497,-141,1,0,26,33,160,1,53298,1
2,32023,30600,32620,39793,1782,-4338,-927,-24,3884,-1675,1597,221,501,-139,1,0,26,33,200,1,53298,1
2,31936,30545,32448,39794,1801,-3202,-727,202,-2023,-617,23,221,503,-143,1,0,26,33,240,1,53298,1
2,31939,30485,32534,39795,1819,-2819,-1198,-126,-1318,-13,595,220,504,-130,1,0,26,33,280,1,53298,1
2,31929,30505,32564,39796,1839,-4049,-1137,-984,24,837,1003,212,514,-138,1,0,26,33,320,1,53298,1
2,31808,33753,32359,39797,1859,-10894,1143,132,1197,-1917,-68,218,498,-136,1,0,26,33,360,1,53298,1
2,31796,30957,32340,39798,1879,-4617,-1241,-280,1878,-1716,404,216,504,-126,1,0,26,33,400,1,53298,1
2,31781,32268,32357,39799,1899,-3573,-647,-879,-809,670,-36,214,504,-140,1,0,26,33,440,1,53298,1
2,31790,31086,32381,39800,1919,-5116,-712,-334,-292,497,-13,210,514,-128,1,0,26,33,480,1,53298,1
2,31746,34999,32340,39801,1939,-4610,-482,-16,1097,229,102,218,504,-136,1,0,26,33,520,1,53298,1
2,31739,33852,32285,39802,1957,-4321,-617,-804,395,920,-193,218,508,-128,1,0,26,33,560,1,53298,1
2,31930,30518,32500,39803,1974,-4279,-291,-912,553,1462,-305,210,508,-144,1,0,26,33,600,1,53298,1
2,32005,30694,32730,39804,1990,-5260,-1108,-452,2450,24,24,218,500,-148,1,0,26,33,640,1,53298,1
2,31949,30636,32540,39805,2006,-4987,-753,199,1001,-956,299,210,512,-138,1,0,26,33,680,1,53298,1
2,32040,30797,32581,39806,2022,-4596,-417,-282,-1171,-977,139,222,502,-138,1,0,26,33,720,1,53298,1
2,32003,30770,32588,39807,2036,-4443,-825,-329,-1369,-628,28,214,502,-130,1,0,26,33,760,1,53298,1
2,31868,30825,32553,39808,2052,-4494,-796,-564,-2070,21,-684,218,500,-150,1,0,26,33,800,1,53298,1
2,31992,30681,32660,39809,2067,-5196,-790,-744,1426,-20,71,220,508,-134,1,0,26,33,840,1,53298,1
2,31957,30748,32608,39810,2082,-4355,-846,-116,1304,-55,206,209,497,-139,1,0,26,33,880,1,53298,1
2,31962,30693,32629,39811,2096,-3872,-763,-73,2023,333,-72,217,503,-143,1,0,26,33,920,1,53298,1
2,31946,30477,32612,39812,2096,-3879,-1076,-253,-387,618,-204,218,496,-128,1,0,26,33,960,1,53298,1
1,31953,30563,32641,39813,1235,-4793,-697,-1045,-4076,1498,-1633,225,501,-145,1,0,26,34,0,0,53298,1
2,31862,30833,32367,39814,1250,-6944,-441,134,3285,-116,883,220,502,-150,1,0,26,34,40,0,53298,1
2,31944,30670,32325,39815,1265,-4674,-401,415,4176,-1337,2092,220,496,-148,1,0,26,34,80,0,53298,1
2,31680,30545,32077,39816,1280,-2523,-979,-121,-1047,-892,612,218,496,-146,1,0,26,34,120,0,53298,1
2,31723,34429,32118,39817,1296,-2583,-1911,-1959,-6626,775,-1471,217,505,-137,1,0,26,34,160,0,53298,1
2,31685,34209,32188,39818,1311,-5877,-152,-506,-1312,1758,-1083,224,496,-140,1,0,26,34,200,0,53298,1
2,31672,33021,32128,39819,1327,-6544,-577,333,5924,-265,863,218,504,-140,1,0,26,34,240,0,53298,1
2,31729,30807,32208,39820,1342,-4294,-301,260,3723,-1432,1281,215,495,-143,1,0,26,34,280,0,53298,1
2,31795,30478,32265,39821,1358,-3451,-984,-906,-4127,-590,-279,222,500,-146,1,0,26,34,320,0,53298,1
2,31828,30976,32272,39822,1373,-4550,-685,-482,-3474,219,-134,219,499,-153,1,0,26,34,360,0,53298,1
2,31845,30546,32314,39823,1390,-4838,-1108,-543,322,-25,206,227,497,-143,1,0,26,34,400,0,53298,1
2,31810,33747,32190,39824,1407,-4898,-381,-506,-576,96,-413,228,498,-142,1,0,26,34,440,0,53298,1
2,31834,30925,32240,39825,1423,-5443,-522,-361,1992,-677,706,215,503,-135,1,0,26,34,480,0,53298,1
2,31830,30950,32336,39826,1440,-4079,-1041,247,1563,-1220,821,213,497,-141,1,0,26,34,520,0,53298,1
2,31903,30967,32302,39827,1457,-2744,-1300,-21,-1693,-184,-10,217,491,-143,1,0,26,34,560,0,53298,1
2,31971,30972,32431,39828,1474,-3940,-645,-1279,-6001,2541,-2463,220,506,-148,1,0,26,34,600,0,53298,1
2,31962,30467,32368,39829,1492,-7485,-360,-1340,5597,1094,-59,224,502,-146,1,0,26,34,640,0,53298,1
2,31904,30964,32280,39830,1508,-5613,87,414,8099,-1643,1850,210,492,-142,1,0,26,34,680,0,53298,1
2,31979,30981,32397,39831,1524,-2991,-490,809,266,-1675,1391,210,498,-130,1,0,26,34,720,0,53298,1
2,31875,30704,32411,39832,1542,-2127,-2110,-92,-10433,792,-2038,216,494,-134,1,0,26,34,760,0,53298,1
2,31989,30888,32471,39833,1559,-6419,-168,-2418,-2075,1947,-1078,218,498,-140,1,0,26,34,800,0,53298,1
2,31913,30814,32328,39834,1576,-7056,-543,-267,7324,-489,1198,214,500,-144,1,0,26,34,840,0,53298,1
2,31811,30830,32246,39835,1594,-3923,-332,484,4882,-1490,1574,222,500,-142,1,0,26,34,880,0,53298,1
2,31824,30775,32246,39836,1610,-2254,-1395,427,-2273,-513,-56,217,491,-151,1,0,26,34,920,0,53298,1
2,31702,30780,32194,39837,1610,-3864,-1013,-1070,-8089,2432,-2207,220,498,-142,1,0,26,34,960,0,53298,1
1,31684,35059,32090,39838,773,-6606,36,100,2026,1200,-327,223,507,-143,1,0,26,35,0,1,53298,1
2,31637,34993,31995,39839,789,-5838,-626,500,5770,-1320,1573,222,498,-150,1,0,26,35,40,1,53298,1
2,31664,34942,32012,39840,805,-3586,-1776,-321,1018,-1611,1242,205,507,-135,1,0,26,35,80,1,53298,1
2,31576,30291,31984,39841,820,-2905,-409,-1822,-6057,488,-1261,221,499,-143,1,0,26,35,120,1,53298,1
2,31330,30449,31762,39842,836,-5450,-598,-254,-1456,1405,-884,213,503,-135,1,0,26,35,160,1,53298,1
2,31277,30700,31735,39843,850,-6102,-383,88,3529,-175,308,219,491,-139,1,0,26,35,200,1,53298,1
2,31267,30708,31648,39844,865,-4628,-584,-588,203,-897,-65,225,497,-149,1,0,26,35,240,1,53298,1
2,31248,30688,31623,39845,880,-4878,-1023,-213,766,-575,700,220,490,-144,1,0,26,35,280,1,53298,1
2,31207,30710,31553,39846,896,-3889,-1227,-37,18,81,496,221,491,-151,1,0,26,35,320,1,53298,1
2,31208,30709,31546,39847,911,-3353,-946,-509,-690,443,-126,217,501,-151,1,0,26,35,360,1,53298,1
2,31293,30742,31638,39848,927,-4273,-339,-1255,-3509,1244,-1491,224,492,-146,1,0,26,35,400,1,53298,1
2,31499,30819,31891,39849,943,-6052,-346,-32,2801,699,195,216,502,-146,1,0,26,35,440,1,53298,1
2,31465,30814,31840,39850,959,-4959,-301,479,3955,-589,1207,218,498,-146,1,0,26,35,480,1,53298,1
2,31829,30894,32077,39851,974,-3122,-1152,-326,404,-1094,793,218,492,-148,1,0,26,35,520,1,53298,1
2,31698,30828,32109,39852,990,-3388,-1772,-2213,-8704,951,-2421,229,499,-149,1,0,26,35,560,1,53298,1
2,31820,30881,32476,39853,1005,-6670,-256,-104,1918,718,-89,232,494,-152,1,0,26,35,600,1,53298,1
2,31649,30605,32309,39854,1020,-6070,-95,507,6377,-1056,1709,221,501,-149,1,0,26,35,640,1,53298,1
2,31752,30879,32274,39855,1034,-3482,-638,459,2063,-1443,1418,215,499,-143,1,0,26,35,680,1,53298,1
2,31785,30905,32321,39856,1049,-2483,-1538,-1916,-5074,-302,-1131,207,499,-133,1,0,26,35,720,1,53298,1
2,31643,30473,32275,39857,1065,-4868,-289,-761,-5323,1917,-1810,221,503,-145,1,0,26,35,760,1,53298,1
2,31652,34376,32261,39858,1080,-7001,-573,296,4668,540,773,220,496,-144,1,0,26,35,800,1,53298,1
2,31670,30488,32225,39859,1096,-4684,-33,628,4985,-1136,1738,209,497,-149,1,0,26,35,840,1,53298,1
2,31961,30775,32420,39860,1112,-2942,-1063,-441,191,-1297,959,216,496,-142,1,0,26,35,880,1,53298,1
2,31736,34908,32307,39861,1127,-3073,-2283,-2355,-9874,1604,-2686,223,495,-129,1,0,26,35,920,1,53298,1
2,31869,30913,32326,39862,1127,-6490,-88,-114,752,1612,-713,233,505,-141,1,0,26,35,960,1,53298,1
1,31830,32731,32270,39863,311,-3816,-367,501,6596,-749,1355,224,500,-148,1,0,26,36,0,1,53298,1
0,31724,30550,32122,39864,326,-3816,-367,501,6596,-749,1355,217,493,-143,1,0,26,36,40,1,53298,1
2,31554,31955,32046,39865,341,-4636,-866,-1240,-5167,-153,-535,215,491,-141,1,0,26,36,80,1,53298,1
2,31665,30410,32238,39866,356,-5027,-816,-426,-1337,674,-434,221,493,-151,1,0,26,36,120,1,53298,1
2,31609,30361,32195,39867,371,-3886,-909,142,2583,159,311,216,498,-152,1,0,26,36,160,1,53298,1
2,31551,33553,32159,39868,385,-5605,-120,-1149,-871,60,-434,229,499,-147,1,0,26,36,200,1,53298,1
2,31517,33795,32084,39869,401,-5307,-598,-347,-816,442,-215,229,497,-139,1,0,26,36,240,1,53298,1
2,31529,31068,32099,39870,414,-3988,-613,140,2323,-278,685,216,494,-142,1,0,26,36,280,1,53298,1
2,31469,32828,32030,39871,429,-2844,-1488,374,1550,-736,979,220,482,-144,1,0,26,36,320,1,53298,1
2,31730,30410,32311,39872,442,-4738,-245,-1764,-2457,-382,-496,212,496,-156,1,0,26,36,360,1,53298,1
2,31639,30397,32430,39873,457,-6854,-750,-1097,-5708,1861,-1886,227,501,-141,1,0,26,36,400,1,53298,1
2,31511,30607,32258,39874,471,-6693,-32,297,5482,474,699,223,493,-147,1,0,26,36,440,1,53298,1
2,31841,30700,32415,39875,485,-4757,-873,620,5421,-1275,1698,219,495,-143,1,0,26,36,480,1,53298,1
2,32086,30729,32531,39876,499,-3110,-2048,41,-310,-1377,992,221,491,-137,1,0,26,36,520,1,53298,1
2,31905,30840,32485,39877,513,-2623,113,-2416,-8149,522,-2067,224,492,-136,1,0,26,36,560,1,53298,1
2,32005,30612,32670,39878,528,-6039,-432,-311,-1525,1859,-1178,229,505,-149,1,0,26,36,600,1,53298,1
2,31998,30650,32599,39879,543,-6825,-237,449,6508,-114,1269,227,491,-145,1,0,26,36,640,1,53298,1
2,31830,30424,32316,39880,557,-4053,-1333,532,3821,-1359,1512,219,491,-131,1,0,26,36,680,1,53298,1
2,32005,30436,32377,39881,572,-2786,-848,-1028,-1842,-996,127,218,490,-146,1,0,26,36,720,1,53298,1
2,32071,30695,32661,39882,587,-3619,-791,-1614,-9032,1875,-2432,230,490,-146,1,0,26,36,760,1,53298,1
2,32069,30883,32682,39883,603,-6815,-54,83,2849,922,-28,222,504,-148,1,0,26,36,800,1,53298,1
2,31907,30767,32492,39884,618,-5527,-663,510,5958,-1140,1649,223,497,-141,1,0,26,36,840,1,53298,1
2,31985,30663,32395,39885,633,-3333,-2022,189,2110,-1550,1444,213,497,-145,1,0,26,36,880,1,53298,1
2,31884,30415,32315,39886,649,-2637,170,-2218,-7151,578,-1804,224,502,-144,1,0,26,36,920,1,53298,1
2,32005,30917,32510,39887,649,-5785,-522,-217,-2334,1817,-1168,217,491,-145,1,0,26,36,960,1,53298,1
1,31975,30734,32478,39888,0,-4203,-234,398,4653,-92,926,226,492,-138,1,0,26,37,0,1,53298,1
2,31799,30584,32232,39889,39866,-2882,-1333,417,3631,-1476,1557,215,493,-139,1,0,26,37,40,1,53298,1
2,32034,30672,32438,39890,39882,-4022,-895,-1434,-1538,-885,70,221,491,-141,1,0,26,37,80,1,53298,1
2,31938,30777,32393,39891,39899,-6363,-870,-1341,-7198,1852,-2055,226,500,-140,1,0,26,37,120,1,53298,1
2,31901,30794,32401,39892,39916,-5386,-41,165,2891,926,-111,228,502,-150,1,0,26,37,160,1,53298,1
2,31851,30770,32272,39893,39932,-3582,-633,469,4977,-1072,1457,219,499,-145,1,0,26,37,200,1,53298,1
2,31885,30736,32249,39894,39948,-2693,-1885,57,1590,-1514,1328,220,488,-146,1,0,26,37,240,1,53298,1
2,31889,30804,32357,39895,39965,-5504,117,-2118,-6059,478,-1584,222,504,-130,1,0,26,37,280,1,53298,1
2,31924,30608,32448,39896,39982,-6621,-542,-242,-2678,1868,-1269,220,492,-144,1,0,26,37,320,1,53298,1
1,31900,30705,32403,39897,39999,-4360,-186,355,4555,-61,811,218,508,-140,1,0,26,37,360,1,53298,1
1,31800,30655,32233,39898,14,-3113,-1107,370,3486,-1442,1484,223,497,-149,1,0,26,37,400,1,53298,1
1,31911,30462,32300,39899,31,-3387,-1585,-729,-282,-1125,695,224,504,-138,1,0,26,37,440,1,53298,1
1,31825,30631,32290,39900,47,-6308,-523,-1822,-7588,1683,-2257,225,495,-147,1,0,26,37,480,1,53298,1
1,31811,30462,32299,39901,63,-6054,-208,-18,1256,1296,-517,214,502,-142,1,0,26,37,520,1,53298,1
1,31791,30509,32266,39902,79,-3869,-447,377,4994,-818,1346,223,497,-143,1,0,26,37,560,1,53298,1
1,31730,30523,32156,39903,94,-2900,-1447,171,1866,-1444,1288,216,496,-146,1,0,26,37,600,1,53298,1
1,31718,30612,32184,39904,109,-4432,-562,-1625,-2919,-310,-477,216,498,-144,1,0,26,37,640,1,53298,1
1,31764,30733,32246,39905,125,-6037,-757,-724,-4786,1837,-1525,228,498,-144,1,0,26,37,680,1,53298,1
1,31740,30728,32217,39906,141,-5101,-136,111,2366,550,60,216,500,-140,1,0,26,37,720,1,53298,1
1,31551,30681,32032,39907,157,-3827,-739,186,3698,-1065,1204,211,497,-133,1,0,26,37,760,1,53298,1
1,31696,30785,32055,39908,172,-3288,-1370,-289,337,-1014,755,217,495,-135,1,0,26,37,800,1,53298,1
1,31781,30854,32234,39909,187,-3422,-1319,-637,-356,-237,176,209,499,-127,1,0,26,37,840,1,53298,1
1,31885,30907,32419,39910,202,-4829,-427,-1263,-1378,1279,-388,221,503,-127,1,0,26,37,880,1,53298,1
1,31906,30933,32506,39911,218,-8423,-448,-726,-4216,2006,-1761,216,500,-138,1,0,26,37,920,1,53298,1
0,31827,30780,32427,39912,65535,-8423,-448,-726,-4216,2006,-1761,217,503,-137,1,0,26,37,960,1,53298,1
1,31737,30830,32247,39913,0,-3217,-708,272,4860,-2531,1968,218,502,-138,1,0,26,38,0,1,53298,1
2,31760,30841,32263,39914,39404,-2924,-1399,-57,-255,-1404,979,216,504,-136,1,0,26,38,40,1,53298,1
2,31755,30853,32295,39915,39420,-3680,-1079,-890,-2702,183,-84,209,497,-145,1,0,26,38,80,1,53298,1
2,31743,30554,32327,39916,39436,-6167,-508,-1312,-4363,2218,-1494,217,505,-131,1,0,26,38,120,1,53298,1
2,31731,30414,32348,39917,39452,-5983,-289,-54,1508,1271,-411,219,497,-129,1,0,26,38,160,1,53298,1
2,31742,30695,32309,39918,39470,-4329,-519,-5,4103,-654,746,213,507,-131,1,0,26,38,200,1,53298,1
2,31751,30785,32309,39919,39486,-3706,-899,-273,1541,-874,528,211,503,-139,1,0,26,38,240,1,53298,1
2,31780,30848,32361,39920,39502,-4758,-706,-815,-2962,215,-563,214,500,-138,1,0,26,38,280,1,53298,1
2,31783,30791,32382,39921,39519,-5152,-733,-404,-2026,506,-524,217,505,-129,1,0,26,38,320,1,53298,1
2,31748,30678,32327,39922,39534,-4529,-647,-257,859,-174,250,220,504,-136,1,0,26,38,360,1,53298,1
2,31746,30667,32315,39923,39550,-4286,-777,-402,792,-402,338,214,502,-144,1,0,26,38,400,1,53298,1
2,31744,30655,32307,39924,39566,-4322,-801,-388,-405,-14,26,216,500,-142,1,0,26,38,440,1,53298,1
2,31736,30655,32286,39925,39582,-4502,-729,-334,-352,170,-22,223,509,-135,1,0,26,38,480,1,53298,1
2,31740,30648,32307,39926,39598,-4877,-631,-590,-356,161,-135,207,493,-143,1,0,26,38,520,1,53298,1
2,31732,30622,32292,39927,39614,-4881,-668,-432,16,61,-131,212,508,-144,1,0,26,38,560,1,53298,1
2,31732,30581,32278,39928,39630,-4443,-686,-247,474,-114,138,214,492,-134,1,0,26,38,600,1,53298,1
2,31716,30562,32270,39929,39647,-4226,-853,-316,25,-166,220,212,496,-124,1,0,26,38,640,1,53298,1
2,31718,30571,32256,39930,39664,-4350,-847,-531,-320,14,69,207,499,-139,1,0,26,38,680,1,53298,1
2,31717,30575,32250,39931,39681,-4275,-876,-360,731,85,160,214,502,-136,1,0,26,38,720,1,53298,1
2,31720,30493,32261,39932,39696,-4376,-757,-399,1242,35,238,223,505,-137,1,0,26,38,760,1,53298,1
2,31727,30418,32318,39933,39713,-4849,-602,-484,794,153,278,205,511,-123,1,0,26,38,800,1,53298,1
2,31800,30491,32372,39934,39730,-5482,-375,-489,341,-45,220,204,502,-142,1,0,26,38,840,1,53298,1
2,31806,30391,32389,39935,39746,-4678,-616,-211,310,-578,107,212,510,-128,1,0,26,38,880,1,53298,1
2,31793,30777,32381,39936,39763,-4230,-814,-402,36,-564,219,209,507,-127,1,0,26,38,920,1,53298,1
2,31794,30854,32396,39937,39779,-4463,-783,-477,-135,-6,173,207,499,-121,1,0,26,38,960,1,53298,1
1,31790,30733,32397,39938,0,-4829,-576,-315,202,259,121,206,510,-126,1,0,26,39,0,0,53298,1
2,31609,31827,32203,39939,38943,-4753,-563,-432,32,197,14,205,501,-127,1,0,26,39,40,0,53298,1
2,31745,30544,32374,39940,38961,-5669,-391,-663,-1866,590,-758,211,503,-129,1,0,26,39,80,0,53298,1
2,31723,30523,32336,39941,38978,-4900,-586,-44,-898,-109,-433,218,502,-134,1,0,26,39,120,0,53298,1
2,31719,30486,32314,39942,38993,-3815,-758,-58,598,-755,447,215,497,-131,1,0,26,39,160,0,53298,1
2,31730,30500,32298,39943,39009,-3666,-1108,-367,-407,-348,360,218,498,-148,1,0,26,39,200,0,53298,1
2,31732,30550,32293,39944,39024,-3969,-1142,-651,-888,400,-42,213,499,-143,1,0,26,39,240,0,53298,1
2,31750,30540,32318,39945,39041,-5673,-459,-951,-2122,1248,-985,217,499,-135,1,0,26,39,280,0,53298,1
2,31745,30530,32313,39946,39057,-5259,-405,-78,1092,533,-155,216,498,-136,1,0,26,39,320,0,53298,1
2,31794,30708,32345,39947,39073,-4098,-641,41,1854,-754,677,215,505,-137,1,0,26,39,360,0,53298,1
2,31822,30746,32361,39948,39090,-3613,-1088,-225,-75,-878,547,219,501,-137,1,0,26,39,400,0,53298,1
2,31733,30714,32254,39949,39107,-3565,-1259,-480,-290,-377,267,210,502,-134,1,0,26,39,440,0,53298,1
2,31815,30728,32313,39950,39124,-4440,-845,-784,-92,402,577,208,498,-128,1,0,26,39,480,0,53298,1
2,32056,30929,32709,39951,39142,-7446,555,-1230,160,1038,1024,208,502,-132,1,0,26,39,520,0,53298,1
2,32049,30727,32668,39952,39162,-4763,-618,508,31,-657,-263,213,499,-127,1,0,26,39,560,0,53298,1
2,32050,30515,32643,39953,39181,-3740,-674,-379,60,-1806,127,212,498,-136,1,0,26,39,600,0,53298,1
2,31977,30481,32590,39954,39200,-3689,-1251,-404,-581,-731,180,211,503,-125,1,0,26,39,640,0,53298,1
2,31929,30613,32546,39955,39218,-4966,-295,-1124,-854,776,-265,209,497,-137,1,0,26,39,680,0,53298,1
2,31872,30690,32549,39956,39235,-6591,-742,-361,-2610,1856,-1703,221,507,-137,1,0,26,39,720,0,53298,1
2,31916,30488,32521,39957,39253,-4477,-212,303,2971,-101,266,209,493,-133,1,0,26,39,760,0,53298,1
2,31780,30681,32464,39958,39271,-2754,-956,399,2716,-1240,1322,219,497,-139,1,0,26,39,800,0,53298,1
2,31782,31267,32370,39959,39289,-2686,-1521,-231,-1850,-428,327,212,500,-146,1,0,26,39,840,0,53298,1
2,31794,31311,32387,39960,39307,-4995,-553,-1964,-4433,1203,-1066,214,502,-140,1,0,26,39,880,0,53298,1
2,31758,31258,32396,39961,39325,-6489,-834,-638,-1669,2558,-1203,214,500,-142,1,0,26,39,920,0,53298,1
2,31811,30633,32464,39962,39343,-4958,-64,270,4768,160,94,217,503,-143,1,0,26,39,960,0,53298,1
1,31894,30479,32563,39963,0,-3884,-640,134,3485,-1769,962,214,504,-136,1,0,26,40,0,0,53298,1
2,32062,30570,32652,39964,38482,-3711,-1069,-551,-1299,-1527,547,210,504,-124,1,0,26,40,40,0,53298,1
2,32157,30862,32667,39965,38499,-4357,-947,-773,-2303,-366,153,210,504,-128,1,0,26,40,80,0,53298,1
2,32099,30591,32706,39966,38516,-7673,25,-1010,-4336,937,-1378,214,496,-132,1,0,26,40,120,0,53298,1
2,31939,30639,32566,39967,38533,-5041,-235,123,2389,-503,246,215,499,-139,1,0,26,40,160,0,53298,1
2,31980,30785,32536,39968,38550,-2546,-877,580,4890,-1547,2103,209,499,-139,1,0,26,40,200,0,53298,1
2,31919,30573,32466,39969,38568,-2556,-1495,215,-56,-681,721,213,503,-127,1,0,26,40,240,0,53298,1
2,31962,30785,32521,39970,38585,-5277,-45,-1702,-5306,1013,-1270,218,502,-132,1,0,26,40,280,0,53298,1
2,32054,30784,32631,39971,38604,-6989,-853,-751,-5016,2711,-1921,213,503,-145,1,0,26,40,320,0,53298,1
2,31945,30675,32523,39972,38622,-4545,-190,211,5455,328,352,221,497,-139,1,0,26,40,360,0,53298,1
2,31886,30636,32384,39973,38640,-2829,-918,582,5332,-1222,1505,212,498,-142,1,0,26,40,400,0,53298,1
2,31909,30502,32491,39974,38659,-2913,-2068,-635,1044,-1223,918,218,498,-142,1,0,26,40,440,0,53298,1
2,31804,31719,32317,39975,38677,-6758,-314,-2381,-10179,2055,-2681,216,486,-146,1,0,26,40,480,0,53298,1
2,31985,30518,32502,39976,38694,-6444,-368,-82,600,1364,-749,210,500,-140,1,0,26,40,520,0,53298,1
2,31903,30460,32411,39977,38711,-3748,-399,545,6381,-1286,1528,213,497,-141,1,0,26,40,560,0,53298,1
2,31912,30515,32333,39978,38729,-2474,-1556,409,3213,-2107,1733,217,505,-133,1,0,26,40,600,0,53298,1
2,31997,30614,32441,39979,38747,-4830,-46,-1959,-4003,-482,-738,220,494,-136,1,0,26,40,640,0,53298,1
2,31976,30738,32467,39980,38765,-6507,-947,-551,-6165,2066,-1717,226,492,-140,1,0,26,40,680,0,53298,1
2,31895,30468,32344,39981,38782,-4714,-55,314,3788,351,233,222,498,-132,1,0,26,40,720,0,53298,1
2,31868,30397,32244,39982,38800,-3197,-816,521,4783,-1252,1411,210,502,-134,1,0,26,40,760,0,53298,1
2,32024,30851,32413,39983,38817,-3357,-1553,-571,876,-1082,823,217,493,-129,1,0,26,40,800,0,53298,1
2,31907,30627,32365,39984,38835,-6270,-466,-1939,-8205,1896,-2299,221,499,-147,1,0,26,40,840,0,53298,1
2,31885,30615,32376,39985,38852,-5955,-311,-14,805,1550,-685,215,505,-145,1,0,26,40,880,0,53298,1
2,31888,30547,32334,39986,38869,-3786,-440,484,5005,-644,1194,226,494,-142,1,0,26,40,920,0,53298,1
2,31885,30551,32344,39987,38886,-2566,-1617,294,2813,-1594,1520,220,496,-134,1,0,26,40,960,0,53298,1
1,32081,30817,32461,39988,0,-4695,-253,-2118,-3729,-150,-839,220,492,-132,1,0,26,41,0,0,53298,1
2,31960,30843,32388,39989,38021,-6423,-975,-649,-5231,2108,-1606,214,496,-136,1,0,26,41,40,0,53298,1
2,31894,30910,32343,39990,38039,-5003,14,259,3463,343,252,220,500,-140,1,0,26,41,80,0,53298,1
2,31874,30834,32279,39991,38055,-3585,-719,406,4321,-1524,1486,216,496,-144,1,0,26,41,120,0,53298,1
2,31902,30847,32317,39992,38072,-2935,-1586,-243,551,-1496,1021,220,492,-136,1,0,26,41,160,0,53298,1
2,32075,30766,32518,39993,38089,-3398,-1145,-925,-907,-264,250,214,500,-136,1,0,26,41,200,0,53298,1
2,32106,30869,32677,39994,38107,-5003,-198,-1153,-1771,1841,98,209,503,-131,1,0,26,41,240,0,53298,1
2,32097,30892,32723,39995,38126,-8131,319,213,-1522,1099,-224,212,510,-132,1,0,26,41,280,0,53298,1
2,31994,30799,32605,39996,38145,-4650,-742,-242,2720,-2093,282,210,502,-130,1,0,26,41,320,0,53298,1
2,31979,30628,32559,39997,38163,-3026,-897,-518,1363,-1639,672,211,495,-129,1,0,26,41,360,0,53298,1
2,31960,30490,32623,39998,38181,-3944,-1107,-320,-571,207,202,205,503,-131,1,0,26,41,400,0,53298,1
2,32039,30517,32730,39999,38199,-6298,401,-983,-2020,1380,-467,202,492,-130,1,0,26,41,440,0,53298,1
2,32043,30544,32726,40000,38217,-5426,-804,49,-1584,848,-1079,217,497,-137,1,0,26,41,480,0,53298,1
2,31980,30523,32653,40001,38235,-3943,-529,-147,1873,-714,389,206,506,-136,1,0,26,41,520,0,53298,1
2,31964,30542,32618,40002,38253,-3396,-1095,-125,1523,-635,554,214,500,-130,1,0,26,41,560,0,53298,1
2,31962,30497,32614,40003,38271,-3883,-900,-644,-991,452,-277,207,499,-131,1,0,26,41,600,0,53298,1
2,31955,30512,32635,40004,38288,-5241,-640,-832,-2536,1357,-1097,226,508,-134,1,0,26,41,640,0,53298,1
2,31939,30524,32617,40005,38307,-5318,-459,-206,393,775,-67,213,505,-137,1,0,26,41,680,0,53298,1
2,31956,30524,32633,40006,38324,-4387,-641,-155,1676,-530,592,216,508,-136,1,0,26,41,720,0,53298,1
2,32033,30799,32692,40007,38342,-4164,-897,-351,313,-834,610,210,504,-138,1,0,26,41,760,0,53298,1
2,32083,30757,32696,40008,38359,-3383,-1066,-125,139,-626,1149,212,500,-132,1,0,26,41,800,0,53298,1
2,32079,30625,32665,40009,38378,-5164,-401,-1216,-447,85,796,207,503,-133,1,0,26,41,840,0,53298,1
2,32070,30535,32686,40010,38396,-5668,203,-155,224,240,77,200,510,-126,1,0,26,41,880,0,53298,1
2,31856,31884,32450,40011,38414,-4492,-781,-126,392,-688,-613,205,505,-133,1,0,26,41,920,0,53298,1
2,31752,32324,32354,40012,38433,-4003,-884,-355,-182,-434,-260,210,500,-126,1,0,26,41,960,0,53298,1
1,31807,31757,32415,40013,0,-4294,-851,-420,-316,260,-35,213,499,-133,1,0,26,42,0,1,53298,1
2,31966,30503,32643,40014,37560,-5027,-458,-544,-225,667,-281,203,497,-139,1,0,26,42,40,1,53298,1
2,32037,30530,32675,40015,37578,-4917,-645,-237,27,463,-281,220,496,-140,1,0,26,42,80,1,53298,1
2,31973,30498,32588,40016,37595,-4248,-717,-340,490,-12,158,214,506,-130,1,0,26,42,120,1,53298,1
2,31948,30500,32583,40017,37613,-5456,-247,-873,-1202,257,-669,219,499,-133,1,0,26,42,160,1,53298,1
2,31930,30500,32562,40018,37631,-5252,-686,-273,-1006,235,-728,201,509,-133,1,0,26,42,200,1,53298,1
2,31861,34223,32425,40019,37649,-3707,-784,114,1452,-601,623,213,499,-147,1,0,26,42,240,1,53298,1
2,31854,30830,32468,40020,37668,-3513,-933,-63,728,-593,625,216,496,-146,1,0,26,42,280,1,53298,1
2,31828,33424,32365,40021,37687,-3744,-1250,-697,-608,-56,362,214,500,-138,1,0,26,42,320,1,53298,1
2,31840,32940,32399,40022,37706,-5573,-491,-1132,-2415,1329,-828,208,506,-140,1,0,26,42,360,1,53298,1
2,31825,32018,32441,40023,37723,-5716,-333,-119,1050,823,-482,217,507,-133,1,0,26,42,400,1,53298,1
2,31876,30611,32430,40024,37741,-4350,-561,-63,2668,-695,271,210,504,-126,1,0,26,42,440,1,53298,1
2,32072,30662,32465,40025,37759,-4332,-679,-483,-22,-721,-8,211,497,-137,1,0,26,42,480,1,53298,1
2,32046,32460,32668,40026,37777,-4665,-877,-533,-1835,-38,-273,217,495,-139,1,0,26,42,520,1,53298,1
2,32017,30623,32567,40027,37794,-4063,-857,-251,-320,199,557,214,504,-144,1,0,26,42,560,1,53298,1
2,31895,30553,32407,40028,37813,-5286,-160,-893,-358,250,-88,221,501,-137,1,0,26,42,600,1,53298,1
2,32035,30819,32571,40029,37831,-5485,-644,-448,-1849,509,-766,213,501,-139,1,0,26,42,640,1,53298,1
2,31990,30976,32465,40030,37849,-4062,-826,73,2078,-450,419,211,503,-143,1,0,26,42,680,1,53298,1
2,31938,31355,32388,40031,37867,-3195,-1108,-4,1312,-592,616,215,501,-135,1,0,26,42,720,1,53298,1
2,31926,30678,32384,40032,37885,-3296,-1443,-387,89,-16,392,218,496,-134,1,0,26,42,760,1,53298,1
2,31971,30669,32466,40033,37903,-6485,-241,-1707,-5053,1540,-1717,221,503,-149,1,0,26,42,800,1,53298,1
2,32011,30751,32441,40034,37921,-5991,-172,-68,1337,1200,-496,224,502,-146,1,0,26,42,840,1,53298,1
2,31975,30734,32358,40035,37939,-3493,-559,465,5010,-1022,1334,217,503,-153,1,0,26,42,880,1,53298,1
2,31910,30703,32280,40036,37957,-2543,-1469,188,1166,-1398,1123,216,492,-138,1,0,26,42,920,1,53298,1
2,31868,30697,32272,40037,37975,-5168,-132,-1880,-4470,-78,-696,216,502,-144,1,0,26,42,960,1,53298,1
1,31930,30625,32344,40038,0,-6817,-827,-632,-4582,1863,-1487,218,504,-146,1,0,26,43,0,0,53298,1
2,31884,30538,32305,40039,37100,-4571,-70,185,4925,-141,385,222,498,-148,1,0,26,43,40,0,53298,1
2,32008,30809,32363,40040,37117,-3243,-822,450,4973,-1446,1319,215,507,-139,1,0,26,43,80,0,53298,1
2,32399,30851,32627,40041,37134,-2999,-1726,-175,697,-1191,886,212,498,-130,1,0,26,43,120,0,53298,1
2,32149,30782,32530,40042,37151,-6106,-180,-1884,-7889,1307,-2172,222,508,-154,1,0,26,43,160,0,53298,1
2,32135,31007,32525,40043,37169,-6316,-445,-191,-755,1561,-875,215,497,-141,1,0,26,43,200,0,53298,1
2,32103,30930,32476,40044,37186,-4069,-422,269,4956,-525,1007,223,495,-139,1,0,26,43,240,0,53298,1
2,32093,30979,32383,40045,37203,-2914,-1331,197,2915,-1318,1245,213,491,-139,1,0,26,43,280,0,53298,1
2,32267,30876,32570,40046,37220,-3719,-935,-1182,-1153,-577,108,213,499,-135,1,0,26,43,320,0,53298,1
2,32224,31007,32595,40047,37238,-5964,-806,-1247,-5933,1745,-1771,218,490,-144,1,0,26,43,360,0,53298,1
2,32036,30662,32456,40048,37256,-5801,-172,-93,1157,912,-412,219,509,-137,1,0,26,43,400,0,53298,1
2,32085,30852,32452,40049,37273,-4193,-566,149,4101,-1026,1085,211,503,-135,1,0,26,43,440,0,53298,1
2,32117,31003,32453,40050,37289,-3582,-1064,-247,1460,-1281,920,212,498,-140,1,0,26,43,480,0,53298,1
2,32108,30723,32429,40051,37306,-3753,-1142,-672,-1195,-196,44,214,500,-144,1,0,26,43,520,0,53298,1
2,32090,30922,32456,40052,37323,-4306,-924,-522,-715,821,-233,207,505,-125,1,0,26,43,560,0,53298,1
2,32281,30770,32670,40053,37340,-5497,-969,-1461,-379,728,-540,200,508,-140,1,0,26,43,600,0,53298,1
2,32350,30959,33235,40054,37357,-6015,-580,-505,4116,119,843,213,511,-139,1,0,26,43,640,0,53298,1
2,32105,31334,32902,40055,37377,-4170,-1249,-706,6897,-429,1294,194,516,-130,1,0,26,43,680,0,53298,1
2,32290,30922,33027,40056,37398,-4175,-1203,-1364,8644,-28,511,191,513,-131,1,0,26,43,720,0,53298,1
2,32214,30917,32947,40057,37417,-4501,-942,-1100,10538,1814,-651,176,530,-134,1,0,26,43,760,0,53298,1
2,32023,30824,32601,40058,37438,-6392,-2290,712,7392,-439,244,183,519,-125,1,0,26,43,800,0,53298,1
2,32063,31010,32791,40059,37457,-4229,-794,-493,-1523,-249,386,181,531,-117,1,0,26,43,840,0,53298,1
2,32040,30912,32731,40060,37476,-4358,-135,836,-3317,-266,-266,180,530,-120,1,0,26,43,880,0,53298,1
2,32025,30884,32660,40061,37495,-5967,-405,206,-6933,-466,266,188,524,-118,1,0,26,43,920,0,53298,1
2,32033,30964,32648,40062,37512,-4546,748,653,-8758,-2702,406,197,515,-125,1,0,26,43,960,0,53298,1
1,31945,30931,32570,40063,0,-4633,-1708,-4072,-10366,-4470,1590,203,493,-127,1,0,26,44,0,0,53298,1
2,31859,30671,32518,40064,36642,-4217,-3815,-4051,747,1840,1137,199,507,-129,1,0,26,44,40,0,53298,1
2,31793,30850,32509,40065,36662,-3803,241,1666,18600,3012,-1813,195,513,-135,1,0,26,44,80,0,53298,1
2,31733,30850,32430,40066,36681,-4363,1844,3674,10577,1242,-1158,190,522,-124,1,0,26,44,120,0,53298,1
2,31812,30702,32429,40067,36699,-4538,1288,961,-3212,-3190,1906,185,515,-119,1,0,26,44,160,0,53298,1
2,31879,35178,32577,40068,36717,-5640,-1599,-3161,-16542,-2185,1960,201,503,-127,1,0,26,44,200,0,53298,1
2,31867,30792,32534,40069,36736,-5149,-825,-859,-9386,242,-685,207,503,-125,1,0,26,44,240,0,53298,1
2,31837,30861,32458,40070,36754,-4136,-42,1004,1441,-171,385,195,493,-129,1,0,26,44,280,0,53298,1
2,31821,30794,32437,40071,36773,-4738,-2218,-2955,2635,-386,2188,194,496,-128,1,0,26,44,320,0,53298,1
2,31870,30934,32511,40072,36792,-3224,-2470,-2299,5120,3679,-857,192,498,-152,1,0,26,44,360,0,53298,1
2,31852,30895,32535,40073,36811,-4387,788,2373,12199,3913,-2944,202,512,-140,1,0,26,44,400,0,53298,1
2,31855,30867,32495,40074,36830,-4558,1797,2684,4292,-279,-696,189,517,-145,1,0,26,44,440,0,53298,1
2,31916,30752,32563,40075,36848,-6269,-1554,-4021,-8714,-2207,1925,202,506,-140,1,0,26,44,480,0,53298,1
2,31862,30819,32521,40076,36868,-4512,-3284,-3264,-4274,1560,177,206,502,-144,1,0,26,44,520,0,53298,1
2,31738,30771,32461,40077,36886,-3952,337,2087,7837,2171,-2228,193,523,-135,1,0,26,44,560,0,53298,1
2,31774,30797,32433,40078,36905,-3818,942,4035,5974,-1177,64,188,516,-140,1,0,26,44,600,0,53298,1
2,31891,30726,32485,40079,36923,-4726,-752,-1696,-7329,-4067,2081,185,517,-131,1,0,26,44,640,0,53298,1
2,31893,30842,32540,40080,36941,-5535,-1814,-3944,-12531,-903,862,198,498,-128,1,0,26,44,680,0,53298,1
2,31861,30940,32517,40081,36959,-5392,71,217,-5058,1151,-1793,196,504,-132,1,0,26,44,720,0,53298,1
2,31776,30512,32426,40082,36978,-4653,11,1814,1074,463,-259,214,508,-134,1,0,26,44,760,0,53298,1
2,31856,30848,32336,40083,36997,-4002,-122,393,1303,-2465,1454,208,502,-136,1,0,26,44,800,0,53298,1
2,31735,30582,32396,40084,37016,-4105,-1422,-2496,-8970,-1292,502,206,496,-136,1,0,26,44,840,0,53298,1
2,31739,31220,32382,40085,37033,-4911,-1111,-625,-7397,969,-866,208,500,-134,1,0,26,44,880,0,53298,1
2,31720,30387,32328,40086,37051,-4988,-204,1396,-56,-73,-214,212,498,-134,1,0,26,44,920,0,53298,1
2,31765,30513,32372,40087,37069,-5048,-301,-1804,-1249,-1417,948,212,490,-118,1,0,26,44,960,0,53298,1
1,31696,31030,32386,40088,0,-4239,-2351,-3326,-4378,1145,55,217,493,-129,1,0,26,45,0,1,53298,1
2,31765,30450,32386,40089,36178,-4477,-40,1334,7161,1916,-873,227,501,-143,1,0,26,45,40,1,53298,1
2,31775,30432,32345,40090,36197,-4495,680,3339,5557,-438,-90,219,497,-137,1,0,26,45,80,1,53298,1
2,31879,30594,32440,40091,36215,-4045,806,569,-2497,-4368,1632,217,489,-123,1,0,26,45,120,1,53298,1
2,31941,30777,32478,40092,36232,-4858,-1528,-4557,-16553,-2126,952,219,483,-119,1,0,26,45,160,1,53298,1
2,31896,30591,32508,40093,36250,-5285,-2042,-1876,-8040,1583,-1481,227,485,-129,1,0,26,45,200,1,53298,1
2,31884,30435,32485,40094,36268,-5057,-35,1337,10552,1421,-499,219,489,-127,1,0,26,45,240,1,53298,1
2,31834,30417,32384,40095,36286,-4652,497,690,8860,35,841,207,483,-125,1,0,26,45,280,1,53298,1
2,31845,30407,32420,40096,36303,-4502,-947,-1965,-759,391,299,217,495,-123,1,0,26,45,320,1,53298,1
2,31845,30501,32486,40097,36321,-3735,-1898,-454,-2174,2890,-1243,221,493,-145,1,0,26,45,360,1,53298,1
2,31825,30521,32469,40098,36339,-4320,-175,1770,4251,1527,-1230,214,508,-132,1,0,26,45,400,1,53298,1
2,31865,30472,32475,40099,36357,-4635,727,369,3073,-951,434,208,506,-132,1,0,26,45,440,1,53298,1
2,32179,30604,32806,40100,36374,-5542,-1968,-3511,-2273,-683,638,220,504,-134,1,0,26,45,480,1,53298,1
2,32104,30566,32797,40101,36391,-4578,-1109,-853,3033,2252,-1429,218,500,-140,1,0,26,45,520,1,53298,1
2,31933,30565,32631,40102,36409,-4687,513,2495,7386,1501,-1023,220,508,-136,1,0,26,45,560,1,53298,1
2,31825,30643,32433,40103,36427,-4103,1276,3544,4970,-2576,1588,207,507,-137,1,0,26,45,600,1,53298,1
2,31860,30507,32455,40104,36444,-4619,-745,-1881,-10318,-4421,2324,211,487,-131,1,0,26,45,640,1,53298,1
2,31905,30784,32482,40105,36461,-4650,-3265,-4649,-18570,-45,186,216,486,-136,1,0,26,45,680,1,53298,1
2,31696,31325,32308,40106,36480,-4774,-634,-494,575,2467,-1703,208,492,-122,1,0,26,45,720,1,53298,1
2,31768,30475,32382,40107,36497,-4500,-216,1403,10280,2371,-521,216,494,-134,1,0,26,45,760,1,53298,1
2,31735,30711,32315,40108,36515,-4589,592,609,9241,-347,1095,216,500,-132,1,0,26,45,800,1,53298,1
2,31796,30403,32375,40109,36532,-4812,-630,-2197,-4809,-327,235,216,492,-128,1,0,26,45,840,1,53298,1
2,31687,31040,32347,40110,36549,-4348,-1911,-1232,-6252,2123,-1310,220,498,-140,1,0,26,45,880,1,53298,1
2,31687,30639,32387,40111,36567,-4411,-508,797,2673,1228,-1271,216,502,-138,1,0,26,45,920,1,53298,1
2,31815,30527,32453,40112,36584,-4451,250,838,7317,-919,1122,212,506,-132,1,0,26,45,960,1,53298,1
1,31948,30651,32572,40113,0,-4884,-1547,-2097,93,-1441,948,196,500,-122,1,0,26,46,0,0,53298,1
2,31882,30635,32575,40114,35717,-4643,-1383,-1072,-592,1191,-569,216,506,-136,1,0,26,46,40,0,53298,1
2,31753,30500,32470,40115,35733,-4872,490,1748,2316,1037,-792,219,513,-135,1,0,26,46,80,0,53298,1
2,31757,30464,32345,40116,35750,-4450,400,2467,1417,-1326,875,206,502,-132,1,0,26,46,120,0,53298,1
2,31691,31054,32226,40117,35767,-4706,-433,-1225,-5317,-3466,1740,208,498,-122,1,0,26,46,160,0,53298,1
2,31762,30395,32345,40118,35784,-4555,-2298,-3607,-12977,-236,-143,214,496,-138,1,0,26,46,200,0,53298,1
2,31714,30370,32326,40119,35802,-4250,-1610,-1190,-1432,3100,-1769,226,494,-144,1,0,26,46,240,0,53298,1
2,31717,30486,32331,40120,35820,-4424,-345,1110,8544,2612,-973,219,505,-127,1,0,26,46,280,0,53298,1
2,31748,30505,32331,40121,35837,-4916,511,779,8105,74,910,212,508,-122,1,0,26,46,320,0,53298,1
2,31755,30476,32338,40122,35855,-4843,-596,-1321,-2540,-1021,519,211,499,-135,1,0,26,46,360,0,53298,1
2,31745,30513,32366,40123,35872,-4489,-1501,-1053,-5748,404,-258,222,510,-140,1,0,26,46,400,0,53298,1
2,31715,30518,32341,40124,35890,-4224,-882,70,-523,415,-655,220,500,-132,1,0,26,46,440,0,53298,1
2,31734,30511,32334,40125,35909,-4377,-296,294,4805,-685,665,211,507,-133,1,0,26,46,480,0,53298,1
2,31750,30512,32370,40126,35926,-4951,-1472,-2096,1023,-608,508,205,503,-133,1,0,26,46,520,0,53298,1
2,31735,30533,32428,40127,35945,-4688,-1421,-1554,2127,2013,-474,205,505,-133,1,0,26,46,560,0,53298,1
2,31720,30526,32415,40128,35964,-4796,454,1505,6642,1958,-756,218,514,-142,1,0,26,46,600,0,53298,1
2,31710,30520,32355,40129,35982,-4434,433,2833,3937,-573,529,208,512,-140,1,0,26,46,640,0,53298,1
2,31697,30506,32300,40130,36000,-4395,413,-487,-5170,-3667,1535,207,507,-133,1,0,26,46,680,0,53298,1
2,31717,30520,32340,40131,36017,-4809,-2039,-3351,-14813,-1582,551,221,501,-139,1,0,26,46,720,0,53298,1
2,31699,30524,32362,40132,36035,-4631,-1956,-2016,-5511,1929,-1456,223,503,-137,1,0,26,46,760,0,53298,1
2,31675,30522,32316,40133,36052,-4575,-334,849,7895,2176,-847,209,505,-139,1,0,26,46,800,0,53298,1
2,31680,30532,32260,40134,36070,-4346,359,1728,10016,-182,1054,211,513,-141,1,0,26,46,840,0,53298,1
2,31705,30535,32293,40135,36086,-4767,-496,-1532,-3155,-1752,860,217,495,-147,1,0,26,46,880,0,53298,1
2,31676,30512,32296,40136,36103,-4711,-2182,-2328,-10189,582,-309,223,497,-143,1,0,26,46,920,0,53298,1
2,31658,30576,32305,40137,36120,-4429,-1093,-301,-717,1498,-1312,220,494,-140,1,0,26,46,960,0,53298,1
1,31672,30668,32273,40138,0,-4344,-271,1222,7360,214,274,217,493,-137,1,0,26,47,0,1,53298,1
2,31709,30654,32310,40139,35256,-4926,-118,-775,4280,-1675,1302,207,501,-131,1,0,26,47,40,1,53298,1
2,31716,30651,32356,40140,35274,-4906,-1153,-2065,-4313,97,-44,219,507,-139,1,0,26,47,80,1,53298,1
2,31668,30642,32354,40141,35291,-4558,-1013,-47,-609,1928,-1021,216,508,-126,1,0,26,47,120,1,53298,1
2,31662,30707,32318,40142,35309,-4338,-89,1842,4364,471,-288,218,508,-132,1,0,26,47,160,1,53298,1
2,31698,30779,32279,40143,35326,-4279,815,967,3878,-2287,1533,216,502,-132,1,0,26,47,200,1,53298,1
2,31700,30490,32270,40144,35343,-5034,-1240,-2581,-8378,-2137,878,212,492,-138,1,0,26,47,240,1,53298,1
2,31690,30558,32318,40145,35361,-4874,-2143,-2433,-7764,1327,-784,220,498,-136,1,0,26,47,280,1,53298,1
2,31660,30562,32289,40146,35380,-4505,-739,108,3251,2523,-1414,225,501,-147,1,0,26,47,320,1,53298,1
2,31646,30395,32241,40147,35397,-4314,-81,1719,9389,763,416,211,507,-143,1,0,26,47,360,1,53298,1
2,31632,30343,32198,40148,35415,-4468,393,33,3480,-1981,1361,208,500,-136,1,0,26,47,400,1,53298,1
2,31682,30443,32265,40149,35433,-4971,-1240,-2293,-8789,-1255,369,217,499,-123,1,0,26,47,440,1,53298,1
2,31641,30353,32262,40150,35450,-4726,-1548,-1374,-5784,1150,-989,223,505,-135,1,0,26,47,480,1,53298,1
2,31620,30350,32230,40151,35468,-4348,-770,248,3313,1267,-893,219,509,-137,1,0,26,47,520,1,53298,1
2,31510,32130,32087,40152,35485,-4369,-70,1303,8793,-369,954,219,501,-135,1,0,26,47,560,1,53298,1
2,31535,32975,32102,40153,35502,-4818,-525,-1231,127,-1550,845,219,507,-131,1,0,26,47,600,1,53298,1
2,31519,33009,32117,40154,35520,-4929,-1526,-1638,-6680,570,-371,218,504,-136,1,0,26,47,640,1,53298,1
2,31501,33077,32125,40155,35538,-4631,-746,120,-935,1325,-1028,210,500,-144,1,0,26,47,680,1,53298,1
2,31597,30414,32189,40156,35555,-4458,-196,1287,3895,3,214,221,509,-129,1,0,26,47,720,1,53298,1
2,31702,30626,32209,40157,35573,-4196,163,490,3045,-2216,1513,204,504,-122,1,0,26,47,760,1,53298,1
2,31720,30734,32232,40158,35591,-4943,-1374,-2628,-8441,-1628,508,224,494,-128,1,0,26,47,800,1,53298,1
2,31689,30765,32266,40159,35610,-4785,-1742,-1787,-6251,1412,-873,228,496,-138,1,0,26,47,840,1,53298,1
2,31660,30652,32233,40160,35628,-4547,-691,262,3661,1858,-946,216,500,-132,1,0,26,47,880,1,53298,1
2,31681,30745,32210,40161,35647,-4428,-34,1360,8255,159,718,221,501,-135,1,0,26,47,920,1,53298,1
2,31700,30763,32217,40162,35664,-4657,-71,-632,1529,-1674,1137,207,503,-127,1,0,26,47,960,1,53298,1
1,31703,30751,32235,40163,0,-4858,-1370,-1927,-7266,-339,77,220,492,-138,1,0,26,48,0,0,53298,1
2,31684,30791,32265,40164,34797,-4585,-1117,-517,-2235,1099,-819,226,506,-138,1,0,26,48,40,0,53298,1
2,31676,30792,32221,40165,34815,-4391,-526,786,3894,483,-205,224,508,-134,1,0,26,48,80,0,53298,1
2,31683,30760,32190,40166,34833,-4203,-259,1025,5425,-1227,1090,212,502,-130,1,0,26,48,120,0,53298,1
2,31704,30547,32175,40167,34850,-4738,-623,-1427,-3145,-1777,824,215,509,-127,1,0,26,48,160,0,53298,1
2,31682,30493,32215,40168,34868,-4909,-1480,-1552,-7231,639,-511,215,499,-127,1,0,26,48,200,0,53298,1
2,31685,30745,32216,40169,34886,-4974,-485,248,1027,698,-468,225,499,-129,1,0,26,48,240,0,53298,1
2,31681,30719,32184,40170,34904,-4563,-168,273,4347,-201,628,220,504,-138,1,0,26,48,280,0,53298,1
2,31696,30719,32210,40171,34921,-4622,-1049,-1617,-11,-162,388,216,500,-134,1,0,26,48,320,0,53298,1
2,31673,30718,32201,40172,34939,-4525,-1218,-784,-982,1461,-475,218,498,-124,1,0,26,48,360,0,53298,1
2,31662,30700,32177,40173,34957,-4660,-182,968,2733,995,-290,210,508,-142,1,0,26,48,400,0,53298,1
2,31655,30685,32113,40174,34974,-4157,-59,1446,2556,-1044,879,216,496,-132,1,0,26,48,440,0,53298,1
2,31686,30717,32116,40175,34992,-4141,-183,-707,-2238,-2972,1185,213,497,-129,1,0,26,48,480,0,53298,1
2,31678,30632,32131,40176,35010,-4786,-1875,-2763,-9819,-763,15,215,493,-137,1,0,26,48,520,0,53298,1
2,31639,30337,32104,40177,35028,-5268,-739,-642,127,860,-413,215,491,-135,1,0,26,48,560,0,53298,1
2,31636,30363,32110,40178,35046,-4976,-275,-632,5684,1083,53,208,498,-140,1,0,26,48,600,0,53298,1
2,31629,30363,32126,40179,35064,-4946,-1562,-1846,5724,1742,205,208,504,-136,1,0,26,48,640,0,53298,1
2,31604,30369,32133,40180,35083,-4399,-176,718,8738,2107,-314,210,506,-142,1,0,26,48,680,0,53298,1
2,31614,30382,32114,40181,35101,-4084,385,2694,5520,130,256,214,510,-134,1,0,26,48,720,0,53298,1
2,31610,30392,32038,40182,35119,-3577,207,827,-2409,-2964,1576,208,506,-130,1,0,26,48,760,0,53298,1
2,31648,30394,32079,40183,35137,-4584,-1785,-3049,-12350,-2396,947,211,495,-133,1,0,26,48,800,0,53298,1
2,31664,30596,32126,40184,35155,-4925,-2120,-2397,-7346,904,-1146,223,499,-125,1,0,26,48,840,0,53298,1
2,31644,30638,32112,40185,35174,-5131,-333,223,5927,1676,-1012,213,505,-143,1,0,26,48,880,0,53298,1
2,31640,30629,32101,40186,35193,-5242,157,-278,8151,1011,222,208,504,-144,1,0,26,48,920,0,53298,1
2,31634,30599,32142,40187,35212,-4785,-946,-1316,4149,1117,326,208,506,-146,1,0,26,48,960,0,53298,1
1,31596,30332,32075,40188,0,-4423,-11,1072,3388,1197,-304,202,510,-134,1,0,26,49,0,0,53298,1
2,31551,30322,31983,40189,34338,-4168,341,2782,792,-1416,533,213,503,-135,1,0,26,49,40,0,53298,1
2,31566,30317,31900,40190,34356,-3835,286,-5,-5630,-4466,1815,207,489,-125,1,0,26,49,80,0,53298,1
2,31718,30459,32033,40191,34374,-5070,-2284,-4919,-14703,-2010,1002,215,495,-141,1,0,26,49,120,0,53298,1
2,31676,30717,32082,40192,34392,-5007,-1555,-1977,-3521,2188,-1707,219,493,-135,1,0,26,49,160,0,53298,1
2,31643,30724,32060,40193,34411,-4902,-297,976,9939,2735,-1104,218,500,-140,1,0,26,49,200,0,53298,1
2,31655,30739,32082,40194,34430,-4925,212,270,10382,724,646,206,508,-134,1,0,26,49,240,0,53298,1
2,31639,30704,32088,40195,34448,-4637,-962,-1599,3368,568,599,190,510,-114,1,0,26,49,280,0,53298,1
2,31598,30598,32084,40196,34466,-4183,-601,464,427,1613,-881,210,504,-136,1,0,26,49,320,0,53298,1
2,31594,30599,32018,40197,34485,-4289,51,2141,279,-290,-248,198,510,-134,1,0,26,49,360,0,53298,1
2,31631,30537,31999,40198,34503,-3885,206,499,-1479,-3490,1563,210,504,-130,1,0,26,49,400,0,53298,1
2,31653,30316,31961,40199,34522,-5409,-1929,-3901,-9274,-2467,1235,203,497,-127,1,0,26,49,440,0,53298,1
2,31620,30383,32051,40200,34541,-4825,-2006,-2381,-3901,1856,-1326,218,498,-132,1,0,26,49,480,0,53298,1
2,31595,30399,32052,40201,34560,-4710,-162,982,6484,2866,-1927,211,505,-145,1,0,26,49,520,0,53298,1
2,31597,30426,32018,40202,34579,-4607,582,2423,8189,650,136,197,519,-131,1,0,26,49,560,0,53298,1
2,31640,30458,32023,40203,34596,-4627,19,-530,-549,-2131,1344,204,510,-126,1,0,26,49,600,0,53298,1
2,31640,30483,32058,40204,34614,-4981,-1795,-2527,-9714,-770,463,209,499,-131,1,0,26,49,640,0,53298,1
2,31617,30508,32070,40205,34632,-4438,-1376,-1054,-3817,1520,-1312,216,504,-126,1,0,26,49,680,0,53298,1
2,31619,30598,32066,40206,34651,-4330,-395,870,4442,1160,-726,208,514,-140,1,0,26,49,720,0,53298,1
2,31651,30662,32041,40207,34669,-4386,-141,1206,6491,-900,1150,206,500,-134,1,0,26,49,760,0,53298,1
2,31679,30689,32069,40208,34686,-4860,-580,-1583,-2540,-1990,985,202,512,-122,1,0,26,49,800,0,53298,1
2,31671,30730,32092,40209,34704,-4969,-1643,-1809,-7337,391,-284,208,494,-138,1,0,26,49,840,0,53298,1
2,31647,30747,32081,40210,34722,-4809,-416,395,-249,808,-944,209,507,-129,1,0,26,49,880,0,53298,1
2,31660,30710,32048,40211,34740,-4559,-10,1142,3426,-400,480,215,507,-133,1,0,26,49,920,0,53298,1
2,31670,30699,32035,40212,34757,-4295,-431,-264,481,-1825,1135,205,507,-117,1,0,26,49,960,0,53298,1
1,31650,30409,32021,40213,0,-4412,-1093,-1395,-6596,-800,119,214,490,-122,1,0,26,50,0,0,53298,1
2,31669,30520,32000,40214,33877,-5154,-482,144,-4626,-93,-202,211,493,-131,1,0,26,50,40,0,53298,1
2,31688,30643,31990,40215,33895,-4861,-186,-188,-1562,-863,370,219,495,-131,1,0,26,50,80,0,53298,1
2,31687,30689,31995,40216,33912,-4695,-1285,-1974,-3207,-439,254,221,495,-127,1,0,26,50,120,0,53298,1
2,31658,30601,31989,40217,33930,-4233,-1172,-512,93,1210,-227,225,485,-135,1,0,26,50,160,0,53298,1
2,31641,30607,31974,40218,33948,-4491,-180,1246,2832,752,-278,219,493,-135,1,0,26,50,200,0,53298,1
2,31667,30642,31946,40219,33965,-4245,-236,1147,730,-1107,572,222,496,-130,1,0,26,50,240,0,53298,1
2,31717,30714,31962,40220,33982,-4249,-669,-444,-3974,-2227,779,215,489,-119,1,0,26,50,280,0,53298,1
2,31751,30662,31949,40221,34000,-5003,-927,-879,-6553,-1548,560,219,497,-121,1,0,26,50,320,0,53298,1
2,31780,30843,31926,40222,34019,-5615,-174,-690,-2175,-1633,675,226,486,-128,1,0,26,50,360,0,53298,1
2,31765,30818,31907,40223,34037,-4609,-666,-1142,-356,-1172,257,215,485,-127,1,0,26,50,400,0,53298,1
2,31717,30409,31885,40224,34055,-4010,-1217,-773,388,713,-247,225,483,-129,1,0,26,50,440,0,53298,1
2,31707,30394,31904,40225,34073,-4215,-772,393,2007,1450,-450,216,482,-128,1,0,26,50,480,0,53298,1
2,31717,30455,31955,40226,34091,-4519,-438,173,1795,1038,-193,220,484,-128,1,0,26,50,520,0,53298,1
2,31742,30470,31993,40227,34109,-4909,-567,-1109,-1694,1433,-850,214,492,-122,1,0,26,50,560,0,53298,1
2,31759,30600,32059,40228,34128,-4997,-873,-479,-735,1635,-960,223,497,-139,1,0,26,50,600,0,53298,1
2,31750,30733,32090,40229,34146,-4591,-713,108,2764,833,-317,225,485,-127,1,0,26,50,640,0,53298,1
2,31745,30786,32108,40230,34163,-4432,-488,91,3945,-19,378,220,494,-126,1,0,26,50,680,0,53298,1
2,31747,30810,32139,40231,34181,-4513,-508,-97,1973,-283,375,208,488,-132,1,0,26,50,720,0,53298,1
2,31739,30825,32167,40232,34199,-4770,-480,-112,-736,-49,-33,222,484,-128,1,0,26,50,760,0,53298,1
2,31771,30844,32293,40233,34217,-5039,-506,-203,-1453,-37,-102,215,491,-129,1,0,26,50,800,0,53298,1
2,31777,30798,32361,40234,34235,-4603,-667,-134,-396,-236,89,220,494,-126,1,0,26,50,840,0,53298,1
2,31840,30864,32432,40235,34252,-4416,-599,-90,258,-262,316,221,485,-133,1,0,26,50,880,0,53298,1
2,31862,30700,32453,40236,34270,-4374,-811,-359,-1184,172,262,215,483,-125,1,0,26,50,920,0,53298,1
2,31983,30942,32571,40237,34287,-4350,-866,-583,-1346,605,426,217,489,-125,1,0,26,50,960,0,53298,1
1,32041,30813,32627,40238,0,-5179,-526,-906,-1706,949,-370,213,493,-135,1,0,26,51,0,1,53298,1
2,32005,30647,32609,40239,33415,-4853,-658,-198,471,580,-393,225,487,-137,1,0,26,51,40,1,53298,1
2,31825,30723,32449,40240,33432,-4189,-558,115,1690,-251,70,230,498,-136,1,0,26,51,80,1,53298,1
2,31997,30898,32600,40241,33449,-4362,-698,-173,-280,-434,87,220,500,-140,1,0,26,51,120,1,53298,1
2,31849,30785,32395,40242,33467,-4925,-620,-521,-1939,-107,-278,219,487,-123,1,0,26,51,160,1,53298,1
2,31782,30359,32338,40243,33484,-4651,-710,-295,180,-85,136,222,488,-140,1,0,26,51,200,1,53298,1
2,32046,30529,32626,40244,33501,-4114,-940,-259,1346,39,509,226,492,-140,1,0,26,51,240,1,53298,1
2,32044,30547,32634,40245,33519,-4327,-797,-294,1317,269,199,227,493,-135,1,0,26,51,280,1,53298,1
2,32070,30570,32659,40246,33537,-5273,-357,-541,-121,637,-391,223,491,-139,1,0,26,51,320,1,53298,1
2,32095,30630,32684,40247,33554,-4842,-470,-95,1582,255,-30,213,495,-129,1,0,26,51,360,1,53298,1
2,32058,30626,32643,40248,33572,-4117,-687,1,1718,-340,275,215,491,-133,1,0,26,51,400,1,53298,1
2,32007,30594,32602,40249,33589,-3844,-1089,-154,326,-367,219,231,493,-129,1,0,26,51,440,1,53298,1
2,32061,30647,32695,40250,33605,-5204,-361,-939,-1672,245,-545,224,490,-140,1,0,26,51,480,1,53298,1
2,32093,30750,32714,40251,33623,-5270,-495,-238,247,494,-295,227,497,-133,1,0,26,51,520,1,53298,1
2,32066,30773,32684,40252,33639,-4243,-606,41,1848,-168,308,216,494,-126,1,0,26,51,560,1,53298,1
2,32058,30799,32631,40253,33656,-3735,-1055,-78,455,-421,353,215,499,-137,1,0,26,51,600,1,53298,1
2,32040,30815,32636,40254,33674,-4671,-686,-884,-1300,-1,-234,227,483,-141,1,0,26,51,640,1,53298,1
2,32046,30904,32687,40255,33690,-5590,-509,-577,-1186,737,-610,222,490,-130,1,0,26,51,680,1,53298,1
2,32025,30910,32633,40256,33706,-4618,-363,42,2029,93,244,227,497,-143,1,0,26,51,720,1,53298,1
2,32004,30896,32613,40257,33723,-3878,-704,216,743,-580,419,223,489,-139,1,0,26,51,760,1,53298,1
2,31995,30897,32608,40258,33740,-4193,-824,-216,-2310,-602,39,212,488,-134,1,0,26,51,800,1,53298,1
2,32020,30815,32639,40259,33756,-5559,-411,-877,-4197,-52,-649,225,485,-141,1,0,26,51,840,1,53298,1
2,31992,30720,32616,40260,33773,-4950,-523,-261,-659,-151,86,221,491,-139,1,0,26,51,880,1,53298,1
2,31968,30731,32555,40261,33789,-3979,-754,113,235,-669,427,229,491,-143,1,0,26,51,920,1,53298,1
2,31970,30737,32552,40262,33805,-3723,-1190,-105,-1596,-719,215,233,487,-141,1,0,26,51,960,1,53298,1
1,31993,30718,32570,40263,0,-5105,-506,-1040,-3086,-37,-440,226,486,-138,1,0,26,52,0,0,53298,1
2,31981,30762,32548,40264,32955,-5381,-607,-613,5,455,-162,228,486,-144,1,0,26,52,40,0,53298,1
2,31952,30717,32503,40265,32971,-4316,-755,-141,2935,116,361,221,491,-135,1,0,26,52,80,0,53298,1
2,31959,30734,32510,40266,32987,-4439,-699,-387,2062,131,196,223,489,-135,1,0,26,52,120,0,53298,1
2,31964,30740,32493,40267,33003,-4781,-566,-464,936,442,7,228,490,-138,1,0,26,52,160,0,53298,1
2,31969,31113,32540,40268,33020,-4265,-947,-190,1257,264,539,224,492,-146,1,0,26,52,200,0,53298,1
2,31879,32152,32429,40269,33039,-4020,-871,-151,2471,54,374,226,498,-146,1,0,26,52,240,0,53298,1
2,32125,30894,32671,40270,33056,-5267,-247,-705,97,382,-514,223,487,-151,1,0,26,52,280,0,53298,1
2,32107,31002,32644,40271,33074,-5473,-350,-248,345,528,-589,220,490,-140,1,0,26,52,320,0,53298,1
2,32073,31005,32610,40272,33091,-4262,-654,-13,2329,-110,125,221,499,-137,1,0,26,52,360,0,53298,1
2,32008,30916,32554,40273,33108,-3706,-1010,-35,1453,-210,214,223,497,-149,1,0,26,52,400,0,53298,1
2,32052,30848,32602,40274,33125,-3716,-1259,-431,482,29,-76,232,498,-144,1,0,26,52,440,0,53298,1
2,32175,30917,32767,40275,33144,-4766,-1307,-1692,-991,1153,-1346,219,505,-139,1,0,26,52,480,0,53298,1
2,32160,30937,32722,40276,33164,-4863,-1022,-1054,4946,2610,-1390,219,503,-145,1,0,26,52,520,0,53298,1
2,32199,34180,32964,40277,33182,-4964,51,110,9911,2258,-856,213,511,-143,1,0,26,52,560,0,53298,1
2,32146,31028,32853,40278,33199,-5707,937,1492,4823,523,-367,213,507,-149,1,0,26,52,600,0,53298,1
2,32027,30809,32696,40279,33217,-4891,378,950,-2968,-2154,1217,222,506,-136,1,0,26,52,640,0,53298,1
2,31896,30925,32552,40280,33234,-4126,-613,-187,-8715,-3514,1663,220,496,-136,1,0,26,52,680,0,53298,1
2,31758,31487,32340,40281,33251,-3846,-1721,-932,-10526,-2611,885,209,485,-129,1,0,26,52,720,0,53298,1
2,31861,30519,32445,40282,33268,-4792,-1109,-2864,-7633,-540,-564,230,486,-140,1,0,26,52,760,0,53298,1
2,31895,30500,32486,40283,33286,-5590,-3282,-4423,2085,3408,-1577,224,492,-150,1,0,26,52,800,0,53298,1
2,31753,30395,32440,40284,33304,-4259,-266,-234,21374,6152,-1512,222,512,-154,1,0,26,52,840,0,53298,1
2,31705,30388,32450,40285,33321,-4523,1850,3195,19765,3910,-776,224,516,-148,1,0,26,52,880,0,53298,1
2,31643,30520,32365,40286,33338,-4702,1363,3214,2479,-1311,1179,205,511,-131,1,0,26,52,920,0,53298,1
2,31674,30430,32332,40287,33355,-4379,327,-50,-14716,-4878,2255,217,503,-145,1,0,26,52,960,0,53298,1
1,31794,30568,32406,40288,0,-5504,-2663,-4996,-21685,-3673,531,226,486,-142,1,0,26,53,0,0,53298,1
2,31763,30760,32389,40289,32496,-4663,-1910,-2212,-3199,459,-493,224,500,-142,1,0,26,53,40,0,53298,1
2,31690,30404,32312,40290,32513,-4296,-374,863,10190,1401,-131,225,505,-135,1,0,26,53,80,0,53298,1
2,31688,30384,32300,40291,32531,-4176,-1,1456,6684,323,310,212,506,-142,1,0,26,53,120,0,53298,1
2,31757,30656,32360,40292,32548,-4752,-604,-1158,-3611,-586,21,227,501,-135,1,0,26,53,160,0,53298,1
2,31755,30626,32373,40293,32566,-4840,-1454,-1366,-4250,1068,-545,228,496,-138,1,0,26,53,200,0,53298,1
2,31724,30434,32341,40294,32585,-5117,-78,734,2257,485,-201,223,497,-143,1,0,26,53,240,0,53298,1
2,31710,30451,32322,40295,32603,-4397,-126,1137,1157,-1351,1134,216,500,-132,1,0,26,53,280,0,53298,1
2,31860,30597,32412,40296,32620,-3934,-874,-163,-4076,-2610,1272,223,503,-125,1,0,26,53,320,0,53298,1
2,31891,30851,32396,40297,32638,-4423,-1421,-2265,-9778,-1235,-125,226,488,-136,1,0,26,53,360,0,53298,1
2,31872,30835,32356,40298,32655,-5265,-989,-450,-2893,196,-360,221,483,-139,1,0,26,53,400,0,53298,1
2,31845,30787,32332,40299,32672,-4704,-139,520,1813,-397,449,228,482,-134,1,0,26,53,440,0,53298,1
2,31880,30762,32333,40300,32688,-4129,-1066,-782,-1623,-1115,585,230,482,-140,1,0,26,53,480,0,53298,1
2,31819,30823,32356,40301,32706,-4461,-920,-648,-1999,-428,-12,224,492,-132,1,0,26,53,520,0,53298,1
2,31899,30811,32360,40302,32723,-4859,-454,110,-351,-42,3,224,484,-122,1,0,26,53,560,0,53298,1
2,31911,30783,32363,40303,32740,-4499,-828,-1477,-1713,83,-69,233,485,-139,1,0,26,53,600,0,53298,1
2,31904,30772,32384,40304,32758,-3927,-1494,-893,418,1463,-806,230,486,-140,1,0,26,53,640,0,53298,1
2,31920,30752,32408,40305,32775,-4859,-270,950,6124,930,-226,225,495,-141,1,0,26,53,680,0,53298,1
2,31920,30808,32410,40306,32792,-4840,101,755,2913,-360,447,226,482,-134,1,0,26,53,720,0,53298,1
2,32046,30825,32609,40307,32810,-4512,-1171,-791,-2770,-1189,1415,216,498,-134,1,0,26,53,760,0,53298,1
2,31984,30554,32390,40308,32830,-3775,-1343,-1061,-2803,-10,260,226,490,-136,1,0,26,53,800,0,53298,1
2,31953,34406,32595,40309,32850,-4135,-995,-449,731,914,2,207,495,-125,1,0,26,53,840,0,53298,1
2,32138,30876,32810,40310,32871,-5710,135,99,3391,699,547,216,500,-128,1,0,26,53,880,0,53298,1
2,32205,35155,32772,40311,32891,-5653,-49,357,1178,-744,625,217,499,-131,1,0,26,53,920,0,53298,1
2,32080,33824,32665,40312,32911,-4254,-646,-151,-1519,-1594,254,217,499,-117,1,0,26,53,960,0,53298,1
1,32006,34099,32650,40313,0,-4574,-651,-1017,-3140,-487,-293,229,487,-125,1,0,26,54,0,1,53298,1
2,32074,31863,32710,40314,32037,-5119,-1125,-652,-1352,866,-723,224,488,-132,1,0,26,54,40,1,53298,1
2,32170,32501,32689,40315,32056,-4492,-646,-202,4122,848,-85,223,493,-125,1,0,26,54,80,1,53298,1
2,32094,33048,32718,40316,32073,-4068,-559,166,4903,843,40,221,495,-127,1,0,26,54,120,1,53298,1
2,32264,30617,32887,40317,32090,-4490,-526,-51,703,1057,-615,216,494,-134,1,0,26,54,160,1,53298,1
2,32205,30624,32879,40318,32108,-4716,-629,-308,-891,841,-481,228,506,-144,1,0,26,54,200,1,53298,1
2,32064,30610,32736,40319,32124,-4456,-844,-547,-501,368,-118,215,493,-125,1,0,26,54,240,1,53298,1
2,32016,30550,32666,40320,32141,-4832,-653,-993,40,175,-406,220,502,-136,1,0,26,54,280,1,53298,1
2,32010,30536,32679,40321,32160,-4783,-1077,-885,1054,544,-662,217,495,-137,1,0,26,54,320,1,53298,1
2,31998,30515,32693,40322,32177,-4291,-827,-321,4237,690,-175,226,502,-144,1,0,26,54,360,1,53298,1
2,31968,30550,32645,40323,32195,-3931,-1121,-260,4707,629,25,218,506,-140,1,0,26,54,400,1,53298,1
2,32052,30530,32746,40324,32213,-4004,-1478,-1367,8683,638,812,206,506,-138,1,0,26,54,440,1,53298,1
2,32109,30631,32913,40325,32230,-4298,-808,-787,11270,1570,-189,200,522,-144,1,0,26,54,480,1,53298,1
2,32262,30700,33059,40326,32248,-5512,3813,3550,8698,294,-398,199,521,-137,1,0,26,54,520,1,53298,1
2,32196,30682,32832,40327,32266,-4987,1020,735,-2925,-1805,884,203,517,-135,1,0,26,54,560,1,53298,1
2,32028,30827,32672,40328,32283,-4797,416,829,-10331,-3407,1307,213,511,-127,1,0,26,54,600,1,53298,1
2,32048,30937,32687,40329,32300,-4827,-802,431,-14179,-3734,1575,207,499,-125,1,0,26,54,640,1,53298,1
2,32097,30924,32705,40330,32318,-4712,-937,-1158,-15636,-3414,542,218,490,-124,1,0,26,54,680,1,53298,1
2,32045,30929,32619,40331,32335,-4275,-1257,-4786,-11644,-1703,-167,229,491,-127,1,0,26,54,720,1,53298,1
2,31946,30815,32600,40332,32353,-5197,-2760,-4397,3099,3297,-353,221,483,-143,1,0,26,54,760,1,53298,1
2,31945,30867,32636,40333,32371,-4553,137,2031,23035,4635,-792,198,502,-146,1,0,26,54,800,1,53298,1
2,31947,30904,32596,40334,32389,-5066,2265,4045,14409,1775,-674,206,510,-138,1,0,26,54,840,1,53298,1
2,31933,30889,32516,40335,32407,-4054,1482,2523,-2299,-3855,2499,202,498,-118,1,0,26,54,880,1,53298,1
2,32022,30897,32583,40336,32424,-4471,-1372,-2375,-18796,-4803,3172,216,488,-130,1,0,26,54,920,1,53298,1
2,32000,30828,32590,40337,32442,-4277,-5028,-6255,-19126,1032,-565,218,492,-124,1,0,26,54,960,1,53298,1
1,31931,30800,32564,40338,0,-5331,259,1410,13413,2097,-1473,217,485,-139,1,0,26,55,0,1,53298,1
2,31966,30769,32535,40339,31577,-4854,1931,3790,14319,409,686,212,490,-130,1,0,26,55,40,1,53298,1
2,32010,30802,32555,40340,31595,-4025,-57,-309,-1594,-3089,2314,204,482,-126,1,0,26,55,80,1,53298,1
2,32020,30927,32584,40341,31613,-4256,-2754,-4169,-17135,64,712,220,484,-122,1,0,26,55,120,1,53298,1
2,31936,30850,32551,40342,31630,-4706,-268,26,-2153,1973,-1507,223,489,-137,1,0,26,55,160,1,53298,1
2,31906,30715,32494,40343,31649,-4752,-125,865,7796,1260,-527,217,497,-127,1,0,26,55,200,1,53298,1
2,31949,30871,32545,40344,31667,-5812,-821,-2926,6656,594,1066,203,485,-133,1,0,26,55,240,1,53298,1
2,31974,30693,32607,40345,31686,-4199,-1563,-1450,8932,2999,92,202,502,-136,1,0,26,55,280,1,53298,1
2,31837,30493,32513,40346,31704,-4211,744,2797,11290,3042,-1780,209,507,-133,1,0,26,55,320,1,53298,1
2,31732,30568,32500,40347,31722,-3854,1909,4542,2911,-1738,-152,202,502,-132,1,0,26,55,360,1,53298,1
2,31946,30677,32528,40348,31740,-4403,-365,-1620,-12704,-4796,2666,211,495,-127,1,0,26,55,400,1,53298,1
2,31950,30886,32555,40349,31758,-5522,-3874,-7037,-18270,-600,736,217,489,-133,1,0,26,55,440,1,53298,1
2,31860,30792,32537,40350,31776,-5629,507,-160,5432,2557,-2357,218,498,-136,1,0,26,55,480,1,53298,1
2,31859,30719,32507,40351,31794,-4981,650,2511,12827,2897,-1213,204,504,-136,1,0,26,55,520,1,53298,1
2,31858,30706,32455,40352,31812,-3932,1093,1797,8291,-1390,1552,204,502,-128,1,0,26,55,560,1,53298,1
2,31851,30718,32435,40353,31830,-4157,-713,-1123,-8008,-1930,1691,204,490,-130,1,0,26,55,600,1,53298,1
2,31848,30836,32456,40354,31848,-4655,-2274,-1622,-14392,309,-282,215,495,-127,1,0,26,55,640,1,53298,1
2,31850,30805,32442,40355,31866,-5179,62,768,-1707,-538,-362,217,493,-121,1,0,26,55,680,1,53298,1
2,31904,30708,32425,40356,31885,-4203,-32,272,1268,-1671,1184,218,486,-124,1,0,26,55,720,1,53298,1
2,31908,30867,32453,40357,31904,-5136,-2251,-4914,-5171,44,382,220,484,-136,1,0,26,55,760,1,53298,1
2,31826,30756,32457,40358,31922,-4115,-2000,-1201,3128,3826,-1693,225,495,-137,1,0,26,55,800,1,53298,1
2,31836,30834,32476,40359,31941,-4971,523,3046,12988,2595,-1569,207,507,-141,1,0,26,55,840,1,53298,1
2,31840,30815,32431,40360,31960,-4042,2141,3175,5815,-2129,903,208,496,-128,1,0,26,55,880,1,53298,1
2,31850,30778,32414,40361,31978,-5260,-1181,-2346,-9699,-3662,2407,208,490,-126,1,0,26,55,920,1,53298,1
2,31826,30769,32435,40362,31997,-4507,-3939,-4074,-14079,793,-460,225,495,-137,1,0,26,55,960,1,53298,1
1,31782,30748,32420,40363,0,-4776,231,924,5807,1825,-1797,225,493,-133,1,0,26,56,0,0,53298,1
2,31787,30754,32383,40364,31118,-4463,411,2420,8503,946,-181,214,498,-122,1,0,26,56,40,0,53298,1
2,31809,30425,32373,40365,31136,-4474,462,41,3776,-2178,1525,223,493,-125,1,0,26,56,80,0,53298,1
2,31815,30569,32408,40366,31153,-4868,-1182,-2787,-9368,-475,483,215,487,-141,1,0,26,56,120,0,53298,1
2,31775,30732,32433,40367,31171,-4409,-1723,-1040,-6950,2581,-2076,223,491,-133,1,0,26,56,160,0,53298,1
2,31769,30766,32408,40368,31189,-4938,26,1635,5251,1322,-1102,224,502,-138,1,0,26,56,200,0,53298,1
2,31805,30784,32352,40369,31208,-4459,886,1846,7919,-1961,1892,206,492,-130,1,0,26,56,240,0,53298,1
2,31819,30655,32370,40370,31226,-5218,-1089,-2673,-5138,-2620,1720,214,490,-130,1,0,26,56,280,0,53298,1
2,31786,30609,32371,40371,31244,-4426,-2948,-2850,-9836,1646,-440,220,492,-132,1,0,26,56,320,0,53298,1
2,31733,30533,32346,40372,31263,-4549,-350,1251,4797,2099,-1317,202,502,-126,1,0,26,56,360,0,53298,1
2,31757,30530,32321,40373,31282,-4137,412,2341,7438,-271,397,215,505,-129,1,0,26,56,400,0,53298,1
2,31794,30518,32324,40374,31301,-4721,-402,-800,290,-2682,1646,216,496,-136,1,0,26,56,440,0,53298,1
2,31769,30518,32351,40375,31319,-4638,-1861,-3508,-9644,264,3,221,491,-133,1,0,26,56,480,0,53298,1
2,31740,30540,32373,40376,31338,-4598,-833,-308,-1367,2903,-2089,215,493,-125,1,0,26,56,520,0,53298,1
2,31736,30492,32344,40377,31356,-4837,28,1897,6896,1496,-992,213,497,-139,1,0,26,56,560,0,53298,1
2,31784,30537,32313,40378,31375,-4408,1074,2100,7817,-2380,1881,216,492,-130,1,0,26,56,600,0,53298,1
2,31825,30620,32327,40379,31392,-4871,-746,-1586,-5824,-3381,1896,209,491,-127,1,0,26,56,640,0,53298,1
2,31815,30705,32349,40380,31410,-4581,-2559,-2777,-13867,153,-278,223,491,-119,1,0,26,56,680,0,53298,1
2,31773,30581,32311,40381,31429,-5031,-21,677,1874,506,-495,218,492,-124,1,0,26,56,720,0,53298,1
2,31786,30618,32291,40382,31447,-4608,13,952,5844,-236,756,215,489,-119,1,0,26,56,760,0,53298,1
2,31809,30643,32307,40383,31465,-4761,-990,-1671,1642,-676,968,208,486,-132,1,0,26,56,800,0,53298,1
2,31779,30631,32325,40384,31484,-3850,-1682,-1651,-2939,2004,-652,216,490,-128,1,0,26,56,840,0,53298,1
2,31750,30448,32340,40385,31503,-4364,-391,1076,1997,2524,-1633,219,501,-129,1,0,26,56,880,0,53298,1
2,31774,30545,32345,40386,31522,-4764,173,1638,3430,-33,-351,213,501,-131,1,0,26,56,920,0,53298,1
2,31805,30530,32327,40387,31541,-5153,92,-575,258,-2250,1281,210,498,-118,1,0,26,56,960,0,53298,1
1,31645,30706,32238,40388,0,-4863,-1117,-2276,-6415,-928,122,225,493,-135,1,0,26,57,0,0,53298,1
2,31527,30537,32123,40389,30660,-5104,-541,239,-1044,430,-474,216,490,-132,1,0,26,57,40,0,53298,1
2,31520,30474,32066,40390,30678,-4888,44,1316,3300,-514,418,215,497,-133,1,0,26,57,80,0,53298,1
2,31504,30462,32016,40391,30697,-4315,-327,-38,694,-1542,1194,215,487,-129,1,0,26,57,120,0,53298,1
2,31480,30455,31992,40392,30716,-4030,-1415,-1876,-5545,-120,262,222,488,-130,1,0,26,57,160,0,53298,1
2,31497,30465,32045,40393,30736,-3933,-1922,-1049,-4115,2529,-1402,221,489,-131,1,0,26,57,200,0,53298,1
2,31457,30435,31996,40394,30755,-4918,102,1078,6303,1336,-626,217,493,-135,1,0,26,57,240,0,53298,1
2,31475,30490,31984,40395,30774,-5180,584,402,4904,-439,703,221,487,-129,1,0,26,57,280,0,53298,1
2,31451,30469,31962,40396,30793,-5102,-988,-1889,-2298,-724,555,221,479,-141,1,0,26,57,320,0,53298,1
2,31415,30373,31940,40397,30812,-4228,-1358,-491,-1828,839,-264,222,496,-138,1,0,26,57,360,0,53298,1
2,31645,30458,32152,40398,30831,-4549,-72,1471,3579,-162,-1,207,489,-137,1,0,26,57,400,0,53298,1
2,31631,30457,32081,40399,30851,-4314,299,1652,3110,-2120,1263,213,487,-117,1,0,26,57,440,0,53298,1
2,31651,30420,32069,40400,30870,-4535,-558,-1473,-4726,-2558,1168,217,485,-129,1,0,26,57,480,0,53298,1
2,31619,30389,32059,40401,30890,-4415,-2798,-3378,-11523,1522,-987,223,481,-127,1,0,26,57,520,0,53298,1
2,31555,30359,32019,40402,30909,-5276,33,762,6259,2037,-994,220,492,-134,1,0,26,57,560,0,53298,1
2,31552,30365,31975,40403,30930,-4893,633,1725,8997,613,234,214,484,-126,1,0,26,57,600,0,53298,1
2,31708,30504,32170,40404,30949,-5239,-281,-1078,678,-948,1357,209,493,-139,1,0,26,57,640,0,53298,1
2,31986,30929,32483,40405,30970,-3178,-2075,-1659,-6649,802,623,218,490,-140,1,0,26,57,680,0,53298,1
2,31951,30973,32509,40406,30990,-3315,-1687,-364,-2072,2891,-2077,223,499,-145,1,0,26,57,720,0,53298,1
2,31947,30824,32519,40407,31012,-4459,-568,394,4527,1948,-1446,213,499,-135,1,0,26,57,760,0,53298,1
2,32438,31086,33045,40408,31035,-8950,-180,-190,7034,-381,2689,208,504,-122,1,0,26,57,800,0,53298,1
2,32378,31093,33005,40409,31060,-3329,730,358,2939,-2839,1556,199,503,-127,1,0,26,57,840,0,53298,1
2,32289,31071,32882,40410,31085,-3580,-734,-1060,-5082,-1446,50,208,498,-120,1,0,26,57,880,0,53298,1
2,32326,31017,32913,40411,31110,-4748,-1128,-435,-5104,1322,-794,209,501,-119,1,0,26,57,920,0,53298,1
2,32275,30717,32877,40412,31134,-4904,-236,230,1451,228,266,200,508,-124,1,0,26,57,960,0,53298,1
1,32139,30957,32757,40413,0,-4276,-99,-517,3319,-413,478,209,509,-125,1,0,26,58,0,1,53298,1
2,32007,30644,32826,40414,30203,-5779,-2671,-392,13,604,159,191,513,-117,1,0,26,58,40,1,53298,1
2,32160,31027,32804,40415,30228,-3952,603,26,621,-758,1325,200,498,-126,1,0,26,58,80,1,53298,1
2,32213,31033,32853,40416,30254,-4493,-556,-711,2319,-710,1097,198,502,-124,1,0,26,58,120,1,53298,1
2,32235,31006,32888,40417,30280,-4669,-433,-215,-323,103,305,193,499,-123,1,0,26,58,160,1,53298,1
2,32214,30920,32833,40418,30306,-4413,-64,-77,-1305,59,-206,201,503,-129,1,0,26,58,200,1,53298,1
2,31965,30941,32524,40419,30330,-4500,-229,37,-1259,-67,-1013,193,501,-127,1,0,26,58,240,1,53298,1
2,31944,30958,32570,40420,30354,-4193,-1072,-451,-4009,124,-140,203,491,-129,1,0,26,58,280,1,53298,1
2,32046,30995,32707,40421,30379,-4570,-513,-578,2338,-1073,693,197,507,-125,1,0,26,58,320,1,53298,1
2,31995,30975,32701,40422,30403,-4589,-39,464,10273,-1787,987,184,504,-122,1,0,26,58,360,1,53298,1
2,31995,30977,32685,40423,30427,-4656,-1355,-1055,4039,-853,718,187,501,-109,1,0,26,58,400,1,53298,1
2,31842,30930,32640,40424,30452,-4720,106,1492,11040,-2050,2362,169,505,-115,1,0,26,58,440,1,53298,1
2,31866,30929,32545,40425,30476,-4263,664,-870,7086,-2948,1079,175,501,-105,1,0,26,58,480,1,53298,1
2,31867,30650,32516,40426,30499,-4626,-872,52,-10923,2192,-1983,186,498,-112,1,0,26,58,520,1,53298,1
2,31915,30837,32345,40427,30524,-5090,-3206,-1528,-10807,2361,-1406,191,499,-129,1,0,26,58,560,1,53298,1
2,31892,30427,32567,40428,30549,-4505,422,377,8697,-2247,1154,180,504,-114,1,0,26,58,600,1,53298,1
2,31887,30507,32517,40429,30573,-4210,-6,-232,5687,-1166,637,174,500,-108,1,0,26,58,640,1,53298,1
2,31890,30796,32527,40430,30597,-4888,-1182,-295,-4429,1442,-495,181,497,-113,1,0,26,58,680,1,53298,1
2,31842,30539,32482,40431,30621,-4483,-94,190,-52,-275,329,175,495,-109,1,0,26,58,720,1,53298,1
2,31805,30889,32370,40432,30645,-4442,32,-158,821,-592,75,189,499,-105,1,0,26,58,760,1,53298,1
2,31713,30567,32302,40433,30668,-4662,41,981,-4522,827,-765,177,503,-117,1,0,26,58,800,1,53298,1
2,31666,30505,32029,40434,30691,-4891,-247,445,-11244,1787,-1379,201,497,-119,1,0,26,58,840,1,53298,1
2,31511,30805,31960,40435,30715,-4718,-174,-145,-15698,988,-1415,209,497,-115,1,0,26,58,880,1,53298,1
2,31547,30596,31875,40436,30739,-4547,-2426,-2931,-16374,1211,-1197,220,488,-134,1,0,26,58,920,1,53298,1
2,31498,30999,31954,40437,30764,-4182,-458,-430,9849,-1239,622,202,496,-126,1,0,26,58,960,1,53298,1
1,31400,33522,31873,40438,0,-4959,-576,266,18509,-954,1771,196,490,-116,1,0,26,59,0,1,53298,1
2,31389,34302,31892,40439,29747,-4658,889,1124,12959,-1712,1637,191,489,-99,1,0,26,59,40,1,53298,1
2,31205,31699,31690,40440,29771,-4402,-765,-901,-4184,598,-252,198,494,-112,1,0,26,59,80,1,53298,1
2,31237,30641,31717,40441,29796,-4922,-53,1232,-5477,998,-996,198,504,-118,1,0,26,59,120,1,53298,1
2,31203,34361,31615,40442,29819,-4753,-879,-568,-8130,37,-931,209,497,-109,1,0,26,59,160,1,53298,1
2,31420,30550,31866,40443,29843,-4541,-3131,-2502,-7917,1085,-858,210,502,-130,1,0,26,59,200,1,53298,1
2,31550,30329,32075,40444,29867,-4547,545,1067,13405,-1887,1433,199,497,-115,1,0,26,59,240,1,53298,1
2,31401,31386,31947,40445,29890,-4700,183,599,11185,-1351,1568,190,498,-108,1,0,26,59,280,1,53298,1
2,31428,30365,31962,40446,29914,-4691,-427,-991,127,52,-79,188,500,-106,1,0,26,59,320,1,53298,1
2,31304,30779,31871,40447,29937,-4683,-1175,73,-4355,1542,-489,182,496,-118,1,0,26,59,360,1,53298,1
2,31286,30725,31831,40448,29959,-4547,435,1086,6055,-1619,699,187,499,-115,1,0,26,59,400,1,53298,1
2,31335,30353,31798,40449,29982,-4505,-907,-682,-5254,83,-699,193,497,-115,1,0,26,59,440,1,53298,1
2,31346,34326,31744,40450,30005,-4386,-2494,-1248,-9985,1802,-1381,204,500,-120,1,0,26,59,480,1,53298,1
2,31290,30996,31792,40451,30028,-4654,-377,456,-1613,250,-183,202,498,-124,1,0,26,59,520,1,53298,1
2,31296,34141,31736,40452,30051,-4626,-505,-698,1146,-874,315,202,494,-124,1,0,26,59,560,1,53298,1
2,31311,33024,31782,40453,30075,-4489,-978,-501,-1896,724,-195,210,498,-126,1,0,26,59,600,1,53298,1
2,31302,33179,31813,40454,30098,-4653,-248,79,1097,529,121,196,500,-126,1,0,26,59,640,1,53298,1
2,31323,33856,31814,40455,30122,-4522,-114,-119,1770,-587,201,204,492,-122,1,0,26,59,680,1,53298,1
2,31191,31640,31620,40456,30144,-4224,564,-624,-3532,800,-1233,208,496,-116,1,0,26,59,720,1,53298,1
2,31409,30430,31820,40457,30164,-6808,-4147,-378,-2331,1564,-747,196,502,-110,1,0,26,59,760,1,53298,1
2,31448,30509,31959,40458,30184,-4623,-214,-202,2374,-376,222,203,499,-121,1,0,26,59,800,1,53298,1
2,31504,30485,32004,40459,30205,-4333,-276,-642,-1934,580,-125,204,502,-116,1,0,26,59,840,1,53298,1
2,31495,30551,32009,40460,30226,-4848,-968,-13,930,388,320,204,496,-124,1,0,26,59,880,1,53298,1
2,31517,30447,32029,40461,30247,-4643,-1133,-148,775,21,560,205,497,-121,1,0,26,59,920,1,53298,1
2,31481,31683,31986,40462,30269,-4292,590,-391,-297,-62,482,202,492,-122,1,0,26,59,960,1,53298,1
1,31523,31460,32042,40463,0,-4733,-1158,-357,-80,110,338,202,498,-118,1,0,27,0,0,1,53298,1
2,31581,30475,32121,40464,29289,-4586,-612,-534,532,-188,387,206,494,-128,1,0,27,0,40,1,53298,1
2,31596,30363,32150,40465,29312,-4604,-366,83,3609,-623,586,201,503,-111,1,0,27,0,80,1,53298,1
2,31541,33830,32097,40466,29336,-4626,-907,-962,872,-292,393,192,508,-124,1,0,27,0,120,1,53298,1
2,31554,31008,32230,40467,29360,-4626,-348,315,6431,-947,1022,189,497,-111,1,0,27,0,160,1,53298,1
2,31509,32312,32145,40468,29384,-4495,212,341,9132,-1923,1239,181,505,-113,1,0,27,0,200,1,53298,1
2,31533,31923,32104,40469,29407,-4371,-98,116,200,-454,-450,187,503,-121,1,0,27,0,240,1,53298,1
2,31468,31604,31996,40470,29430,-4697,-450,448,-8968,2024,-1383,193,507,-119,1,0,27,0,280,1,53298,1
2,31511,31853,31932,40471,29453,-4628,-682,-164,-8699,1366,-848,200,498,-118,1,0,27,0,320,1,53298,1
2,31518,32944,31925,40472,29476,-4519,-768,-669,-4273,-40,-116,204,502,-112,1,0,27,0,360,1,53298,1
2,31504,33344,32003,40473,29499,-4277,-2455,-2139,-1375,-78,-184,202,498,-124,1,0,27,0,400,1,53298,1
2,31467,33336,31995,40474,29524,-4830,238,951,15051,-1891,1579,184,496,-120,1,0,27,0,440,1,53298,1
2,31455,32964,31986,40475,29547,-4560,470,625,9827,-1664,1354,183,495,-119,1,0,27,0,480,1,53298,1
2,31472,32022,31991,40476,29570,-4461,-825,-846,-1217,-136,51,185,503,-117,1,0,27,0,520,1,53298,1
2,31490,31995,32050,40477,29594,-4792,-487,567,-2074,306,75,185,505,-117,1,0,27,0,560,1,53298,1
2,31488,31973,32029,40478,29618,-4366,442,493,3194,-1707,655,183,495,-111,1,0,27,0,600,1,53298,1
2,31455,34269,31943,40479,29641,-4481,-662,-265,-7261,809,-1271,201,495,-119,1,0,27,0,640,1,53298,1
2,31525,31000,32005,40480,29664,-4688,-2302,-870,-10845,2223,-1779,200,494,-118,1,0,27,0,680,1,53298,1
2,31490,30925,31982,40481,29687,-4741,-378,243,-3131,743,-810,209,499,-127,1,0,27,0,720,1,53298,1
2,31453,34066,31898,40482,29710,-4584,-526,-462,-383,-223,-69,196,498,-104,1,0,27,0,760,1,53298,1
2,31560,30362,32006,40483,29733,-4876,-1929,-980,-1382,604,-118,214,490,-126,1,0,27,0,800,1,53298,1
2,31513,30309,32035,40484,29756,-4466,67,-5,3116,77,432,208,500,-124,1,0,27,0,840,1,53298,1
2,31560,30305,32089,40485,29779,-4526,-6,350,2925,170,86,200,500,-122,1,0,27,0,880,1,53298,1
2,31545,30246,32063,40486,29802,-4757,-911,-467,-915,147,76,206,500,-126,1,0,27,0,920,1,53298,1
2,31481,30857,32046,40487,29825,-4510,-649,-397,-1734,200,6,203,499,-121,1,0,27,0,960,1,53298,1
1,31485,30915,32030,40488,0,-4771,-312,290,3156,-515,365,201,499,-123,1,0,27,1,0,0,53298,1
2,31495,30720,32035,40489,28829,-4762,-926,-780,946,-412,173,203,497,-125,1,0,27,1,40,0,53298,1
2,31624,34409,32099,40490,28852,-4692,-1257,-325,4066,-527,957,185,497,-103,1,0,27,1,80,0,53298,1
2,31498,33202,32133,40491,28875,-4562,15,492,13710,-2440,2221,180,500,-116,1,0,27,1,120,0,53298,1
2,31666,35335,32241,40492,28898,-4303,228,-524,5410,-1296,684,178,500,-102,1,0,27,1,160,0,53298,1
2,31665,35342,32224,40493,28920,-4777,-972,-361,-5505,1678,-960,181,505,-113,1,0,27,1,200,0,53298,1
2,31576,35095,32134,40494,28943,-4588,-521,202,-2153,622,-300,188,496,-118,1,0,27,1,240,0,53298,1
2,31617,35143,32180,40495,28966,-4488,-402,-397,2893,-588,369,177,499,-109,1,0,27,1,280,0,53298,1
2,31627,35186,32170,40496,28988,-4741,-569,107,1619,-156,110,179,497,-107,1,0,27,1,320,0,53298,1
2,31597,35189,32144,40497,29010,-4645,-404,65,-1352,257,-54,174,500,-114,1,0,27,1,360,0,53298,1
2,31413,33263,31915,40498,29032,-4511,166,277,-4706,45,-583,176,496,-116,1,0,27,1,400,0,53298,1
2,31534,30425,31992,40499,29054,-4683,28,-225,-12012,1419,-1702,205,497,-117,1,0,27,1,440,0,53298,1
2,31444,33201,31882,40500,29076,-5168,-1771,-315,-11901,1662,-1666,206,502,-122,1,0,27,1,480,0,53298,1
2,31468,32532,31915,40501,29096,-4444,18,-717,-121,-672,456,211,489,-117,1,0,27,1,520,0,53298,1
2,31480,32778,31926,40502,29115,-4537,-1537,-1544,-2805,1273,-864,213,499,-127,1,0,27,1,560,0,53298,1
2,31513,33650,31997,40503,29134,-4490,-813,-506,2456,1523,-646,211,499,-123,1,0,27,1,600,0,53298,1
2,31748,34839,32214,40504,29153,-4529,-743,-250,2453,1338,-834,209,499,-129,1,0,27,1,640,0,53298,1
2,32068,33639,32605,40505,29171,-5289,-519,-246,749,1355,-1745,216,490,-126,1,0,27,1,680,0,53298,1
2,32100,30944,32791,40506,29190,-5118,-425,309,1023,791,-1205,223,501,-125,1,0,27,1,720,0,53298,1
2,32131,30995,32786,40507,29208,-4262,-343,456,1785,-432,8,218,496,-128,1,0,27,1,760,0,53298,1
2,32176,31037,32715,40508,29226,-4043,-683,306,69,-824,574,221,495,-131,1,0,27,1,800,0,53298,1
2,32158,30705,32714,40509,29245,-4430,-666,-343,-2756,-573,376,220,496,-132,1,0,27,1,840,0,53298,1
2,32251,30940,32749,40510,29263,-4658,-965,-730,-2778,-39,150,222,488,-128,1,0,27,1,880,0,53298,1
2,32308,31082,32755,40511,29281,-5842,-218,-998,-1479,761,-420,225,491,-141,1,0,27,1,920,0,53298,1
2,32130,31029,32762,40512,29299,-5208,-436,-145,182,924,-340,229,497,-139,1,0,27,1,960,0,53298,1
1,31951,30967,32605,40513,0,-3509,-1222,616,3689,-193,1503,229,497,-137,1,0,27,2,0,1,53298,1
2,31800,30940,32403,40514,28367,-2954,-1105,141,841,-403,1027,224,494,-140,1,0,27,2,40,1,53298,1
2,31840,30938,32440,40515,28385,-4553,-795,-1107,-4110,230,-371,217,495,-133,1,0,27,2,80,1,53298,1
2,32021,31002,32638,40516,28404,-5991,-661,-1039,-3547,1247,-1127,218,488,-134,1,0,27,2,120,1,53298,1
2,32047,31003,32644,40517,28422,-4737,-439,68,3250,517,164,221,497,-149,1,0,27,2,160,1,53298,1
2,32015,31000,32617,40518,28439,-3468,-768,154,3477,-635,917,227,491,-139,1,0,27,2,200,1,53298,1
2,32040,31004,32632,40519,28457,-4992,-443,-902,-1427,-646,69,221,501,-149,1,0,27,2,240,1,53298,1
2,32067,31012,32664,40520,28476,-5672,-569,-443,-2913,301,-637,224,496,-138,1,0,27,2,280,1,53298,1
2,32000,30999,32619,40521,28494,-4158,-680,291,1962,-484,503,213,493,-137,1,0,27,2,320,1,53298,1
2,31981,30980,32568,40522,28512,-2895,-1361,342,2069,-1065,1022,220,492,-134,1,0,27,2,360,1,53298,1
2,32023,30973,32616,40523,28530,-5377,-228,-1697,-2735,-204,-224,230,486,-136,1,0,27,2,400,1,53298,1
2,32027,30938,32645,40524,28550,-6136,-713,-456,-1338,1583,-889,224,496,-142,1,0,27,2,440,1,53298,1
2,32007,30965,32596,40525,28568,-4062,-342,572,5063,573,369,223,495,-147,1,0,27,2,480,1,53298,1
2,32008,30906,32572,40526,28586,-2708,-1277,636,3123,-623,878,215,495,-125,1,0,27,2,520,1,53298,1
2,31954,30939,32563,40527,28604,-4292,-369,-1278,-2473,-441,33,218,498,-138,1,0,27,2,560,1,53298,1
2,32055,30977,32728,40528,28621,-6640,-969,-1500,-7967,2228,-2225,217,499,-137,1,0,27,2,600,1,53298,1
2,31998,30977,32648,40529,28638,-5253,-85,421,4795,995,-13,221,495,-147,1,0,27,2,640,1,53298,1
2,31922,30844,32509,40530,28657,-3024,-675,955,7043,-1349,1624,217,491,-141,1,0,27,2,680,1,53298,1
2,32264,31078,32867,40531,28674,-2204,-1806,250,1344,-1959,1493,217,507,-135,1,0,27,2,720,1,53298,1
2,32406,31109,33010,40532,28692,-4762,-213,-2083,-6348,74,-1008,215,489,-127,1,0,27,2,760,1,53298,1
2,32438,31058,33098,40533,28710,-6072,-1162,-750,-3951,2362,-993,217,505,-147,1,0,27,2,800,1,53298,1
2,32375,31009,33036,40534,28727,-5245,209,310,5210,628,550,213,501,-141,1,0,27,2,840,1,53298,1
2,32448,31119,33080,40535,28745,-4716,-455,85,4132,-1029,1021,203,497,-125,1,0,27,2,880,1,53298,1
2,32616,31223,33315,40536,28764,-4546,-716,-671,1820,-1065,773,202,498,-120,1,0,27,2,920,1,53298,1
2,32640,31184,33327,40537,28782,-4917,-267,-309,-347,-297,-70,206,494,-120,1,0,27,2,960,1,53298,1
1,32560,31018,33227,40538,0,-4957,-697,-64,-2124,84,-721,213,491,-127,1,0,27,3,0,1,53298,1
2,32456,30679,33137,40539,27907,-5281,-72,-769,-545,83,-363,207,507,-121,1,0,27,3,40,1,53298,1
2,32350,30604,33036,40540,27925,-5696,-879,-545,-2810,290,-1305,217,491,-129,1,0,27,3,80,1,53298,1
2,32345,31071,33009,40541,27942,-3980,-646,14,1739,-162,224,211,491,-125,1,0,27,3,120,1,53298,1
2,32159,31025,32795,40542,27960,-3077,-1114,269,2482,-189,948,221,499,-137,1,0,27,3,160,1,53298,1
2,32189,30995,32795,40543,27978,-4870,-454,-708,-3008,730,-626,225,499,-139,1,0,27,3,200,1,53298,1
2,32193,31019,32837,40544,27996,-5149,-763,-527,-2779,1050,-534,223,499,-149,1,0,27,3,240,1,53298,1
2,32135,30951,32772,40545,28014,-4096,-748,-120,1083,339,403,218,486,-136,1,0,27,3,280,1,53298,1
2,32101,30920,32699,40546,28033,-3411,-1498,-111,2496,-283,826,222,490,-142,1,0,27,3,320,1,53298,1
2,32106,30934,32758,40547,28050,-6084,6,-1456,-4011,374,-1094,228,492,-136,1,0,27,3,360,1,53298,1
2,32073,30900,32687,40548,28068,-5455,-509,14,202,150,92,210,494,-146,1,0,27,3,400,1,53298,1
2,32012,30869,32608,40549,28088,-3033,-866,580,3447,-1384,1703,215,503,-139,1,0,27,3,440,1,53298,1
2,32048,30616,32607,40550,28107,-2455,-1585,53,269,-1932,1389,208,496,-136,1,0,27,3,480,1,53298,1
2,32095,30585,32667,40551,28126,-6470,576,-2800,-7427,244,-1310,223,495,-141,1,0,27,3,520,1,53298,1
2,32122,30835,32767,40552,28147,-6895,-850,-129,-569,2075,-1061,220,496,-130,1,0,27,3,560,1,53298,1
2,32027,30684,32620,40553,28165,-3869,-131,898,8174,-334,966,205,491,-137,1,0,27,3,600,1,53298,1
2,32101,30902,32663,40554,28184,-2381,-1140,908,4944,-1732,1651,211,487,-127,1,0,27,3,640,1,53298,1
2,31981,30749,32529,40555,28202,-5108,82,-1572,-5165,-602,-442,211,501,-137,1,0,27,3,680,1,53298,1
2,31900,30444,32533,40556,28220,-6459,-1071,-820,-7623,2012,-1767,218,504,-140,1,0,27,3,720,1,53298,1
2,31845,30468,32440,40557,28238,-4568,-407,446,4056,499,136,209,493,-133,1,0,27,3,760,1,53298,1
2,31799,30664,32346,40558,28257,-2773,-1048,642,5544,-1047,1353,211,491,-139,1,0,27,3,800,1,53298,1
2,31900,30471,32482,40559,28274,-3167,-1413,-672,-322,-694,600,211,491,-141,1,0,27,3,840,1,53298,1
2,31691,32496,32295,40560,28293,-6430,-458,-2241,-7926,1997,-2192,224,498,-144,1,0,27,3,880,1,53298,1
2,31783,30415,32425,40561,28312,-6416,-345,134,1243,2028,-927,229,497,-135,1,0,27,3,920,1,53298,1
2,31771,30444,32375,40562,28331,-3609,-264,918,6981,-884,1422,211,499,-133,1,0,27,3,960,1,53298,1
1,31743,30386,32310,40563,0,-2357,-1548,238,2062,-2131,1592,215,493,-137,1,0,27,4,0,1,53298,1
2,31673,32738,32275,40564,27450,-5665,217,-2269,-6451,-262,-898,221,493,-133,1,0,27,4,40,1,53298,1
2,31663,31902,32290,40565,27469,-6582,-842,-399,-3908,1856,-1294,222,502,-130,1,0,27,4,80,1,53298,1
2,31601,32337,32223,40566,27488,-4530,-22,389,4878,-6,102,223,499,-137,1,0,27,4,120,1,53298,1
2,31705,32670,32285,40567,27507,-3383,-871,472,5081,-1321,1093,214,496,-134,1,0,27,4,160,1,53298,1
2,31835,30515,32537,40568,27524,-4403,-702,-788,-1617,-606,-71,223,491,-131,1,0,27,4,200,1,53298,1
2,32053,30829,32673,40569,27542,-4974,-782,-599,-3461,776,-686,220,502,-138,1,0,27,4,240,1,53298,1
2,31969,30640,32642,40570,27559,-4629,-568,-73,184,794,-292,217,497,-137,1,0,27,4,280,1,53298,1
2,32016,30902,32625,40571,27576,-4926,-311,-567,652,239,-91,219,499,-143,1,0,27,4,320,1,53298,1
2,31969,30825,32595,40572,27593,-5090,-660,-523,-859,334,-279,221,489,-147,1,0,27,4,360,1,53298,1
2,31874,30877,32466,40573,27610,-4202,-717,-81,1389,-159,535,216,498,-134,1,0,27,4,400,1,53298,1
2,31860,30889,32437,40574,27627,-3246,-1228,236,1040,-325,884,218,496,-134,1,0,27,4,440,1,53298,1
2,31947,30896,32513,40575,27645,-3920,-1035,-745,-281,-564,285,220,498,-140,1,0,27,4,480,1,53298,1
2,31937,30923,32530,40576,27663,-6781,-464,-1691,-6573,1496,-2003,219,495,-147,1,0,27,4,520,1,53298,1
2,31869,30775,32466,40577,27680,-5403,-132,162,3249,614,50,222,502,-150,1,0,27,4,560,1,53298,1
2,31768,30447,32310,40578,27698,-3468,-636,635,6001,-1263,1652,219,499,-131,1,0,27,4,600,1,53298,1
2,32050,30950,32566,40579,27716,-2473,-1631,404,1403,-1505,1274,215,491,-143,1,0,27,4,640,1,53298,1
2,31999,30850,32551,40580,27734,-5276,109,-2124,-5466,-80,-1246,223,505,-139,1,0,27,4,680,1,53298,1
2,31966,30867,32566,40581,27752,-6961,-837,-668,-5505,2168,-1866,216,500,-142,1,0,27,4,720,1,53298,1
2,31914,30777,32470,40582,27770,-4558,-52,326,5473,383,616,226,500,-148,1,0,27,4,760,1,53298,1
2,31895,30777,32392,40583,27788,-3168,-809,594,5712,-1268,1613,219,497,-139,1,0,27,4,800,1,53298,1
2,32147,30917,32658,40584,27805,-2848,-2192,-273,970,-1284,1001,206,496,-126,1,0,27,4,840,1,53298,1
2,31925,30839,32505,40585,27822,-6290,107,-2098,-8731,1436,-2316,219,495,-141,1,0,27,4,880,1,53298,1
2,31888,30746,32473,40586,27841,-6576,-399,-125,-1326,1647,-993,222,500,-150,1,0,27,4,920,1,53298,1
2,31813,30437,32308,40587,27859,-3978,-407,375,5301,-604,1226,220,502,-134,1,0,27,4,960,1,53298,1
1,31847,30489,32290,40588,0,-2840,-1308,326,3375,-1547,1499,220,488,-138,1,0,27,5,0,0,53298,1
2,31935,30785,32431,40589,26989,-3825,-869,-1197,-1056,-795,196,222,498,-130,1,0,27,5,40,0,53298,1
2,31897,30721,32449,40590,27006,-6588,-760,-1349,-7759,2031,-2182,223,495,-143,1,0,27,5,80,0,53298,1
2,31857,30931,32411,40591,27024,-5632,-30,161,2026,958,-258,224,504,-150,1,0,27,5,120,0,53298,1
2,31810,30890,32298,40592,27040,-3716,-591,450,5237,-1194,1514,211,501,-129,1,0,27,5,160,0,53298,1
2,31827,30893,32307,40593,27057,-2765,-1688,74,1699,-1508,1242,216,494,-144,1,0,27,5,200,0,53298,1
2,31845,30870,32355,40594,27074,-4963,-190,-1691,-3943,148,-892,221,503,-143,1,0,27,5,240,0,53298,1
2,31795,30673,32364,40595,27091,-6360,-697,-457,-4258,1895,-1481,217,493,-145,1,0,27,5,280,0,53298,1
2,31735,30471,32278,40596,27108,-4760,-182,221,3070,322,307,223,503,-145,1,0,27,5,320,0,53298,1
2,31698,30644,32176,40597,27126,-3555,-842,242,3665,-1122,1252,218,496,-132,1,0,27,5,360,0,53298,1
2,31761,30802,32274,40598,27143,-3271,-1651,-471,405,-966,733,221,491,-137,1,0,27,5,400,0,53298,1
2,31791,30850,32315,40599,27160,-5817,-196,-1490,-4992,1004,-1473,225,505,-143,1,0,27,5,440,0,53298,1
2,31755,30760,32279,40600,27177,-6012,-333,-65,-764,1238,-721,217,507,-135,1,0,27,5,480,0,53298,1
2,31725,30589,32235,40601,27194,-4154,-471,205,3381,-569,862,217,499,-139,1,0,27,5,520,0,53298,1
2,31665,30961,32183,40602,27212,-3294,-1212,40,1896,-1223,1053,221,495,-141,1,0,27,5,560,0,53298,1
2,31733,30579,32254,40603,27230,-4258,-766,-1260,-1367,-417,-62,217,493,-129,1,0,27,5,600,0,53298,1
2,31735,30460,32266,40604,27248,-6184,-687,-776,-4744,1537,-1515,221,499,-143,1,0,27,5,640,0,53298,1
2,31724,30468,32248,40605,27265,-5017,-213,157,2213,425,115,218,498,-138,1,0,27,5,680,0,53298,1
2,31703,30441,32194,40606,27283,-3684,-756,225,3425,-995,1131,217,499,-141,1,0,27,5,720,0,53298,1
2,31651,30630,32135,40607,27301,-3358,-1474,-284,141,-858,687,226,486,-144,1,0,27,5,760,0,53298,1
2,31590,30569,32066,40608,27318,-5202,-466,-1273,-4096,621,-1041,217,499,-145,1,0,27,5,800,0,53298,1
2,31563,32502,32145,40609,27336,-5743,-451,-241,-845,1155,-685,219,497,-143,1,0,27,5,840,0,53298,1
2,31659,30440,32164,40610,27352,-4415,-482,88,2671,-137,547,221,499,-139,1,0,27,5,880,0,53298,1
2,31651,30494,32149,40611,27369,-3731,-981,-80,1690,-902,780,221,493,-137,1,0,27,5,920,0,53298,1
2,31639,30776,32138,40612,27386,-4488,-755,-956,-1349,-315,-117,215,497,-139,1,0,27,5,960,0,53298,1
1,31640,30619,32163,40613,0,-5343,-626,-511,-2079,728,-716,219,497,-143,1,0,27,6,0,1,53298,1
2,31658,30420,32164,40614,26530,-4847,-415,-70,1021,148,70,216,508,-136,1,0,27,6,40,1,53298,1
2,31667,30378,32167,40615,26548,-4227,-783,-175,1384,-514,517,224,494,-138,1,0,27,6,80,1,53298,1
2,31662,30382,32166,40616,26566,-4458,-810,-557,-739,-183,42,219,501,-131,1,0,27,6,120,1,53298,1
2,31660,30378,32180,40617,26585,-4692,-711,-350,-499,260,-112,218,498,-126,1,0,27,6,160,1,53298,1
2,31660,30430,32170,40618,26603,-4760,-620,-372,184,180,-25,216,494,-144,1,0,27,6,200,1,53298,1
2,31650,30433,32157,40619,26621,-5024,-550,-467,-547,99,-130,226,494,-148,1,0,27,6,240,1,53298,1
2,31615,30513,32125,40620,26639,-4478,-695,-195,302,-124,176,217,501,-133,1,0,27,6,280,1,53298,1
2,31581,31318,32070,40621,26657,-4006,-876,-124,226,-236,362,220,494,-138,1,0,27,6,320,1,53298,1
2,31580,31571,32038,40622,26674,-3817,-1131,-318,-14,-217,265,217,501,-141,1,0,27,6,360,1,53298,1
2,31625,30799,32127,40623,26692,-5122,-443,-1075,-1228,306,-534,216,494,-130,1,0,27,6,400,1,53298,1
2,31687,30510,32210,40624,26710,-5599,-440,-276,-538,778,-356,224,498,-140,1,0,27,6,440,1,53298,1
2,31882,30921,32260,40625,26728,-4451,-468,109,1664,-260,788,215,495,-143,1,0,27,6,480,1,53298,1
2,31890,30701,32343,40626,26747,-3975,-843,-119,424,-872,715,217,501,-139,1,0,27,6,520,1,53298,1
2,31902,30865,32368,40627,26765,-4304,-909,-703,-1492,-479,153,212,486,-144,1,0,27,6,560,1,53298,1
2,31893,30837,32379,40628,26784,-5346,-617,-813,-1786,558,-655,217,499,-133,1,0,27,6,600,1,53298,1
2,31881,30920,32349,40629,26803,-5001,-386,-21,1549,361,35,219,501,-133,1,0,27,6,640,1,53298,1
2,31886,30556,32345,40630,26821,-4054,-673,99,1830,-411,715,209,489,-137,1,0,27,6,680,1,53298,1
2,31931,30945,32375,40631,26841,-4062,-1006,-454,-715,-371,277,223,501,-143,1,0,27,6,720,1,53298,1
2,31940,30951,32415,40632,26860,-5969,-225,-1052,-3211,458,-909,216,490,-132,1,0,27,6,760,1,53298,1
2,31922,30944,32383,40633,26879,-5113,-370,-42,932,286,-160,216,500,-146,1,0,27,6,800,1,53298,1
2,31877,30936,32332,40634,26897,-3681,-862,241,2946,-746,913,223,491,-141,1,0,27,6,840,1,53298,1
2,31881,30939,32334,40635,26916,-3283,-1291,-174,-29,-762,603,221,497,-141,1,0,27,6,880,1,53298,1
2,31885,30940,32353,40636,26934,-4187,-919,-1083,-1926,24,-262,226,494,-138,1,0,27,6,920,1,53298,1
2,31888,30935,32382,40637,26953,-6026,-509,-1053,-2762,1592,-1448,220,498,-146,1,0,27,6,960,1,53298,1
1,31845,30921,32327,40638,0,-5304,-88,82,3098,866,-121,208,500,-130,1,0,27,7,0,0,53298,1
2,31822,30918,32301,40639,26073,-4009,-571,283,3618,-748,904,215,497,-143,1,0,27,7,40,0,53298,1
2,31825,30860,32292,40640,26091,-3617,-1097,-176,-451,-929,487,213,499,-141,1,0,27,7,80,0,53298,1
2,31843,30925,32329,40641,26109,-4903,-628,-1088,-3042,-40,-533,223,499,-143,1,0,27,7,120,0,53298,1
2,31834,30925,32335,40642,26127,-5562,-596,-528,-1423,789,-707,228,500,-144,1,0,27,7,160,0,53298,1
2,31823,30923,32313,40643,26144,-4613,-446,-19,2364,70,271,224,502,-148,1,0,27,7,200,0,53298,1
2,31822,30921,32308,40644,26161,-4169,-707,-115,1762,-475,509,228,494,-130,1,0,27,7,240,0,53298,1
2,31827,30885,32314,40645,26179,-4654,-694,-513,-1445,-15,-154,219,503,-143,1,0,27,7,280,0,53298,1
2,31809,30867,32279,40646,26197,-4796,-671,-373,-885,224,-186,216,500,-142,1,0,27,7,320,0,53298,1
2,31796,30878,32275,40647,26215,-4385,-780,-276,563,25,91,225,497,-141,1,0,27,7,360,0,53298,1
2,31796,30840,32275,40648,26232,-4523,-734,-531,248,-4,15,221,495,-137,1,0,27,7,400,0,53298,1
2,31646,33459,32078,40649,26249,-4913,-570,-386,-376,257,-230,218,494,-134,1,0,27,7,440,0,53298,1
2,31761,30470,32235,40650,26266,-4618,-607,-181,328,-6,53,221,489,-141,1,0,27,7,480,0,53298,1
2,31795,30801,32263,40651,26283,-4225,-856,-287,209,-319,228,222,496,-142,1,0,27,7,520,0,53298,1
2,31821,30651,32295,40652,26301,-4268,-910,-480,-295,-107,76,217,491,-149,1,0,27,7,560,0,53298,1
2,31904,30940,32366,40653,26318,-4462,-773,-362,276,259,-32,225,497,-133,1,0,27,7,600,0,53298,1
2,31805,30600,32237,40654,26336,-4483,-836,-360,946,246,102,224,496,-146,1,0,27,7,640,0,53298,1
2,31755,34551,32208,40655,26353,-5919,-246,-779,-1471,448,-607,208,500,-132,1,0,27,7,680,0,53298,1
2,31686,33603,32150,40656,26370,-5059,-401,-57,355,-199,133,209,487,-131,1,0,27,7,720,0,53298,1
2,31639,32134,32111,40657,26387,-3939,-757,38,1381,-899,779,214,490,-136,1,0,27,7,760,0,53298,1
2,31651,31979,32097,40658,26405,-3584,-1200,-264,-394,-567,479,216,500,-142,1,0,27,7,800,0,53298,1
2,31693,30744,32175,40659,26422,-5348,-242,-1385,-2266,445,-592,222,486,-134,1,0,27,7,840,0,53298,1
2,31689,30539,32196,40660,26439,-6006,-465,-377,-1516,1229,-912,214,500,-132,1,0,27,7,880,0,53298,1
2,31665,30440,32142,40661,26457,-4157,-433,266,3878,-187,698,225,503,-131,1,0,27,7,920,0,53298,1
2,31661,30417,32108,40662,26475,-3414,-1029,184,1820,-910,967,217,487,-143,1,0,27,7,960,0,53298,1
1,31700,30452,32145,40663,0,-3231,-1655,-378,-1532,-542,307,218,494,-134,1,0,27,8,0,0,53298,1
2,31654,31018,32149,40664,25613,-6072,-6,-1796,-4912,940,-1481,228,498,-138,1,0,27,8,40,0,53298,1
2,31654,30590,32187,40665,25632,-6103,-329,-143,440,1329,-655,219,499,-151,1,0,27,8,80,0,53298,1
2,31574,30733,31960,40666,25649,-3952,-409,404,5204,-567,1163,219,501,-137,1,0,27,8,120,0,53298,1
2,31611,30883,31945,40667,25667,-3127,-1139,272,1590,-1247,1087,218,500,-130,1,0,27,8,160,0,53298,1
2,31683,30930,32062,40668,25684,-4215,-741,-1136,-2804,-699,-63,217,495,-137,1,0,27,8,200,0,53298,1
2,31643,31719,32138,40669,25701,-6531,-713,-1184,-6103,1426,-1795,212,488,-142,1,0,27,8,240,0,53298,1
2,31355,31752,31816,40670,25719,-4959,-185,170,3395,455,244,223,499,-145,1,0,27,8,280,0,53298,1
2,31406,32255,31768,40671,25737,-3549,-788,408,5010,-1068,1254,223,495,-133,1,0,27,8,320,0,53298,1
2,31445,33840,31875,40672,25755,-4350,-696,-677,-1967,-590,40,218,488,-142,1,0,27,8,360,0,53298,1
2,31485,31006,32091,40673,25772,-5018,-797,-692,-3812,511,-587,222,496,-140,1,0,27,8,400,0,53298,1
2,31497,31045,32105,40674,25790,-4507,-629,-120,477,419,61,217,495,-137,1,0,27,8,440,0,53298,1
