sensorStatus,cap1,cap2,cap3,counter,microseconds_since_last_tick,accX,accY,accZ,gyroX,gyroY,gyroZ,magnetX,magnetY,magnetZ,day,hour,min,sec,msec,sync,battery_fuel,crc_good
2,30844,30744,32108,60839,26170,-4637,-532,-54,4,-2,27,199,477,-109,1,0,40,35,40,0,53298,1
2,30840,30740,32103,60840,26195,-4625,-531,-65,5,-1,21,193,479,-105,1,0,40,35,80,0,53298,1
2,30852,30742,32105,60841,26219,-4643,-541,-62,7,5,23,188,486,-106,1,0,40,35,120,0,53298,1
2,30857,30744,32113,60842,26243,-4643,-537,-77,5,5,24,189,483,-111,1,0,40,35,160,0,53298,1
2,30853,30746,32112,60843,26267,-4621,-532,-48,1,-7,29,191,477,-107,1,0,40,35,200,0,53298,1
2,30859,30751,32107,60844,26291,-4623,-528,-71,-1,-10,28,191,481,-113,1,0,40,35,240,0,53298,1
2,30859,30746,32106,60845,26316,-4622,-527,-56,2,-16,23,192,484,-112,1,0,40,35,280,0,53298,1
2,30855,30752,32111,60846,26340,-4617,-530,-65,4,-11,23,186,480,-100,1,0,40,35,320,0,53298,1
2,30853,30745,32117,60847,26364,-4630,-532,-53,0,2,30,178,488,-110,1,0,40,35,360,0,53298,1
2,30866,30751,32113,60848,26389,-4634,-537,-65,6,-6,26,189,479,-107,1,0,40,35,400,0,53298,1
2,30850,30756,32116,60849,26413,-4629,-525,-73,1,3,26,187,481,-115,1,0,40,35,440,0,53298,1
2,30860,30753,32108,60850,26438,-4615,-521,-55,13,-1,19,186,474,-112,1,0,40,35,480,0,53298,1
2,30853,30752,32105,60851,26463,-4623,-534,-64,7,2,17,181,479,-109,1,0,40,35,520,0,53298,1
2,30849,30754,32108,60852,26488,-4623,-536,-68,7,-5,23,194,480,-122,1,0,40,35,560,0,53298,1
2,30863,30751,32106,60853,26513,-4619,-530,-68,0,-7,48,191,483,-113,1,0,40,35,600,0,53298,1
2,30872,30757,32117,60854,26538,-4620,-525,-70,30,6,77,193,479,-109,1,0,40,35,640,0,53298,1
2,30860,30751,32116,60855,26564,-4638,-503,-60,49,-34,46,182,482,-108,1,0,40,35,680,0,53298,1
2,30852,30753,32107,60856,26588,-4622,-536,-94,-76,-107,29,187,483,-99,1,0,40,35,720,0,53298,1
2,30850,30752,32110,60857,26614,-4624,-527,-60,-49,-178,58,185,479,-113,1,0,40,35,760,0,53298,1
2,30850,30751,32107,60858,26638,-4628,-515,-34,-5,-174,69,192,480,-106,1,0,40,35,800,0,53298,1
2,30847,30752,32117,60859,26662,-4621,-534,-48,-19,-69,69,189,477,-113,1,0,40,35,840,0,53298,1
2,30851,30752,32110,60860,26687,-4630,-524,-37,35,104,62,181,481,-109,1,0,40,35,880,0,53298,1
2,30850,30756,32112,60861,26712,-4634,-521,-43,122,288,-12,194,486,-94,1,0,40,35,920,0,53298,1
2,30853,30760,32107,60862,26736,-4639,-523,-56,170,417,-112,194,476,-114,1,0,40,35,960,0,53298,1
1,30846,30755,32117,60863,0,-4629,-522,-87,154,475,-187,189,483,-121,1,0,40,36,0,1,53298,1
2,30840,30760,32113,60864,25723,-4634,-552,-100,166,437,-207,186,484,-110,1,0,40,36,40,1,53298,1
2,30849,30755,32106,60865,25747,-4606,-568,-136,82,286,-153,182,486,-110,1,0,40,36,80,1,53298,1
2,30857,30760,32115,60866,25771,-4666,-553,-122,18,41,-44,183,491,-103,1,0,40,36,120,1,53298,1
2,30844,30760,32105,60867,25795,-4623,-567,-123,-53,-195,76,188,482,-120,1,0,40,36,160,1,53298,1
2,30855,30758,32115,60868,25820,-4604,-543,-80,-51,-310,187,188,490,-116,1,0,40,36,200,1,53298,1
2,30838,30758,32110,60869,25845,-4655,-502,-59,-48,-297,249,191,479,-107,1,0,40,36,240,1,53298,1
2,30836,30756,32107,60870,25869,-4601,-535,-67,-150,-256,223,187,483,-115,1,0,40,36,280,1,53298,1
2,30850,30753,32115,60871,25893,-4636,-511,-66,-44,-192,160,194,478,-116,1,0,40,36,320,1,53298,1
2,30838,30757,32110,60872,25917,-4623,-505,-52,-37,-126,53,192,480,-106,1,0,40,36,360,1,53298,1
2,30850,30758,32114,60873,25942,-4619,-526,-61,-50,-41,-58,188,482,-108,1,0,40,36,400,1,53298,1
2,30848,30755,32113,60874,25967,-4630,-540,-77,40,46,-97,192,480,-120,1,0,40,36,440,1,53298,1
2,30844,30757,32104,60875,25991,-4623,-535,-64,71,110,-57,193,485,-117,1,0,40,36,480,1,53298,1
2,30845,30755,32115,60876,26016,-4637,-549,-72,34,132,-4,192,480,-112,1,0,40,36,520,1,53298,1
2,30873,30756,32107,60877,26040,-4632,-542,-84,32,101,44,186,482,-118,1,0,40,36,560,1,53298,1
2,30867,30756,32106,60878,26064,-4630,-537,-76,36,39,57,187,485,-97,1,0,40,36,600,1,53298,1
2,30877,30757,32106,60879,26087,-4638,-547,-82,-28,-43,37,190,480,-114,1,0,40,36,640,1,53298,1
2,30878,30757,32109,60880,26111,-4639,-539,-86,-35,-104,26,193,487,-119,1,0,40,36,680,1,53298,1
2,30879,30756,32106,60881,26134,-4624,-529,-75,-13,-103,25,192,478,-112,1,0,40,36,720,1,53298,1
2,30880,30755,32110,60882,26158,-4627,-524,-72,-10,-49,18,191,481,-119,1,0,40,36,760,1,53298,1
2,30877,30753,32106,60883,26181,-4622,-525,-54,12,20,3,191,479,-105,1,0,40,36,800,1,53298,1
2,30900,30755,32113,60884,26205,-4638,-536,-76,26,82,26,190,482,-106,1,0,40,36,840,1,53298,1
2,30911,30756,32108,60885,26230,-4631,-530,-66,37,74,23,197,483,-115,1,0,40,36,880,1,53298,1
2,30906,30758,32104,60886,26254,-4619,-532,-81,8,32,30,190,486,-108,1,0,40,36,920,1,53298,1
2,30905,30755,32110,60887,26277,-4629,-541,-82,-12,-24,36,186,482,-112,1,0,40,36,960,1,53298,1
1,30903,30747,32110,60888,0,-4630,-528,-82,6,-50,34,187,481,-103,1,0,40,37,0,1,53298,1
2,30906,30748,32115,60889,25276,-4627,-524,-71,-9,-46,17,196,484,-114,1,0,40,37,40,1,53298,1
2,30905,30748,32117,60890,25299,-4625,-542,-62,-24,-31,7,193,477,-107,1,0,40,37,80,1,53298,1
2,30906,30749,32120,60891,25324,-4621,-535,-76,10,-1,7,188,484,-116,1,0,40,37,120,1,53298,1
2,30915,30749,32115,60892,25347,-4632,-535,-78,26,18,21,184,494,-108,1,0,40,37,160,1,53298,1
2,30918,30749,32117,60893,25371,-4643,-545,-75,9,21,36,196,476,-114,1,0,40,37,200,1,53298,1
2,30907,30745,32115,60894,25396,-4635,-536,-73,5,10,36,199,479,-103,1,0,40,37,240,1,53298,1
2,30909,30748,32114,60895,25420,-4633,-533,-79,13,-15,35,188,476,-108,1,0,40,37,280,1,53298,1
2,30919,30747,32123,60896,25445,-4639,-543,-58,-2,-28,19,189,487,-119,1,0,40,37,320,1,53298,1
2,30915,30746,32119,60897,25470,-4610,-547,-79,-18,-42,10,199,485,-109,1,0,40,37,360,1,53298,1
2,30911,30744,32116,60898,25495,-4636,-528,-80,10,-43,8,192,476,-110,1,0,40,37,400,1,53298,1
2,30912,30742,32117,60899,25520,-4637,-539,-74,3,-10,6,184,472,-118,1,0,40,37,440,1,53298,1
2,30913,30746,32114,60900,25545,-4621,-544,-69,-13,36,17,188,482,-112,1,0,40,37,480,1,53298,1
2,30908,30751,32114,60901,25570,-4639,-503,-85,26,65,31,196,486,-106,1,0,40,37,520,1,53298,1
2,30925,30753,32115,60902,25595,-4671,-511,-91,-89,97,-25,190,478,-112,1,0,40,37,560,1,53298,1
2,30915,30758,32116,60903,25620,-4613,-541,-73,-163,73,-55,184,480,-116,1,0,40,37,600,1,53298,1
2,30915,30757,32114,60904,25645,-4577,-552,-83,-63,28,-25,189,481,-115,1,0,40,37,640,1,53298,1
2,30931,30775,32117,60905,25668,-4612,-539,-82,-11,0,-9,197,487,-113,1,0,40,37,680,1,53298,1
2,30927,30771,32118,60906,25693,-4628,-542,-87,-14,-22,2,186,482,-116,1,0,40,37,720,1,53298,1
2,30912,30769,32121,60907,25717,-4619,-546,-73,-10,-17,4,193,483,-115,1,0,40,37,760,1,53298,1
2,30922,30777,32121,60908,25742,-4640,-540,-97,23,-14,38,188,482,-106,1,0,40,37,800,1,53298,1
2,30920,30776,32127,60909,25768,-4761,-448,-83,-62,26,-11,185,479,-107,1,0,40,37,840,1,53298,1
2,30930,30794,32127,60910,25792,-4858,-466,-34,-671,51,-252,192,484,-106,1,0,40,37,880,1,53298,1
2,30919,30751,32113,60911,25817,-4694,-500,-93,-659,-68,-154,183,479,-109,1,0,40,37,920,1,53298,1
2,30922,30267,32068,60912,25840,-5495,-146,-158,-1379,69,-405,206,480,-116,1,0,40,37,960,1,53298,1
1,30835,30799,31994,60913,0,-4996,-306,-8,-2029,-231,-251,212,484,-124,1,0,40,38,0,1,53298,1
2,31526,31064,32815,60914,24829,-3663,-740,130,-1594,-468,756,209,479,-119,1,0,40,38,40,1,53298,1
2,31290,30534,32541,60915,24854,-3419,-982,-441,-1845,51,381,203,479,-123,1,0,40,38,80,1,53298,1
2,31390,31024,32739,60916,24878,-4853,-697,-475,-790,532,-342,207,489,-125,1,0,40,38,120,1,53298,1
2,31352,31025,32738,60917,24902,-5277,-303,-30,498,627,-445,202,482,-122,1,0,40,38,160,1,53298,1
2,31347,31023,32729,60918,24927,-4451,-383,232,1047,44,-89,199,485,-125,1,0,40,38,200,1,53298,1
2,31321,31009,32689,60919,24951,-4328,-593,13,-366,-253,8,211,469,-113,1,0,40,38,240,1,53298,1
2,31108,30835,32325,60920,24974,-4591,-715,-198,-869,-121,-66,201,477,-117,1,0,40,38,280,1,53298,1
2,31209,30773,32555,60921,24997,-4548,-704,-153,448,43,-96,204,478,-120,1,0,40,38,320,1,53298,1
2,30583,30509,31728,60922,25020,-5203,-197,-170,257,101,-430,202,478,-118,1,0,40,38,360,1,53298,1
2,30807,30627,32031,60923,25043,-4894,-369,101,177,-97,-169,210,480,-124,1,0,40,38,400,1,53298,1
2,30681,30548,31876,60924,25066,-4073,-769,104,199,-346,128,205,479,-115,1,0,40,38,440,1,53298,1
2,30688,30585,31883,60925,25089,-4018,-950,-84,-426,-160,24,207,477,-119,1,0,40,38,480,1,53298,1
2,30642,30711,31846,60926,25112,-4104,-989,-176,169,205,3,199,471,-123,1,0,40,38,520,1,53298,1
2,31026,30850,32095,60927,25135,-4342,-883,-224,1477,651,-51,194,486,-110,1,0,40,38,560,1,53298,1
2,31016,30762,32272,60928,25158,-7425,539,-533,-557,744,-1118,199,487,-115,1,0,40,38,600,1,53298,1
2,30983,30858,32277,60929,25181,-5001,-73,351,1039,-226,324,210,484,-114,1,0,40,38,640,1,53298,1
2,31002,30885,32298,60930,25205,-3064,-987,461,1058,-1101,1299,212,480,-128,1,0,40,38,680,1,53298,1
2,31015,30865,32313,60931,25228,-3021,-1483,94,-1684,-742,537,208,474,-124,1,0,40,38,720,1,53298,1
2,31064,30862,32327,60932,25251,-3850,-1257,-671,-1134,355,-187,200,476,-120,1,0,40,38,760,1,53298,1
2,31050,30838,32345,60933,25274,-7378,153,-1040,-887,1475,-1363,197,485,-113,1,0,40,38,800,1,53298,1
2,31032,30808,32320,60934,25298,-5600,173,367,3313,853,-111,202,488,-120,1,0,40,38,840,1,53298,1
2,30967,30833,32266,60935,25320,-3576,-534,515,3368,-588,837,196,486,-126,1,0,40,38,880,1,53298,1
2,30965,30615,32237,60936,25343,-3400,-1099,192,-844,-616,332,203,481,-127,1,0,40,38,920,1,53298,1
2,30946,30741,32221,60937,25365,-3281,-1460,-86,-1274,-132,276,200,486,-116,1,0,40,38,960,1,53298,1
1,31014,30821,32307,60938,0,-3954,-1019,-879,1028,563,517,200,482,-124,1,0,40,39,0,1,53298,1
2,31048,30778,32357,60939,24383,-10598,1564,-742,-539,1841,-1069,198,490,-118,1,0,40,39,40,1,53298,1
2,30629,30676,31824,60940,24407,-5442,360,478,2006,-454,229,203,489,-123,1,0,40,39,80,1,53298,1
2,30971,30762,32244,60941,24431,-2871,-681,445,3372,-2115,1538,189,477,-111,1,0,40,39,120,1,53298,1
2,30916,30685,32182,60942,24454,-2732,-1476,195,-1312,-964,432,198,478,-118,1,0,40,39,160,1,53298,1
2,31013,30731,32276,60943,24478,-4494,-748,-892,-3065,421,-623,195,485,-121,1,0,40,39,200,1,53298,1
2,31024,30535,32317,60944,24502,-6721,-466,-447,-2527,1309,-1283,199,493,-119,1,0,40,39,240,1,53298,1
2,30961,30470,32252,60945,24524,-4997,-165,231,2153,540,-93,197,481,-115,1,0,40,39,280,1,53298,1
2,30945,30455,32219,60946,24547,-3554,-730,332,2523,-363,609,189,481,-107,1,0,40,39,320,1,53298,1
2,30959,30223,32157,60947,24571,-3503,-1091,-59,-418,-78,96,204,488,-120,1,0,40,39,360,1,53298,1
2,30934,30464,32219,60948,24593,-4633,-714,-434,-1525,531,-382,202,482,-124,1,0,40,39,400,1,53298,1
2,30947,30458,32231,60949,24617,-5130,-614,-333,201,647,-190,200,486,-120,1,0,40,39,440,1,53298,1
2,30955,30515,32244,60950,24641,-6311,282,-365,1044,319,-250,210,478,-116,1,0,40,39,480,1,53298,1
2,30869,30243,32125,60951,24664,-5004,-285,196,423,-535,131,193,489,-117,1,0,40,39,520,1,53298,1
2,30932,30433,32200,60952,24687,-3591,-696,251,306,-1108,1009,199,487,-99,1,0,40,39,560,1,53298,1
2,31000,30479,32230,60953,24711,-3492,-1181,-25,-1211,-622,517,199,481,-119,1,0,40,39,600,1,53298,1
2,31065,30397,32304,60954,24735,-4818,-603,-771,-1230,275,-229,195,491,-111,1,0,40,39,640,1,53298,1
2,31030,30375,32263,60955,24758,-6083,-366,-178,-859,773,-803,198,484,-114,1,0,40,39,680,1,53298,1
2,30976,30364,32205,60956,24783,-4610,-309,177,1645,31,51,199,485,-115,1,0,40,39,720,1,53298,1
2,30927,30279,32150,60957,24806,-3654,-817,227,892,-405,332,204,482,-118,1,0,40,39,760,1,53298,1
2,30957,30292,32149,60958,24829,-3860,-1051,-168,-912,17,29,194,480,-112,1,0,40,39,800,1,53298,1
2,30952,30377,32172,60959,24852,-5498,-413,-517,-1447,454,-626,200,478,-118,1,0,40,39,840,1,53298,1
2,30923,30383,32096,60960,24874,-5276,-298,-31,446,343,-198,201,481,-115,1,0,40,39,880,1,53298,1
2,30907,30384,32117,60961,24897,-4229,-613,84,1135,-212,338,185,487,-109,1,0,40,39,920,1,53298,1
2,30887,30270,32123,60962,24920,-3998,-846,-56,6,-220,218,200,484,-124,1,0,40,39,960,1,53298,1
1,30876,30324,32091,60963,0,-3995,-987,-69,-92,84,168,195,483,-131,1,0,40,40,0,1,53298,1
2,30933,30559,32167,60964,23937,-4466,-600,-402,1122,388,288,200,482,-114,1,0,40,40,40,1,53298,1
2,30945,30525,32187,60965,23961,-6918,77,-352,-471,659,-697,189,475,-109,1,0,40,40,80,1,53298,1
2,30882,30530,32118,60966,23985,-5097,-100,210,623,-469,167,192,484,-120,1,0,40,40,120,1,53298,1
2,30845,30512,32049,60967,24008,-3528,-759,264,764,-1090,804,188,484,-108,1,0,40,40,160,1,53298,1
2,30835,30540,32065,60968,24031,-3396,-1247,-110,-1107,-431,319,196,474,-112,1,0,40,40,200,1,53298,1
2,30901,30555,32107,60969,24054,-4805,-650,-773,-955,501,-348,200,484,-108,1,0,40,40,240,1,53298,1
2,30883,30531,32121,60970,24078,-6089,-335,-143,-560,978,-887,201,483,-117,1,0,40,40,280,1,53298,1
2,30868,30518,32083,60971,24100,-4652,-300,189,1511,81,131,197,479,-123,1,0,40,40,320,1,53298,1
2,30854,30543,32068,60972,24123,-3737,-825,127,746,-480,458,194,482,-122,1,0,40,40,360,1,53298,1
2,30860,30580,32071,60973,24146,-3671,-1117,-166,-892,-101,125,199,479,-125,1,0,40,40,400,1,53298,1
2,30834,30615,32101,60974,24168,-3796,-1108,-239,484,363,206,188,494,-114,1,0,40,40,440,1,53298,1
2,30826,30694,32115,60975,24192,-5518,80,-931,1682,957,87,192,488,-124,1,0,40,40,480,1,53298,1
2,30785,30582,32063,60976,24215,-6500,-418,474,-1030,489,-1107,191,485,-115,1,0,40,40,520,1,53298,1
2,30805,30558,32078,60977,24238,-4431,-319,104,975,-1241,613,190,494,-116,1,0,40,40,560,1,53298,1
2,30783,30596,32045,60978,24260,-3095,-1090,200,317,-1384,864,202,478,-114,1,0,40,40,600,1,53298,1
2,30802,30627,32075,60979,24283,-3403,-1266,-187,-1270,-242,250,192,484,-120,1,0,40,40,640,1,53298,1
2,30855,30630,32123,60980,24306,-5507,-185,-719,-613,763,-501,187,479,-109,1,0,40,40,680,1,53298,1
2,30869,30630,32110,60981,24329,-5878,-152,168,-180,1004,-768,194,480,-126,1,0,40,40,720,1,53298,1
2,30831,30640,32079,60982,24353,-4345,-440,143,1316,-98,293,194,492,-110,1,0,40,40,760,1,53298,1
2,30817,30669,32057,60983,24376,-3647,-929,18,292,-420,396,181,489,-109,1,0,40,40,800,1,53298,1
2,30846,30686,32095,60984,24399,-4231,-908,-407,-1274,159,-134,188,480,-112,1,0,40,40,840,1,53298,1
2,30863,30672,32115,60985,24421,-5478,-431,-371,-770,415,-475,202,486,-118,1,0,40,40,880,1,53298,1
2,30847,30673,32085,60986,24443,-4987,-315,30,761,49,18,193,487,-125,1,0,40,40,920,1,53298,1
2,30842,30666,32069,60987,24466,-4197,-651,45,643,-364,335,197,479,-121,1,0,40,40,960,1,53298,1
1,30847,30668,32073,60988,0,-4267,-763,-160,-407,-190,131,199,481,-121,1,0,40,41,0,0,53298,1
2,30850,30680,32085,60989,23491,-4924,-539,-220,-633,54,-149,200,476,-124,1,0,40,41,40,0,53298,1
2,30852,30675,32090,60990,23514,-5028,-526,-242,100,12,-10,197,485,-111,1,0,40,41,80,0,53298,1
2,30859,30564,32094,60991,23537,-6431,202,-208,-1732,-242,-681,210,482,-120,1,0,40,41,120,0,53298,1
2,30905,30661,32155,60992,23560,-4263,-452,219,-759,-953,302,197,477,-121,1,0,40,41,160,0,53298,1
2,30858,30714,32106,60993,23583,-3043,-1189,263,87,-1031,903,201,477,-111,1,0,40,41,200,0,53298,1
2,30897,30701,32140,60994,23606,-3249,-1405,-96,-1545,-273,126,203,483,-127,1,0,40,41,240,0,53298,1
2,30925,30705,32153,60995,23629,-3953,-1249,-503,-734,771,-290,200,478,-124,1,0,40,41,280,0,53298,1
2,30931,30700,32168,60996,23652,-6787,84,-838,-530,1437,-1395,205,485,-119,1,0,40,41,320,0,53298,1
2,30897,30687,32124,60997,23676,-5528,44,313,2502,886,-248,195,483,-109,1,0,40,41,360,0,53298,1
2,30855,30684,32086,60998,23699,-3814,-535,394,2490,-484,807,199,481,-129,1,0,40,41,400,0,53298,1
2,30879,30696,32096,60999,23722,-3594,-1062,58,-955,-630,429,194,486,-126,1,0,40,41,440,0,53298,1
2,30930,30702,32131,61000,23745,-4789,-695,-645,-2268,-142,-197,202,482,-122,1,0,40,41,480,0,53298,1
2,30908,30701,32123,61001,23769,-5706,-414,-332,-793,262,-444,194,486,-120,1,0,40,41,520,0,53298,1
2,30895,30700,32098,61002,23792,-4643,-425,84,1568,-92,259,205,485,-121,1,0,40,41,560,0,53298,1
2,30910,30701,32118,61003,23815,-4243,-588,67,769,-367,294,203,481,-119,1,0,40,41,600,0,53298,1
2,30943,30732,32167,61004,23839,-4651,-568,-73,-1149,-219,-61,195,477,-117,1,0,40,41,640,0,53298,1
2,30953,30760,32166,61005,23862,-4653,-665,-171,-810,-78,7,204,484,-118,1,0,40,41,680,0,53298,1
2,31005,30797,32221,61006,23885,-5132,-312,-267,-455,35,-111,199,469,-115,1,0,40,41,720,0,53298,1
2,31019,30745,32256,61007,23908,-4712,-500,0,-149,-102,81,205,485,-107,1,0,40,41,760,0,53298,1
2,31040,30783,32281,61008,23931,-4079,-725,82,172,-188,275,209,477,-121,1,0,40,41,800,0,53298,1
2,31043,30793,32288,61009,23954,-3980,-998,-24,-313,10,90,208,474,-128,1,0,40,41,840,0,53298,1
2,31070,30796,32304,61010,23978,-4737,-645,-378,-653,246,-252,206,470,-122,1,0,40,41,880,0,53298,1
2,31069,30802,32293,61011,24002,-5111,-425,-164,256,313,-211,204,482,-114,1,0,40,41,920,0,53298,1
2,31030,30789,32266,61012,24026,-4434,-591,59,1041,51,166,206,484,-112,1,0,40,41,960,0,53298,1
1,31033,30801,32260,61013,0,-5097,-314,-203,-259,-156,-46,205,479,-121,1,0,40,42,0,1,53298,1
2,31048,30822,32291,61014,23045,-4885,-491,-75,-510,-294,113,211,473,-123,1,0,40,42,40,1,53298,1
2,31047,30849,32279,61015,23068,-4229,-746,-3,-43,-310,256,200,478,-122,1,0,40,42,80,1,53298,1
2,31027,30839,32280,61016,23090,-3864,-1018,15,196,-76,215,201,483,-113,1,0,40,42,120,1,53298,1
2,31073,30857,32314,61017,23112,-5293,-219,-519,-419,264,-345,205,479,-119,1,0,40,42,160,1,53298,1
2,31061,30860,32314,61018,23135,-5514,-174,11,57,287,-240,201,481,-125,1,0,40,42,200,1,53298,1
2,31038,30858,32284,61019,23158,-4219,-547,173,752,-209,375,207,481,-119,1,0,40,42,240,1,53298,1
2,31034,30858,32286,61020,23182,-3686,-1066,60,-210,-299,318,197,477,-119,1,0,40,42,280,1,53298,1
2,31064,30866,32315,61021,23205,-4157,-1044,-336,-566,100,-35,205,475,-117,1,0,40,42,320,1,53298,1
2,31104,30872,32342,61022,23228,-6149,-145,-456,-932,555,-827,201,481,-109,1,0,40,42,360,1,53298,1
2,31057,30862,32300,61023,23251,-4957,-198,182,1534,98,194,204,474,-122,1,0,40,42,400,1,53298,1
2,31014,30855,32280,61024,23275,-3760,-797,277,1013,-498,633,199,475,-115,1,0,40,42,440,1,53298,1
2,31017,30853,32262,61025,23298,-3483,-1242,39,-829,-331,293,204,480,-122,1,0,40,42,480,1,53298,1
2,31072,30861,32315,61026,23321,-5224,-321,-792,-1261,227,-494,209,477,-117,1,0,40,42,520,1,53298,1
2,31061,30858,32309,61027,23344,-5987,-191,-109,6,589,-550,210,480,-122,1,0,40,42,560,1,53298,1
2,31030,30853,32281,61028,23367,-4399,-382,215,1905,-81,445,202,486,-104,1,0,40,42,600,1,53298,1
2,31013,30853,32271,61029,23390,-3722,-905,197,465,-391,459,206,486,-122,1,0,40,42,640,1,53298,1
2,31057,30857,32295,61030,23412,-4258,-942,-273,-1321,-12,-43,206,476,-126,1,0,40,42,680,1,53298,1
2,31083,30858,32304,61031,23436,-5757,-292,-458,-1113,253,-554,205,479,-125,1,0,40,42,720,1,53298,1
2,31059,30856,32288,61032,23459,-4938,-340,65,994,91,127,197,489,-117,1,0,40,42,760,1,53298,1
2,31054,30853,32275,61033,23482,-3957,-778,159,915,-266,433,206,480,-118,1,0,40,42,800,1,53298,1
2,31036,30852,32265,61034,23505,-3859,-1044,-10,-420,-75,140,208,484,-130,1,0,40,42,840,1,53298,1
2,30945,30809,32163,61035,23528,-4031,-973,-154,-57,340,-46,207,477,-125,1,0,40,42,880,1,53298,1
2,30972,30693,32186,61036,23551,-3877,-1058,-236,1829,572,195,193,481,-121,1,0,40,42,920,1,53298,1
2,31003,30693,32238,61037,23575,-7367,793,-877,586,1042,-842,213,483,-121,1,0,40,42,960,1,53298,1
1,30985,30682,32212,61038,0,-6090,180,329,426,162,-402,194,476,-108,1,0,40,43,0,0,53298,1
2,30885,30673,32125,61039,22600,-3665,-464,383,1723,-1248,1109,203,489,-121,1,0,40,43,40,0,53298,1
2,30848,30635,32084,61040,22624,-3119,-1262,156,-933,-1104,738,204,488,-116,1,0,40,43,80,0,53298,1
2,30913,30654,32126,61041,22648,-3757,-1394,-434,-2055,-98,37,200,494,-108,1,0,40,43,120,0,53298,1
2,30925,30681,32155,61042,22671,-6639,-10,-807,-1757,840,-1113,202,484,-114,1,0,40,43,160,0,53298,1
2,30900,30724,32123,61043,22693,-5432,-35,248,1555,646,-229,202,478,-112,1,0,40,43,200,0,53298,1
2,30859,30729,32091,61044,22716,-3739,-596,341,2264,-329,692,202,474,-118,1,0,40,43,240,0,53298,1
2,30849,30690,32077,61045,22739,-3356,-1168,75,-375,-325,332,192,478,-116,1,0,40,43,280,0,53298,1
2,30926,30715,32137,61046,22762,-5077,-379,-781,-2101,237,-527,204,484,-126,1,0,40,43,320,0,53298,1
2,30943,30748,32139,61047,22785,-5980,-396,-202,-1347,504,-666,195,485,-117,1,0,40,43,360,0,53298,1
2,30899,30788,32090,61048,22808,-4407,-491,85,1552,-215,460,207,473,-123,1,0,40,43,400,0,53298,1
2,30864,30774,32078,61049,22831,-3597,-911,185,1090,-520,616,205,481,-125,1,0,40,43,440,0,53298,1
2,30922,30779,32106,61050,22855,-3965,-1076,-149,-666,-52,106,197,479,-125,1,0,40,43,480,0,53298,1
2,30932,30791,32155,61051,22878,-6209,-82,-506,-1850,301,-835,202,484,-122,1,0,40,43,520,0,53298,1
2,30900,30805,32096,61052,22901,-5192,-210,86,485,-50,107,200,482,-114,1,0,40,43,560,0,53298,1
2,30861,30796,32065,61053,22925,-3791,-783,186,1198,-571,675,192,484,-114,1,0,40,43,600,0,53298,1
2,30849,30797,32067,61054,22949,-3371,-1215,75,-155,-259,323,202,476,-122,1,0,40,43,640,0,53298,1
2,30923,30803,32118,61055,22973,-5082,-266,-756,-891,385,-498,209,477,-125,1,0,40,43,680,0,53298,1
2,30905,30802,32123,61056,22997,-6143,-239,-73,-786,686,-729,206,476,-128,1,0,40,43,720,0,53298,1
2,30869,30798,32079,61057,23020,-4401,-415,168,1520,-150,468,202,478,-110,1,0,40,43,760,0,53298,1
2,30849,30796,32067,61058,23044,-3552,-974,190,734,-525,628,206,484,-116,1,0,40,43,800,0,53298,1
2,30882,30798,32065,61059,23067,-3429,-1447,-133,-655,-46,232,193,477,-119,1,0,40,43,840,0,53298,1
2,30901,30799,32118,61060,23091,-5894,19,-848,-1258,578,-772,200,490,-124,1,0,40,43,880,0,53298,1
2,30883,30797,32103,61061,23116,-5866,-78,67,451,516,-390,202,480,-122,1,0,40,43,920,0,53298,1
2,30859,30795,32072,61062,23141,-4159,-509,203,1879,-386,631,201,481,-117,1,0,40,43,960,0,53298,1
1,30865,30791,32060,61063,0,-3638,-965,93,205,-506,475,203,479,-123,1,0,40,44,0,1,53298,1
2,30893,30793,32082,61064,22155,-4329,-852,-335,-1328,65,-84,199,483,-123,1,0,40,44,40,1,53298,1
2,30897,30794,32098,61065,22178,-5463,-406,-389,-623,382,-453,190,480,-116,1,0,40,44,80,1,53298,1
2,30873,30790,32076,61066,22202,-4959,-342,16,1063,176,20,201,485,-125,1,0,40,44,120,1,53298,1
2,30880,30786,32074,61067,22226,-4217,-665,28,882,-167,265,204,480,-118,1,0,40,44,160,1,53298,1
2,30900,30783,32083,61068,22250,-4482,-661,-155,-431,-42,-20,198,486,-128,1,0,40,44,200,1,53298,1
2,30895,30784,32085,61069,22273,-4872,-576,-208,-431,60,-67,204,486,-120,1,0,40,44,240,1,53298,1
2,30902,30784,32089,61070,22297,-4981,-427,-159,55,-8,-22,198,484,-120,1,0,40,44,280,1,53298,1
2,30898,30790,32084,61071,22320,-4530,-585,-42,184,-151,126,202,480,-124,1,0,40,44,320,1,53298,1
2,30889,30787,32073,61072,22343,-4262,-735,-43,-123,-99,77,198,484,-122,1,0,40,44,360,1,53298,1
2,30888,30780,32076,61073,22366,-4442,-758,-167,-236,83,-5,197,485,-117,1,0,40,44,400,1,53298,1
2,30899,30784,32091,61074,22389,-5061,-461,-209,-130,108,-144,196,478,-114,1,0,40,44,440,1,53298,1
2,30881,30786,32073,61075,22413,-4742,-487,-49,346,-29,61,203,475,-121,1,0,40,44,480,1,53298,1
2,30886,30788,32077,61076,22436,-4343,-694,-11,71,-114,117,204,474,-116,1,0,40,44,520,1,53298,1
2,30879,30786,32084,61077,22458,-4527,-697,-174,-372,-15,15,199,479,-127,1,0,40,44,560,1,53298,1
2,30886,30790,32085,61078,22482,-4744,-592,-182,59,63,-9,201,481,-117,1,0,40,44,600,1,53298,1
2,30879,30786,32075,61079,22506,-4718,-503,-85,360,76,34,203,483,-119,1,0,40,44,640,1,53298,1
2,30883,30775,32078,61080,22529,-4591,-591,-77,90,-22,61,200,480,-112,1,0,40,44,680,1,53298,1
2,30885,30777,32084,61081,22553,-4585,-638,-145,-87,-1,20,202,486,-128,1,0,40,44,720,1,53298,1
2,30880,30778,32084,61082,22576,-4747,-550,-153,31,14,-18,203,475,-125,1,0,40,44,760,1,53298,1
2,30885,30777,32082,61083,22599,-4663,-552,-114,122,-22,29,207,483,-127,1,0,40,44,800,1,53298,1
2,30893,30777,32083,61084,22623,-4579,-597,-82,-24,-10,22,189,487,-115,1,0,40,44,840,1,53298,1
2,30892,30772,32084,61085,22647,-4566,-630,-137,-107,-1,21,203,481,-129,1,0,40,44,880,1,53298,1
2,30891,30772,32084,61086,22671,-4653,-611,-134,17,27,16,201,489,-125,1,0,40,44,920,1,53298,1
2,30890,30773,32083,61087,22694,-4610,-586,-107,123,12,43,206,478,-116,1,0,40,44,960,1,53298,1
1,30880,30774,32084,61088,0,-4572,-615,-105,89,12,52,197,491,-115,1,0,40,45,0,1,53298,1
2,30877,30767,32084,61089,21709,-4475,-664,-103,181,29,61,202,478,-122,1,0,40,45,40,1,53298,1
2,30818,30712,32017,61090,21732,-4175,-835,-82,640,95,142,183,491,-107,1,0,40,45,80,1,53298,1
2,30830,30594,32034,61091,21755,-4093,-816,-131,1204,237,232,190,490,-116,1,0,40,45,120,1,53298,1
2,30783,30724,32048,61092,21777,-4561,-597,-197,1666,260,397,197,483,-127,1,0,40,45,160,1,53298,1
2,30601,30730,32116,61093,21800,-5561,-164,-135,2350,-364,932,185,475,-111,1,0,40,45,200,1,53298,1
2,30913,30635,32467,61094,21823,-6065,71,-242,1105,-923,1693,184,490,-110,1,0,40,45,240,1,53298,1
2,31158,31505,32409,61095,21849,-3438,-223,-313,75,-801,2250,183,485,-115,1,0,40,45,280,1,53298,1
2,31199,33088,32228,61096,21877,-3992,-1866,-101,-6609,1620,1273,182,488,-116,1,0,40,45,320,1,53298,1
2,30986,33238,32109,61097,21905,-5938,190,-221,-2002,532,-304,176,492,-110,1,0,40,45,360,1,53298,1
2,31087,34775,32212,61098,21934,-4612,-211,-623,1010,-167,-421,185,491,-113,1,0,40,45,400,1,53298,1
2,31126,35164,32318,61099,21961,-4322,-418,-292,1497,522,-256,172,490,-114,1,0,40,45,440,1,53298,1
2,31239,35126,32307,61100,21987,-5086,-702,-186,1963,748,737,177,493,-121,1,0,40,45,480,1,53298,1
2,31245,35092,32262,61101,22013,-4315,-857,416,3225,720,1164,173,489,-125,1,0,40,45,520,1,53298,1
2,31251,35108,32246,61102,22039,-3822,-347,271,1387,165,466,178,490,-112,1,0,40,45,560,1,53298,1
2,31250,35154,32298,61103,22065,-5582,-55,-1060,-1173,644,-155,175,483,-123,1,0,40,45,600,1,53298,1
2,31226,35068,32257,61104,22091,-4987,-518,-112,428,738,-628,177,487,-123,1,0,40,45,640,1,53298,1
2,31234,35119,32329,61105,22117,-4365,-520,-22,694,244,-616,182,496,-124,1,0,40,45,680,1,53298,1
2,31225,35109,32321,61106,22142,-4592,-403,-267,233,1,-194,182,496,-128,1,0,40,45,720,1,53298,1
2,31218,35072,32263,61107,22166,-4802,-464,-280,-1095,210,-198,176,492,-122,1,0,40,45,760,1,53298,1
2,31287,35171,32252,61108,22190,-4473,-407,-279,-578,124,-109,177,489,-127,1,0,40,45,800,1,53298,1
2,31353,34252,32330,61109,22212,-4302,-793,-168,328,316,-69,179,485,-127,1,0,40,45,840,1,53298,1
2,31552,31476,32433,61110,22236,-4400,-520,-215,974,397,-170,180,488,-124,1,0,40,45,880,1,53298,1
2,31654,30812,32749,61111,22258,-5557,-59,-435,-608,563,-963,185,497,-129,1,0,40,45,920,1,53298,1
2,31394,30450,32565,61112,22281,-4936,-369,8,-10,202,-631,193,491,-129,1,0,40,45,960,1,53298,1
1,31513,32321,32460,61113,0,-3955,-599,32,584,-307,49,184,486,-126,1,0,40,46,0,0,53298,1
2,31565,30816,32465,61114,21264,-3842,-895,-207,-407,-144,58,183,493,-127,1,0,40,46,40,0,53298,1
2,31830,31020,32809,61115,21287,-4377,-718,-494,-681,374,-104,187,487,-127,1,0,40,46,80,0,53298,1
2,31778,31004,32773,61116,21310,-5080,-420,-411,-84,587,-299,187,495,-133,1,0,40,46,120,0,53298,1
2,31761,31012,32798,61117,21333,-4826,-448,-196,1045,268,80,185,495,-127,1,0,40,46,160,0,53298,1
2,31779,31038,32825,61118,21356,-5949,49,-470,-1019,-146,-484,188,492,-124,1,0,40,46,200,0,53298,1
2,31721,30550,32788,61119,21379,-4853,-663,74,-454,-840,722,188,494,-132,1,0,40,46,240,0,53298,1
2,31545,30891,32660,61120,21404,-2882,-1062,94,72,-1025,1091,185,491,-115,1,0,40,46,280,0,53298,1
2,31539,30933,32638,61121,21429,-3090,-1356,-185,-945,-66,208,187,489,-131,1,0,40,46,320,0,53298,1
2,31711,30991,32842,61122,21455,-6109,34,-1272,-1980,972,-626,197,489,-131,1,0,40,46,360,0,53298,1
2,31905,31098,33082,61123,21480,-5900,-94,-4,1292,1062,-521,187,485,-125,1,0,40,46,400,0,53298,1
2,32046,31210,33388,61124,21504,-4189,-199,232,3409,-125,236,192,488,-128,1,0,40,46,440,0,53298,1
2,32155,31219,33389,61125,21528,-4043,-557,34,424,-526,198,185,503,-121,1,0,40,46,480,0,53298,1
2,32213,30772,33424,61126,21552,-5058,-498,-536,-3030,-313,-523,188,496,-124,1,0,40,46,520,0,53298,1
2,31979,31450,33149,61127,21575,-4819,-584,-351,-1065,-113,-173,185,485,-127,1,0,40,46,560,0,53298,1
2,32025,30752,33134,61128,21598,-4129,-749,-117,784,-80,186,198,496,-132,1,0,40,46,600,0,53298,1
2,31977,31048,33021,61129,21622,-4743,-429,-382,-368,6,-170,187,487,-115,1,0,40,46,640,0,53298,1
2,31935,30582,33059,61130,21647,-4703,-489,-216,-85,8,-1,201,487,-133,1,0,40,46,680,0,53298,1
2,31895,30520,32975,61131,21671,-4006,-710,46,496,-86,374,196,484,-128,1,0,40,46,720,0,53298,1
2,31838,30515,32900,61132,21694,-4352,-650,-380,-157,-21,120,193,493,-139,1,0,40,46,760,0,53298,1
2,31659,30952,32724,61133,21717,-5773,-220,-624,-1638,248,-606,192,486,-126,1,0,40,46,800,0,53298,1
2,31546,32732,32621,61134,21741,-4774,-288,-21,1273,-64,163,189,487,-127,1,0,40,46,840,0,53298,1
2,31659,30543,32782,61135,21764,-3812,-705,156,1354,-452,543,190,488,-132,1,0,40,46,880,0,53298,1
2,31747,30486,32837,61136,21788,-3242,-1443,35,46,-232,438,196,490,-130,1,0,40,46,920,0,53298,1
2,31735,30451,32776,61137,21811,-6042,295,-1276,-3036,429,-1070,198,490,-128,1,0,40,46,960,0,53298,1
1,31760,30949,32840,61138,0,-5837,-169,-81,404,592,-410,188,500,-126,1,0,40,47,0,1,53298,1
2,31703,30989,32791,61139,20820,-3988,-403,212,2930,-271,688,197,485,-133,1,0,40,47,40,1,53298,1
2,31644,30968,32813,61140,20843,-3267,-1118,180,706,-472,553,184,476,-130,1,0,40,47,80,1,53298,1
2,31672,30732,32791,61141,20867,-4670,-502,-882,-2183,25,-377,193,491,-137,1,0,40,47,120,1,53298,1
2,31606,30733,32788,61142,20891,-5928,-400,-542,-1698,669,-785,189,489,-133,1,0,40,47,160,1,53298,1
2,31615,30991,32767,61143,20915,-4719,-231,-3,1941,145,261,187,489,-125,1,0,40,47,200,1,53298,1
2,31593,31017,32765,61144,20938,-3834,-757,81,1580,-409,572,190,492,-136,1,0,40,47,240,1,53298,1
2,31619,31021,32791,61145,20962,-3796,-926,-199,-560,-127,146,188,486,-136,1,0,40,47,280,1,53298,1
2,31546,30942,32603,61146,20985,-3919,-1323,-481,-25,312,48,187,497,-129,1,0,40,47,320,1,53298,1
2,31203,30839,32278,61147,21009,-9095,1393,-1393,-2442,705,-1551,183,491,-109,1,0,40,47,360,1,53298,1
2,31106,30812,32099,61148,21033,-5322,525,342,3371,-752,1000,192,492,-128,1,0,40,47,400,1,53298,1
2,30745,30815,32073,61149,21057,-2433,-1007,537,4250,-1871,2472,190,486,-134,1,0,40,47,440,1,53298,1
2,30590,30805,32005,61150,21081,-2397,-1805,323,-1933,-1065,840,196,486,-126,1,0,40,47,480,1,53298,1
2,30734,30835,32210,61151,21104,-2930,-1961,-250,-4695,78,-497,196,482,-130,1,0,40,47,520,1,53298,1
2,30862,30838,32250,61152,21128,-7052,566,-2114,-3477,1353,-1745,185,491,-117,1,0,40,47,560,1,53298,1
2,30827,30820,32218,61153,21151,-6375,165,148,3848,1751,-457,191,491,-127,1,0,40,47,600,1,53298,1
2,30771,30810,32112,61154,21174,-3774,-231,376,5283,146,790,193,495,-129,1,0,40,47,640,1,53298,1
2,30769,30813,32133,61155,21196,-3810,-808,4,625,-340,248,186,488,-126,1,0,40,47,680,1,53298,1
2,30810,30817,32172,61156,21219,-5657,-65,-574,-3665,-167,-581,186,490,-120,1,0,40,47,720,1,53298,1
2,30777,30819,32135,61157,21243,-5081,-410,-282,-1518,-350,10,190,484,-134,1,0,40,47,760,1,53298,1
2,30754,30772,32114,61158,21266,-3812,-861,-99,530,-544,484,177,485,-131,1,0,40,47,800,1,53298,1
2,30779,30801,32165,61159,21289,-4141,-830,-330,-20,-184,134,177,489,-117,1,0,40,47,840,1,53298,1
2,30807,30775,32147,61160,21313,-5344,-211,-370,-593,177,-305,191,487,-123,1,0,40,47,880,1,53298,1
2,30789,30788,32129,61161,21336,-4758,-260,4,573,97,72,185,481,-131,1,0,40,47,920,1,53298,1
2,30767,30786,32111,61162,21361,-3765,-926,52,417,-131,317,192,478,-134,1,0,40,47,960,1,53298,1
1,30886,30832,32229,61163,0,-5329,-118,-867,-1433,-19,-294,194,486,-136,1,0,40,48,0,1,53298,1
2,30888,30833,32219,61164,20375,-5422,-173,-169,-208,-42,-49,190,482,-134,1,0,40,48,40,1,53298,1
2,30909,30841,32244,61165,20399,-4019,-516,102,1207,-268,512,190,474,-120,1,0,40,48,80,1,53298,1
2,30817,30826,32186,61166,20423,-3235,-1247,156,254,-278,414,189,489,-119,1,0,40,48,120,1,53298,1
2,30914,30849,32318,61167,20446,-4787,-380,-908,-1884,70,-364,197,485,-127,1,0,40,48,160,1,53298,1
2,30987,30880,32367,61168,20470,-6055,-119,-440,-806,379,-478,188,484,-132,1,0,40,48,200,1,53298,1
2,30945,30866,32339,61169,20494,-4505,-240,60,1834,-44,447,187,481,-133,1,0,40,48,240,1,53298,1
2,30894,30858,32275,61170,20517,-3530,-1007,156,777,-414,509,193,489,-129,1,0,40,48,280,1,53298,1
2,30933,30859,32305,61171,20540,-3955,-1048,-437,-1132,-89,-17,196,482,-128,1,0,40,48,320,1,53298,1
2,30971,30870,32351,61172,20564,-6350,120,-708,-1700,350,-783,185,487,-137,1,0,40,48,360,1,53298,1
2,30920,30873,32311,61173,20587,-5043,-80,49,1519,28,299,187,489,-137,1,0,40,48,400,1,53298,1
2,30893,30868,32288,61174,20609,-3614,-863,140,1161,-416,617,192,484,-130,1,0,40,48,440,1,53298,1
2,30870,30851,32270,61175,20631,-3132,-1492,37,-481,-116,249,190,476,-124,1,0,40,48,480,1,53298,1
2,30945,30871,32317,61176,20654,-5836,294,-1195,-2177,509,-941,196,490,-132,1,0,40,48,520,1,53298,1
2,30901,30860,32323,61177,20678,-5976,-10,-78,564,654,-444,191,493,-121,1,0,40,48,560,1,53298,1
2,30866,30854,32241,61178,20702,-4042,-404,172,2239,-135,537,197,489,-127,1,0,40,48,600,1,53298,1
2,30869,30848,32257,61179,20726,-3447,-1118,72,199,-353,336,198,484,-134,1,0,40,48,640,1,53298,1
2,30902,30845,32294,61180,20750,-4956,-310,-642,-1856,19,-354,192,482,-132,1,0,40,48,680,1,53298,1
2,30905,30853,32282,61181,20773,-5629,-147,-306,-557,213,-248,189,485,-119,1,0,40,48,720,1,53298,1
2,30890,30848,32283,61182,20796,-4465,-415,-40,953,-100,327,188,486,-128,1,0,40,48,760,1,53298,1
2,30868,30847,32253,61183,20819,-3767,-971,-79,377,-255,311,192,480,-124,1,0,40,48,800,1,53298,1
2,30835,30836,32222,61184,20842,-3491,-1138,-94,99,157,91,187,485,-129,1,0,40,48,840,1,53298,1
2,30891,30849,32289,61185,20865,-3379,-1171,-262,1152,671,66,183,483,-125,1,0,40,48,880,1,53298,1
2,30958,30862,32379,61186,20889,-8152,1474,-1832,-2505,1841,-1757,191,487,-131,1,0,40,48,920,1,53298,1
2,30878,30838,32262,61187,20914,-6474,137,392,738,868,-777,187,493,-131,1,0,40,48,960,1,53298,1
1,30803,30824,32174,61188,0,-3483,-163,481,5338,-1419,1689,180,502,-124,1,0,40,49,0,0,53298,1
2,30746,30802,32107,61189,19931,-2746,-1154,351,605,-1424,1113,185,483,-133,1,0,40,49,40,0,53298,1
2,30830,30805,32196,61190,19955,-3562,-1256,-493,-3338,-297,7,189,487,-129,1,0,40,49,80,0,53298,1
2,30925,30831,32274,61191,19980,-6959,-158,-1473,-5428,980,-1697,190,490,-132,1,0,40,49,120,0,53298,1
2,30847,30830,32230,61192,20004,-5705,-25,38,1855,931,-329,184,498,-130,1,0,40,49,160,0,53298,1
2,30783,30807,32157,61193,20027,-3662,-434,345,4665,-375,1071,185,485,-137,1,0,40,49,200,0,53298,1
2,30787,30815,32177,61194,20051,-3074,-1241,157,1037,-448,590,191,487,-127,1,0,40,49,240,0,53298,1
2,30830,30810,32187,61195,20074,-5488,93,-1074,-3459,201,-846,196,484,-130,1,0,40,49,280,0,53298,1
2,30825,30809,32164,61196,20098,-5893,-290,-236,-2042,507,-639,186,490,-132,1,0,40,49,320,0,53298,1
2,30780,30801,32119,61197,20122,-4288,-259,106,1162,-322,426,195,495,-137,1,0,40,49,360,0,53298,1
2,30753,30796,32114,61198,20145,-3474,-981,191,-586,-655,221,195,485,-131,1,0,40,49,400,0,53298,1
2,30784,30800,32124,61199,20168,-3930,-786,-305,-3343,-178,-392,199,491,-133,1,0,40,49,440,0,53298,1
2,30763,30788,32113,61200,20191,-4470,-743,-287,-4188,533,-929,198,486,-128,1,0,40,49,480,0,53298,1
2,30849,30813,32229,61201,20215,-7219,653,-961,-4767,717,-1689,192,488,-122,1,0,40,49,520,0,53298,1
2,30806,30805,32151,61202,20239,-5634,-80,71,-1482,-112,-372,200,484,-132,1,0,40,49,560,0,53298,1
2,30741,30795,32073,61203,20262,-3265,-756,333,868,-1134,1002,204,472,-128,1,0,40,49,600,0,53298,1
2,30742,30795,32105,61204,20285,-2808,-1481,18,-2967,-922,437,208,478,-128,1,0,40,49,640,0,53298,1
2,30892,30832,32267,61205,20309,-3580,-1425,-582,-4306,-141,-170,215,485,-123,1,0,40,49,680,0,53298,1
2,31031,30887,32422,61206,20333,-6952,-109,-1976,-3735,1090,-1347,210,484,-128,1,0,40,49,720,0,53298,1
2,30953,30864,32317,61207,20357,-5707,-18,175,4763,1337,87,201,483,-133,1,0,40,49,760,0,53298,1
2,30848,30835,32217,61208,20380,-3727,-289,666,4929,-182,713,205,479,-137,1,0,40,49,800,0,53298,1
2,30871,30827,32210,61209,20404,-3239,-1312,314,-365,-787,547,200,486,-132,1,0,40,49,840,0,53298,1
2,30959,30852,32307,61210,20427,-5640,13,-1236,-4988,-531,-749,212,484,-128,1,0,40,49,880,0,53298,1
2,30944,30848,32281,61211,20450,-5751,-320,-300,-788,36,-157,204,484,-126,1,0,40,49,920,0,53298,1
2,30863,30829,32218,61212,20473,-4094,-443,299,2281,-428,528,201,481,-139,1,0,40,49,960,0,53298,1
1,30837,30820,32165,61213,0,-3269,-1222,292,498,-665,532,209,481,-133,1,0,40,50,0,1,53298,1
2,30890,30835,32235,61214,19486,-4389,-622,-537,-2581,-334,-228,214,472,-140,1,0,40,50,40,1,53298,1
2,30902,30833,32235,61215,19508,-5696,-482,-670,-1890,495,-428,207,485,-131,1,0,40,50,80,1,53298,1
2,30868,30830,32199,61216,19532,-4864,-341,-17,1312,424,114,209,479,-129,1,0,40,50,120,1,53298,1
2,30860,30824,32188,61217,19554,-4003,-770,22,1217,-134,351,202,474,-138,1,0,40,50,160,1,53298,1
2,30956,30858,32299,61218,19578,-3980,-967,-258,-328,-101,287,212,478,-130,1,0,40,50,200,1,53298,1
2,30968,30857,32302,61219,19601,-3735,-958,-84,738,209,574,206,486,-130,1,0,40,50,240,1,53298,1
2,31070,30880,32405,61220,19626,-6255,548,-1541,-886,998,-559,205,481,-131,1,0,40,50,280,1,53298,1
2,30986,30835,32265,61221,19651,-6325,-179,156,1492,747,-302,204,486,-136,1,0,40,50,320,1,53298,1
2,30934,30833,32211,61222,19676,-4007,-207,604,3924,-761,804,205,481,-131,1,0,40,50,360,1,53298,1
2,30850,30777,32091,61223,19701,-3102,-951,360,32,-1204,713,204,478,-128,1,0,40,50,400,1,53298,1
2,30899,30772,32135,61224,19725,-3896,-1156,-581,-3654,-578,2,206,478,-126,1,0,40,50,440,1,53298,1
2,30980,30777,32181,61225,19749,-7043,-319,-1432,-4392,601,-1193,210,486,-128,1,0,40,50,480,1,53298,1
2,30913,30742,32101,61226,19773,-5165,-75,314,3624,529,128,206,490,-122,1,0,40,50,520,1,53298,1
2,30860,30728,32034,61227,19797,-3395,-689,480,3394,-343,626,198,484,-126,1,0,40,50,560,1,53298,1
2,30832,30763,32105,61228,19820,-2902,-1435,195,-421,-345,340,206,486,-126,1,0,40,50,600,1,53298,1
2,30886,30528,32106,61229,19843,-5223,-13,-1436,-3515,300,-923,207,481,-131,1,0,40,50,640,1,53298,1
2,30900,30746,32125,61230,19867,-6474,-323,-363,-846,978,-574,207,487,-135,1,0,40,50,680,1,53298,1
2,30859,30749,32064,61231,19891,-4363,-260,336,3343,-69,604,215,479,-141,1,0,40,50,720,1,53298,1
2,30743,30587,32034,61232,19915,-3204,-1058,199,1322,-742,729,214,472,-124,1,0,40,50,760,1,53298,1
2,30828,30536,32072,61233,19938,-3621,-1282,-410,-1184,-352,181,206,476,-126,1,0,40,50,800,1,53298,1
2,30857,30646,32117,61234,19961,-6387,-110,-1096,-2408,560,-898,211,485,-137,1,0,40,50,840,1,53298,1
2,30832,30676,32095,61235,19985,-5567,-2,114,2730,402,271,208,480,-136,1,0,40,50,880,1,53298,1
2,30801,30637,32054,61236,20008,-3885,-540,297,2699,-540,673,207,481,-129,1,0,40,50,920,1,53298,1
2,30831,30629,32071,61237,20031,-3854,-884,-153,-710,-579,239,207,477,-129,1,0,40,50,960,1,53298,1
1,30863,30638,32083,61238,0,-4457,-779,-448,-1489,14,-117,209,481,-135,1,0,40,51,0,1,53298,1
2,30863,30674,32100,61239,19042,-5075,-460,-434,-132,561,-248,200,486,-116,1,0,40,51,40,1,53298,1
2,30891,30785,32105,61240,19065,-5918,107,-270,323,315,-355,209,489,-135,1,0,40,51,80,1,53298,1
2,30956,30827,32147,61241,19089,-4511,-429,129,1076,-345,411,203,475,-131,1,0,40,51,120,1,53298,1
2,30981,30789,32212,61242,19112,-3443,-944,149,125,-549,806,203,483,-135,1,0,40,51,160,1,53298,1
2,30986,30811,32180,61243,19136,-3162,-1443,-26,-841,-206,390,205,485,-131,1,0,40,51,200,1,53298,1
2,31069,30754,32261,61244,19160,-5791,261,-1633,-2195,550,-889,211,475,-131,1,0,40,51,240,1,53298,1
2,31038,30765,32231,61245,19184,-6372,-146,-94,1555,952,-417,209,487,-137,1,0,40,51,280,1,53298,1
2,30935,30740,32155,61246,19207,-4061,-135,529,4683,-128,679,202,486,-134,1,0,40,51,320,1,53298,1
2,30951,30830,32208,61247,19231,-3130,-1054,385,1008,-747,633,202,474,-130,1,0,40,51,360,1,53298,1
2,30944,30813,32168,61248,19255,-3733,-1175,-470,-2120,-422,61,197,479,-125,1,0,40,51,400,1,53298,1
2,30975,30803,32190,61249,19278,-7051,-160,-1322,-3933,604,-1237,211,489,-133,1,0,40,51,440,1,53298,1
2,30906,30785,32111,61250,19301,-5327,-24,236,3166,404,243,205,481,-127,1,0,40,51,480,1,53298,1
2,30865,30796,32119,61251,19325,-3448,-677,409,3100,-491,758,199,477,-129,1,0,40,51,520,1,53298,1
2,30877,30823,32196,61252,19347,-2792,-1589,230,-75,-436,550,194,480,-138,1,0,40,51,560,1,53298,1
2,30886,30808,32140,61253,19370,-5568,253,-1373,-3572,329,-946,203,473,-127,1,0,40,51,600,1,53298,1
2,30890,30799,32149,61254,19393,-6460,-136,-192,-436,849,-570,205,479,-129,1,0,40,51,640,1,53298,1
2,30832,30785,32096,61255,19416,-4215,-273,291,2944,-84,575,197,479,-131,1,0,40,51,680,1,53298,1
2,30775,30796,32087,61256,19440,-3184,-1153,152,942,-586,626,202,476,-136,1,0,40,51,720,1,53298,1
2,30838,30810,32122,61257,19462,-3427,-1293,-312,-863,-96,232,210,486,-132,1,0,40,51,760,1,53298,1
2,30875,30808,32187,61258,19485,-5835,-189,-1209,-2192,924,-920,202,480,-122,1,0,40,51,800,1,53298,1
2,30889,30814,32190,61259,19508,-5782,-90,-62,2192,957,-198,192,484,-132,1,0,40,51,840,1,53298,1
2,30844,30821,32191,61260,19532,-4256,-318,223,3472,-198,579,195,481,-127,1,0,40,51,880,1,53298,1
2,30771,30799,32105,61261,19555,-3659,-947,-8,1408,-566,707,199,497,-123,1,0,40,51,920,1,53298,1
2,30843,30804,32135,61262,19579,-3664,-1068,-381,678,-118,727,185,489,-131,1,0,40,51,960,1,53298,1
1,30865,30804,32183,61263,0,-6658,621,-1246,-1083,860,-557,194,486,-128,1,0,40,52,0,1,53298,1
2,30834,30758,32141,61264,18598,-6034,-67,280,370,359,-525,190,488,-120,1,0,40,52,40,1,53298,1
2,30778,30777,32078,61265,18623,-3870,-209,331,2560,-1080,831,201,493,-129,1,0,40,52,80,1,53298,1
2,30753,30751,32061,61266,18647,-3192,-1039,144,-12,-1082,725,189,481,-133,1,0,40,52,120,1,53298,1
2,30835,30742,32085,61267,18670,-4012,-1089,-829,-2500,7,-123,196,482,-132,1,0,40,52,160,1,53298,1
2,30815,30785,32098,61268,18692,-6820,-472,-1012,-3390,1055,-1393,200,486,-120,1,0,40,52,200,1,53298,1
2,30791,30786,32043,61269,18716,-5074,-143,206,2881,511,-34,195,491,-131,1,0,40,52,240,1,53298,1
2,30722,30781,32023,61270,18739,-3412,-612,400,3034,-446,782,199,485,-127,1,0,40,52,280,1,53298,1
2,30730,30775,32002,61271,18762,-2946,-1396,60,-258,-343,435,187,493,-123,1,0,40,52,320,1,53298,1
2,30802,30787,32092,61272,18785,-5408,77,-1511,-3514,572,-916,188,484,-124,1,0,40,52,360,1,53298,1
2,30820,30788,32087,61273,18809,-6334,-412,-265,-1397,1055,-957,198,484,-138,1,0,40,52,400,1,53298,1
2,30775,30779,32013,61274,18832,-4327,-144,293,3405,-241,596,200,490,-122,1,0,40,52,440,1,53298,1
2,30692,30770,31988,61275,18855,-3285,-905,285,1592,-997,890,191,477,-135,1,0,40,52,480,1,53298,1
2,30711,30769,31978,61276,18878,-2833,-1605,-59,-474,-593,733,201,477,-123,1,0,40,52,520,1,53298,1
2,30724,30770,32026,61277,18900,-4635,-405,-1332,-2320,710,-451,193,487,-127,1,0,40,52,560,1,53298,1
2,30659,30754,32015,61278,18924,-6352,-322,-428,537,1421,-194,191,485,-133,1,0,40,52,600,1,53298,1
2,30632,30745,31966,61279,18948,-6128,215,213,1727,-263,-45,186,496,-124,1,0,40,52,640,1,53298,1
2,30592,30738,31897,61280,18971,-4174,-573,-139,1426,-1173,689,183,503,-117,1,0,40,52,680,1,53298,1
2,30574,30740,31897,61281,18994,-3473,-886,-126,167,-914,506,195,479,-127,1,0,40,52,720,1,53298,1
2,30609,30735,31906,61282,19018,-4727,-420,-692,-1517,175,-270,188,486,-128,1,0,40,52,760,1,53298,1
2,30601,30734,31897,61283,19040,-5802,-422,-237,-1581,624,-735,191,491,-129,1,0,40,52,800,1,53298,1
2,30597,30733,31881,61284,19063,-4469,-388,42,1331,76,109,188,496,-126,1,0,40,52,840,1,53298,1
2,30705,30765,32011,61285,19087,-3723,-858,-26,1028,-193,320,194,484,-128,1,0,40,52,880,1,53298,1
2,30755,30794,32059,61286,19110,-4688,-618,-585,-2033,265,-513,199,485,-131,1,0,40,52,920,1,53298,1
2,30770,30797,32076,61287,19134,-4967,-549,-338,-699,322,-319,194,484,-132,1,0,40,52,960,1,53298,1
1,30814,30800,32062,61288,0,-4331,-562,-116,871,55,118,195,487,-137,1,0,40,53,0,0,53298,1
2,30848,30812,32138,61289,18154,-3959,-1056,-196,892,-103,328,195,481,-133,1,0,40,53,40,0,53298,1
2,30852,30803,32134,61290,18177,-6286,132,-863,-2352,42,-832,197,489,-119,1,0,40,53,80,0,53298,1
2,30787,30794,32081,61291,18200,-5076,-269,79,656,-320,92,194,486,-128,1,0,40,53,120,0,53298,1
2,30751,30784,32047,61292,18223,-3496,-735,283,1994,-956,941,201,485,-129,1,0,40,53,160,0,53298,1
2,30672,30769,31982,61293,18246,-3053,-1381,0,-399,-724,538,189,483,-125,1,0,40,53,200,0,53298,1
2,30772,30778,32046,61294,18268,-4341,-774,-1085,-1781,183,-323,202,488,-130,1,0,40,53,240,0,53298,1
2,30774,30777,32062,61295,18291,-6400,-432,-732,-1621,1362,-1217,196,488,-126,1,0,40,53,280,0,53298,1
2,30828,30775,32032,61296,18314,-5107,45,240,3487,697,100,197,493,-139,1,0,40,53,320,0,53298,1
2,30722,30772,32005,61297,18337,-3802,-539,360,2551,-458,754,197,491,-121,1,0,40,53,360,0,53298,1
2,30805,30779,32023,61298,18359,-3880,-990,-287,-1248,-471,317,199,481,-135,1,0,40,53,400,0,53298,1
2,30811,30783,32059,61299,18383,-5769,-291,-1006,-3386,197,-769,198,486,-128,1,0,40,53,440,0,53298,1
2,30780,30776,32040,61300,18406,-5187,-259,-118,575,251,-80,201,483,-139,1,0,40,53,480,0,53298,1
2,30748,30775,32020,61301,18428,-3924,-623,133,2058,-333,621,192,496,-126,1,0,40,53,520,0,53298,1
2,30780,30774,32020,61302,18451,-3233,-1196,95,841,-354,584,195,481,-127,1,0,40,53,560,0,53298,1
2,30845,30787,32074,61303,18475,-5661,181,-1225,-2262,247,-736,192,488,-122,1,0,40,53,600,0,53298,1
2,30805,30780,32044,61304,18499,-6049,-154,-142,-738,619,-645,201,487,-133,1,0,40,53,640,0,53298,1
2,30771,30782,32040,61305,18522,-4098,-329,255,2801,-353,773,189,483,-131,1,0,40,53,680,0,53298,1
2,30732,30778,32020,61306,18545,-3250,-1107,189,1142,-778,848,196,482,-134,1,0,40,53,720,0,53298,1
2,30811,30784,32070,61307,18570,-3398,-1543,-283,-739,-157,396,200,490,-130,1,0,40,53,760,0,53298,1
2,30871,30785,32101,61308,18594,-7012,142,-1509,-4342,1040,-1732,201,483,-135,1,0,40,53,800,0,53298,1
2,30844,30792,32085,61309,18618,-5825,41,114,2134,775,-258,191,477,-129,1,0,40,53,840,0,53298,1
2,30770,30787,32053,61310,18642,-3611,-392,488,4212,-710,1202,199,491,-133,1,0,40,53,880,0,53298,1
2,30725,30771,31983,61311,18666,-2831,-1345,260,118,-838,802,195,481,-123,1,0,40,53,920,0,53298,1
2,30845,30794,32111,61312,18689,-4330,-645,-1270,-3000,-61,-349,204,488,-132,1,0,40,53,960,0,53298,1
1,30822,30787,32099,61313,0,-7023,-584,-859,-3867,1184,-1588,193,489,-129,1,0,40,54,0,0,53298,1
2,30762,30776,32039,61314,17710,-4924,43,256,3733,338,359,196,480,-130,1,0,40,54,40,0,53298,1
2,30697,30769,31982,61315,17734,-3335,-702,489,3525,-855,1189,190,482,-136,1,0,40,54,80,0,53298,1
2,30710,30768,31960,61316,17757,-2635,-1527,226,-308,-601,837,197,491,-131,1,0,40,54,120,0,53298,1
2,30790,30785,32108,61317,17779,-5366,144,-1724,-3876,467,-888,200,490,-118,1,0,40,54,160,0,53298,1
2,30787,30780,32073,61318,17803,-6915,-438,-359,-2255,1436,-1423,197,489,-139,1,0,40,54,200,0,53298,1
2,30721,30763,32005,61319,17826,-4459,65,346,4392,-44,617,196,484,-132,1,0,40,54,240,0,53298,1
2,30653,30752,31922,61320,17849,-3234,-830,425,2582,-1026,1061,202,484,-126,1,0,40,54,280,0,53298,1
2,30678,30516,31931,61321,17873,-2895,-1645,-110,-1012,-546,733,188,490,-118,1,0,40,54,320,0,53298,1
2,30732,30664,31997,61322,17896,-5885,194,-1602,-3920,674,-961,191,493,-137,1,0,40,54,360,0,53298,1
2,30708,30299,31962,61323,17920,-6389,-175,-119,-359,1130,-803,189,493,-131,1,0,40,54,400,0,53298,1
2,30653,30603,31914,61324,17944,-4354,-100,253,3731,-280,709,197,495,-133,1,0,40,54,440,0,53298,1
2,30671,30587,31923,61325,17966,-3484,-806,167,1654,-880,791,187,493,-125,1,0,40,54,480,0,53298,1
2,30748,30729,31992,61326,17990,-3922,-885,-475,-1687,-205,62,193,487,-125,1,0,40,54,520,0,53298,1
2,30755,30761,32005,61327,18013,-5290,-511,-678,-2162,538,-652,198,482,-134,1,0,40,54,560,0,53298,1
2,30753,30759,31986,61328,18037,-5229,-325,-202,642,484,-198,186,494,-126,1,0,40,54,600,0,53298,1
2,30764,30765,32007,61329,18060,-5357,-109,-262,896,-96,-52,195,481,-131,1,0,40,54,640,0,53298,1
2,30768,30767,31996,61330,18083,-4449,-506,-43,425,-452,299,184,488,-122,1,0,40,54,680,0,53298,1
2,30774,30767,31992,61331,18106,-3839,-791,-98,-302,-343,357,199,495,-135,1,0,40,54,720,0,53298,1
2,30773,30770,32009,61332,18129,-3829,-1148,-264,-926,70,159,195,479,-123,1,0,40,54,760,0,53298,1
2,30826,30781,32070,61333,18152,-6054,60,-1057,-1685,326,-714,191,499,-131,1,0,40,54,800,0,53298,1
2,30843,30780,32043,61334,18175,-5321,-137,31,1039,44,-87,192,488,-138,1,0,40,54,840,0,53298,1
2,30772,30771,32021,61335,18198,-3794,-512,241,1859,-665,659,197,491,-127,1,0,40,54,880,0,53298,1
2,30731,30761,31963,61336,18222,-3251,-1176,72,-462,-710,496,194,490,-114,1,0,40,54,920,0,53298,1
2,30795,30767,32013,61337,18246,-3420,-1618,-428,-534,-113,413,191,481,-135,1,0,40,54,960,0,53298,1
1,30799,30774,32060,61338,0,-6577,74,-1470,-2599,1249,-1327,193,489,-123,1,0,40,55,0,1,53298,1
2,30767,30766,32015,61339,17268,-6002,71,126,2363,952,-379,191,493,-131,1,0,40,55,40,1,53298,1
2,30740,30760,31974,61340,17292,-4024,-182,380,3721,-472,814,187,489,-121,1,0,40,55,80,1,53298,1
2,30771,30763,31993,61341,17316,-3555,-928,50,-237,-695,544,198,482,-132,1,0,40,55,120,1,53298,1
2,30716,30749,31940,61342,17340,-3694,-1168,-451,-1962,-86,143,193,491,-129,1,0,40,55,160,1,53298,1
2,30738,30761,31989,61343,17364,-4110,-943,-633,101,643,169,193,485,-129,1,0,40,55,200,1,53298,1
2,30765,30770,32115,61344,17388,-8389,1614,-1503,-120,1425,-794,190,486,-126,1,0,40,55,240,1,53298,1
2,30740,30757,31992,61345,17413,-5791,-25,109,401,-95,-747,193,485,-131,1,0,40,55,280,1,53298,1
2,30680,30748,31934,61346,17436,-3375,-283,347,3068,-1871,1372,189,475,-115,1,0,40,55,320,1,53298,1
2,30649,30746,31913,61347,17460,-2760,-1376,178,-905,-1428,938,193,487,-131,1,0,40,55,360,1,53298,1
2,30759,30758,31987,61348,17484,-3289,-1685,-569,-2837,-55,209,193,487,-129,1,0,40,55,400,1,53298,1
2,30779,30764,32050,61349,17508,-7592,242,-1689,-4050,1364,-1835,192,490,-130,1,0,40,55,440,1,53298,1
2,30731,30759,31998,61350,17532,-5842,130,271,2886,1169,-522,179,487,-127,1,0,40,55,480,1,53298,1
2,30715,30760,31965,61351,17556,-3443,-282,563,4898,-462,1037,197,489,-133,1,0,40,55,520,1,53298,1
2,30669,33823,31911,61352,17580,-2670,-1331,305,303,-704,782,186,496,-124,1,0,40,55,560,1,53298,1
2,30790,30771,32056,61353,17604,-4165,-623,-1332,-3341,180,-320,191,491,-123,1,0,40,55,600,1,53298,1
2,30796,30774,32083,61354,17629,-7471,-930,-1033,-5396,1282,-1969,201,481,-133,1,0,40,55,640,1,53298,1
2,30750,30770,32012,61355,17653,-4972,62,276,3977,65,414,185,489,-131,1,0,40,55,680,1,53298,1
2,30689,30763,31970,61356,17677,-3163,-687,532,4151,-1264,1470,198,488,-130,1,0,40,55,720,1,53298,1
2,30733,30766,31981,61357,17700,-2537,-1576,212,69,-830,1055,190,482,-130,1,0,40,55,760,1,53298,1
2,30842,30792,32165,61358,17724,-6295,808,-1928,-5020,481,-1340,191,479,-129,1,0,40,55,800,1,53298,1
2,30817,30795,32111,61359,17748,-6647,-216,33,-1916,1051,-1228,191,493,-133,1,0,40,55,840,1,53298,1
2,30777,30762,32049,61360,17771,-3959,-97,403,4178,-521,982,192,490,-128,1,0,40,55,880,1,53298,1
2,30762,30767,31982,61361,17795,-2866,-1135,313,1928,-1072,1127,189,487,-125,1,0,40,55,920,1,53298,1
2,30786,30780,32049,61362,17818,-3189,-1688,-346,-740,-186,535,192,486,-126,1,0,40,55,960,1,53298,1
1,30865,30796,32163,61363,0,-6927,239,-1645,-5140,1362,-1856,199,493,-135,1,0,40,56,0,1,53298,1
2,30810,30764,32108,61364,16824,-6102,159,145,1034,1100,-676,189,483,-133,1,0,40,56,40,1,53298,1
2,30837,30771,32098,61365,16848,-3811,-310,375,3830,-647,1070,197,485,-137,1,0,40,56,80,1,53298,1
2,30785,30778,32019,61366,16871,-2955,-1260,166,657,-922,929,195,489,-127,1,0,40,56,120,1,53298,1
2,30898,30797,32143,61367,16894,-4023,-683,-1058,-1742,-87,-23,196,486,-134,1,0,40,56,160,1,53298,1
2,30901,30797,32155,61368,16918,-6836,-570,-806,-3925,1176,-1543,201,501,-131,1,0,40,56,200,1,53298,1
2,30861,30774,32099,61369,16941,-5230,40,178,2293,177,142,195,491,-133,1,0,40,56,240,1,53298,1
2,30826,30784,32065,61370,16965,-3580,-657,275,2703,-977,1091,198,484,-124,1,0,40,56,280,1,53298,1
2,30810,30783,32054,61371,16988,-3047,-1353,-34,-62,-643,747,185,491,-119,1,0,40,56,320,1,53298,1
2,30854,30787,32102,61372,17012,-4334,-580,-958,-1603,455,-247,191,483,-127,1,0,40,56,360,1,53298,1
2,30787,30756,32004,61373,17036,-5706,-470,-420,-1068,1314,-705,191,481,-129,1,0,40,56,400,1,53298,1
2,30741,30747,31974,61374,17060,-5578,215,12,1374,383,-56,185,489,-123,1,0,40,56,440,1,53298,1
2,30721,30741,31932,61375,17084,-5114,-283,-131,-161,-609,28,195,485,-121,1,0,40,56,480,1,53298,1
2,30719,30736,31920,61376,17108,-4171,-651,-198,-728,-809,365,188,486,-116,1,0,40,56,520,1,53298,1
2,30729,30738,31916,61377,17131,-3844,-941,-301,-1303,-364,169,201,491,-125,1,0,40,56,560,1,53298,1
2,30751,30744,31941,61378,17155,-4773,-546,-780,-1229,328,-255,200,486,-130,1,0,40,56,600,1,53298,1
2,30762,30743,31946,61379,17179,-5455,-423,-340,93,515,-352,198,490,-130,1,0,40,56,640,1,53298,1
2,30753,30744,31949,61380,17203,-4487,-339,56,1777,11,174,191,487,-123,1,0,40,56,680,1,53298,1
2,30758,30744,31951,61381,17227,-3813,-748,8,374,-279,229,191,485,-125,1,0,40,56,720,1,53298,1
2,30810,30749,31993,61382,17252,-4196,-869,-519,-956,-20,24,195,489,-125,1,0,40,56,760,1,53298,1
2,30798,30739,31999,61383,17276,-5599,-468,-680,-1527,379,-663,197,477,-131,1,0,40,56,800,1,53298,1
2,30788,30730,31980,61384,17300,-4973,-265,-14,1376,79,4,194,484,-124,1,0,40,56,840,1,53298,1
2,30777,30733,31953,61385,17324,-4012,-586,82,1208,-409,414,197,487,-139,1,0,40,56,880,1,53298,1
2,30787,30740,31949,61386,17348,-3765,-1007,-215,-252,-273,375,180,492,-124,1,0,40,56,920,1,53298,1
2,30787,30741,31966,61387,17372,-4665,-596,-635,-1051,352,-133,193,485,-133,1,0,40,56,960,1,53298,1
1,30765,30742,31957,61388,0,-5067,-485,-334,516,560,-86,194,490,-130,1,0,40,57,0,1,53298,1
2,30769,30720,31964,61389,16380,-5733,125,-437,976,108,-151,201,489,-127,1,0,40,57,40,1,53298,1
2,30779,30709,31968,61390,16404,-5061,-283,14,-68,-388,-47,189,489,-127,1,0,40,57,80,1,53298,1
2,30799,30671,31985,61391,16427,-3879,-626,27,1,-818,500,192,486,-128,1,0,40,57,120,1,53298,1
2,30812,30744,32001,61392,16450,-3615,-1085,-251,-1018,-426,294,202,488,-128,1,0,40,57,160,1,53298,1
2,30845,30751,32045,61393,16473,-4180,-1043,-686,-527,371,-18,196,480,-132,1,0,40,57,200,1,53298,1
2,30844,30619,32035,61394,16498,-6350,-236,-713,-929,961,-1025,190,494,-124,1,0,40,57,240,1,53298,1
2,30873,30741,32038,61395,16522,-5069,-60,202,2278,278,39,175,493,-123,1,0,40,57,280,1,53298,1
2,30862,30761,32052,61396,16546,-3719,-574,272,1379,-705,705,189,491,-123,1,0,40,57,320,1,53298,1
2,30882,30774,32024,61397,16569,-3211,-1296,-67,-1166,-579,509,194,490,-130,1,0,40,57,360,1,53298,1
2,30896,30775,32103,61398,16592,-5031,-276,-1530,-2209,243,-518,193,493,-127,1,0,40,57,400,1,53298,1
2,30865,30758,32059,61399,16616,-6455,-386,-289,-831,1000,-1012,187,489,-131,1,0,40,57,440,1,53298,1
2,30841,30739,32011,61400,16639,-4481,19,363,3622,-162,522,186,484,-116,1,0,40,57,480,1,53298,1
2,30805,30741,31989,61401,16663,-3396,-754,339,1452,-942,881,196,482,-130,1,0,40,57,520,1,53298,1
2,30850,30757,32005,61402,16686,-3120,-1549,-228,-1405,-495,541,192,486,-130,1,0,40,57,560,1,53298,1
2,30882,30755,32071,61403,16709,-6317,220,-1689,-3827,650,-1151,196,490,-138,1,0,40,57,600,1,53298,1
2,30863,30753,32058,61404,16732,-6077,-68,41,683,913,-628,186,490,-134,1,0,40,57,640,1,53298,1
2,30812,30747,32009,61405,16754,-3969,-187,373,3761,-391,780,189,477,-121,1,0,40,57,680,1,53298,1
2,30809,30743,31975,61406,16777,-3180,-1042,192,715,-758,758,193,483,-127,1,0,40,57,720,1,53298,1
2,30868,30745,32046,61407,16800,-3865,-1062,-702,-1816,-76,122,188,490,-130,1,0,40,57,760,1,53298,1
2,30871,30744,32082,61408,16824,-6746,-412,-1171,-3756,988,-1447,200,492,-132,1,0,40,57,800,1,53298,1
2,30845,30740,32035,61409,16848,-5405,-17,105,2253,386,-52,203,489,-129,1,0,40,57,840,1,53298,1
2,30807,30737,31997,61410,16871,-3649,-512,350,3060,-799,976,198,484,-136,1,0,40,57,880,1,53298,1
2,30817,30744,31989,61411,16895,-3059,-1250,43,-205,-656,699,193,491,-131,1,0,40,57,920,1,53298,1
2,30876,30730,32080,61412,16920,-5071,-200,-1330,-2774,260,-573,200,492,-136,1,0,40,57,960,1,53298,1
1,30877,30742,32074,61413,0,-6348,-382,-302,-1654,935,-980,197,487,-129,1,0,40,58,0,0,53298,1
2,30853,30735,32009,61414,15938,-4510,-164,222,2752,-176,471,193,487,-127,1,0,40,58,40,0,53298,1
2,30816,30744,31989,61415,15961,-3419,-838,212,1605,-837,858,187,489,-135,1,0,40,58,80,0,53298,1
2,30850,30739,31991,61416,15985,-3139,-1557,-265,-535,-312,558,187,487,-127,1,0,40,58,120,0,53298,1
2,30882,30737,32068,61417,16009,-5792,75,-1364,-2633,848,-956,194,478,-132,1,0,40,58,160,0,53298,1
2,30857,30723,32033,61418,16032,-6248,-79,-57,291,973,-731,198,490,-134,1,0,40,58,200,0,53298,1
2,30817,30719,31974,61419,16056,-4353,-181,231,2972,-384,608,195,491,-129,1,0,40,58,240,0,53298,1
2,30827,30725,31971,61420,16080,-3566,-863,46,729,-835,721,191,481,-131,1,0,40,58,280,0,53298,1
2,30864,30740,32012,61421,16102,-3720,-1103,-503,-1680,-133,176,189,477,-123,1,0,40,58,320,0,53298,1
2,30869,30738,32021,61422,16125,-5278,-443,-804,-1486,680,-475,194,488,-130,1,0,40,58,360,0,53298,1
2,30830,30729,31999,61423,16148,-5425,-200,-164,1105,632,-161,187,493,-133,1,0,40,58,400,0,53298,1
2,30835,30717,31997,61424,16172,-5032,-121,-151,1597,-162,197,194,484,-134,1,0,40,58,440,0,53298,1
2,30834,30702,31977,61425,16196,-4374,-540,-102,69,-502,268,185,491,-127,1,0,40,58,480,0,53298,1
2,30829,30693,31986,61426,16219,-4121,-779,-312,-982,-388,160,175,489,-129,1,0,40,58,520,0,53298,1
2,30855,30708,32009,61427,16242,-5118,-402,-597,-1390,-51,-286,188,486,-116,1,0,40,58,560,0,53298,1
2,30850,30700,32006,61428,16265,-4957,-379,-188,168,0,-61,196,486,-142,1,0,40,58,600,0,53298,1
2,30884,30715,32021,61429,16288,-4220,-559,-18,802,-147,231,189,483,-123,1,0,40,58,640,0,53298,1
2,30873,30710,32014,61430,16312,-3881,-868,-90,-45,-1,196,190,490,-130,1,0,40,58,680,0,53298,1
2,30905,30713,32068,61431,16336,-4834,-504,-762,-922,295,-257,192,484,-124,1,0,40,58,720,0,53298,1
2,30904,30632,32093,61432,16360,-5733,-339,-385,-936,423,-642,196,482,-132,1,0,40,58,760,0,53298,1
2,30883,30680,32055,61433,16384,-4489,-362,47,1414,-213,313,196,482,-128,1,0,40,58,800,0,53298,1
2,30858,30681,32034,61434,16408,-3728,-809,51,577,-510,603,191,487,-131,1,0,40,58,840,0,53298,1
2,30828,30744,31984,61435,16431,-3458,-1184,-212,-477,-64,433,191,477,-127,1,0,40,58,880,0,53298,1
2,30870,30787,32087,61436,16455,-3783,-910,-515,311,649,136,189,481,-133,1,0,40,58,920,0,53298,1
2,30892,30791,32139,61437,16481,-4683,-540,-782,1720,1120,129,182,494,-124,1,0,40,58,960,0,53298,1
1,30842,30768,32072,61438,0,-9429,753,-425,-905,1090,-1208,178,486,-122,1,0,40,59,0,0,53298,1
2,30756,30705,31941,61439,15494,-5241,50,-91,1378,-1052,43,186,494,-128,1,0,40,59,40,0,53298,1
2,30724,30702,31904,61440,15516,-3081,-754,131,889,-1999,1101,191,489,-121,1,0,40,59,80,0,53298,1
2,30744,30705,31921,61441,15540,-3091,-1470,-286,-2129,-1014,527,197,479,-123,1,0,40,59,120,0,53298,1
2,30818,30715,31994,61442,15563,-4424,-728,-1167,-2016,258,-246,187,487,-131,1,0,40,59,160,0,53298,1
2,30816,30731,32006,61443,15585,-6548,-374,-449,-1161,1114,-1056,189,483,-131,1,0,40,59,200,0,53298,1
2,30792,30717,31931,61444,15608,-4879,13,271,2832,33,321,184,494,-134,1,0,40,59,240,0,53298,1
2,30730,30711,31927,61445,15631,-3578,-644,263,1423,-978,861,191,483,-131,1,0,40,59,280,0,53298,1
2,30814,30735,32010,61446,15653,-3268,-1451,-218,-1230,-619,614,192,486,-124,1,0,40,59,320,0,53298,1
2,30846,30743,32050,61447,15676,-6268,106,-1288,-3632,437,-1071,186,488,-128,1,0,40,59,360,0,53298,1
2,30817,30754,32022,61448,15698,-5712,-74,29,843,569,-371,189,483,-129,1,0,40,59,400,0,53298,1
2,30842,30771,32034,61449,15721,-3868,-362,286,2798,-241,561,196,482,-132,1,0,40,59,440,0,53298,1
2,30802,30758,31993,61450,15744,-3160,-1129,156,529,-240,442,186,490,-122,1,0,40,59,480,0,53298,1
2,30903,30792,32122,61451,15768,-4398,-516,-1054,-1602,390,-354,201,477,-127,1,0,40,59,520,0,53298,1
2,30909,30793,32130,61452,15791,-6977,-483,-660,-3188,1015,-1476,188,486,-128,1,0,40,59,560,0,53298,1
2,30927,30796,32154,61453,15814,-4710,-94,193,2736,-153,459,197,495,-123,1,0,40,59,600,0,53298,1
2,30898,30794,32032,61454,15837,-3283,-885,297,2256,-1145,1112,194,486,-132,1,0,40,59,640,0,53298,1
2,30874,30775,32038,61455,15860,-2837,-1514,-24,-591,-693,638,184,480,-128,1,0,40,59,680,0,53298,1
2,30932,30787,32130,61456,15883,-5262,-65,-1422,-2877,496,-849,196,492,-126,1,0,40,59,720,0,53298,1
2,30920,30782,32095,61457,15907,-6689,-246,-174,-956,1160,-1089,184,490,-128,1,0,40,59,760,0,53298,1
2,30838,30773,32040,61458,15930,-4477,-27,320,3391,-142,572,185,481,-125,1,0,40,59,800,0,53298,1
2,30795,30761,32006,61459,15954,-3329,-836,300,1512,-885,912,195,487,-129,1,0,40,59,840,0,53298,1
2,30878,30771,32037,61460,15977,-3434,-1334,-355,-1355,-315,422,198,482,-132,1,0,40,59,880,0,53298,1
2,30899,30774,32085,61461,16000,-5975,-192,-1181,-3117,690,-1068,190,488,-124,1,0,40,59,920,0,53298,1
2,30878,30774,32069,61462,16024,-5800,-79,-32,946,670,-422,185,493,-133,1,0,40,59,960,0,53298,1
1,30912,30773,32079,61463,0,-4120,-392,179,2680,-336,597,198,482,-130,1,0,41,0,0,0,53298,1
2,30906,30787,32095,61464,15052,-3629,-934,-39,419,-518,515,190,494,-128,1,0,41,0,40,0,53298,1
2,30936,30793,32123,61465,15075,-4465,-664,-600,-1787,120,-175,190,492,-124,1,0,41,0,80,0,53298,1
2,30935,30794,32115,61466,15099,-5521,-414,-498,-1296,470,-522,195,479,-133,1,0,41,0,120,0,53298,1
2,30931,30792,32134,61467,15121,-4862,-330,-96,1065,38,133,191,487,-125,1,0,41,0,160,0,53298,1
2,30960,30798,32129,61468,15144,-4308,-579,-129,866,-346,349,195,489,-125,1,0,41,0,200,0,53298,1
2,31002,30814,32183,61469,15168,-4665,-531,-273,-854,-226,-81,191,487,-131,1,0,41,0,240,0,53298,1
2,31021,30820,32176,61470,15191,-4654,-540,-240,-697,-64,-43,196,494,-126,1,0,41,0,280,0,53298,1
2,31059,30831,32200,61471,15214,-4601,-538,-280,-193,-31,19,190,492,-132,1,0,41,0,320,0,53298,1
2,31022,30818,32203,61472,15236,-4562,-578,-248,-26,12,22,198,484,-132,1,0,41,0,360,0,53298,1
2,31006,30814,32190,61473,15260,-4352,-622,-142,281,91,55,194,494,-126,1,0,41,0,400,0,53298,1
2,31044,30824,32220,61474,15283,-4885,-367,-397,-396,135,-165,204,492,-130,1,0,41,0,440,0,53298,1
2,31022,30813,32197,61475,15306,-5172,-346,-308,-538,-31,-162,187,487,-123,1,0,41,0,480,0,53298,1
2,30994,30811,32186,61476,15330,-4433,-528,-126,374,-273,179,191,485,-129,1,0,41,0,520,0,53298,1
2,30986,30810,32156,61477,15354,-3929,-796,-65,136,-280,243,190,488,-132,1,0,41,0,560,0,53298,1
2,31037,30824,32213,61478,15376,-4420,-740,-453,-547,8,12,196,484,-134,1,0,41,0,600,0,53298,1
2,31008,30818,32196,61479,15400,-5663,-247,-479,-807,212,-456,194,486,-132,1,0,41,0,640,0,53298,1
2,31005,30817,32184,61480,15423,-4772,-279,-29,1040,-54,197,193,489,-137,1,0,41,0,680,0,53298,1
2,30980,30813,32159,61481,15445,-3957,-736,16,584,-359,387,192,496,-124,1,0,41,0,720,0,53298,1
2,31020,30819,32188,61482,15468,-3849,-1080,-259,-506,-146,189,200,486,-128,1,0,41,0,760,0,53298,1
2,31026,30819,32207,61483,15491,-5694,-141,-803,-1563,294,-648,196,490,-124,1,0,41,0,800,0,53298,1
2,31003,30815,32174,61484,15513,-5266,-153,-58,867,249,-70,197,485,-125,1,0,41,0,840,0,53298,1
2,30980,30809,32147,61485,15535,-4061,-594,106,1234,-292,466,203,481,-133,1,0,41,0,880,0,53298,1
2,31007,30815,32163,61486,15559,-3582,-1075,-41,-233,-288,363,196,486,-136,1,0,41,0,920,0,53298,1
2,31043,30826,32228,61487,15582,-4832,-429,-836,-1417,152,-347,190,488,-120,1,0,41,0,960,0,53298,1
1,31019,30820,32211,61488,0,-5994,-188,-344,-486,466,-560,197,489,-133,1,0,41,1,0,0,53298,1
2,31002,30818,32170,61489,14609,-4531,-278,105,1965,-144,454,189,483,-131,1,0,41,1,40,0,53298,1
2,31015,30816,32163,61490,14632,-3677,-845,87,671,-496,600,195,489,-137,1,0,41,1,80,0,53298,1
2,31025,30813,32195,61491,14654,-3559,-1301,-271,-824,-142,241,197,483,-119,1,0,41,1,120,0,53298,1
2,31029,30811,32208,61492,14676,-5821,1,-1035,-1945,484,-831,188,486,-126,1,0,41,1,160,0,53298,1
2,30998,30815,32184,61493,14700,-5719,-49,-39,1018,437,-296,199,483,-129,1,0,41,1,200,0,53298,1
2,30986,30808,32152,61494,14722,-4074,-397,231,2206,-419,641,192,482,-136,1,0,41,1,240,0,53298,1
2,30969,30806,32132,61495,14745,-3555,-1022,40,-101,-548,573,185,485,-121,1,0,41,1,280,0,53298,1
2,30997,30807,32164,61496,14768,-4288,-764,-594,-1659,70,20,194,488,-126,1,0,41,1,320,0,53298,1
2,31020,30810,32181,61497,14790,-5981,-335,-711,-1336,602,-681,196,484,-132,1,0,41,1,360,0,53298,1
2,30986,30804,32142,61498,14813,-5049,-146,13,2065,294,142,197,491,-141,1,0,41,1,400,0,53298,1
2,30974,30802,32125,61499,14836,-3942,-627,137,1777,-175,439,194,492,-132,1,0,41,1,440,0,53298,1
2,30958,30795,32105,61500,14859,-3767,-959,-171,-407,66,83,190,486,-122,1,0,41,1,480,0,53298,1
2,31029,30829,32199,61501,14882,-3694,-1073,-238,-98,542,-11,204,494,-124,1,0,41,1,520,0,53298,1
2,31042,30832,32267,61502,14904,-5022,-240,-1207,896,1013,-134,194,490,-134,1,0,41,1,560,0,53298,1
2,31085,30853,32315,61503,14928,-7770,-161,-434,-992,900,-1383,182,492,-132,1,0,41,1,600,0,53298,1
2,30986,30819,32182,61504,14953,-4759,220,344,3280,-931,817,190,486,-138,1,0,41,1,640,0,53298,1
2,30965,30815,32146,61505,14977,-3066,-831,424,1234,-1937,1420,181,477,-125,1,0,41,1,680,0,53298,1
2,30984,30816,32154,61506,15001,-2983,-1476,-162,-3021,-1175,588,189,487,-133,1,0,41,1,720,0,53298,1
2,31035,30825,32217,61507,15024,-4309,-844,-1195,-2794,196,-293,200,490,-116,1,0,41,1,760,0,53298,1
2,31023,30820,32218,61508,15048,-6723,-351,-673,-718,1372,-1190,196,486,-132,1,0,41,1,800,0,53298,1
2,30963,30803,32134,61509,15071,-5132,98,270,3936,718,75,187,481,-139,1,0,41,1,840,0,53298,1
2,30935,30800,32111,61510,15094,-3682,-503,354,2549,-362,633,190,482,-128,1,0,41,1,880,0,53298,1
2,30969,30805,32126,61511,15117,-3562,-1041,-156,-1506,-216,208,191,487,-121,1,0,41,1,920,0,53298,1
2,30999,30809,32169,61512,15140,-5267,-427,-994,-3066,376,-639,188,480,-122,1,0,41,1,960,0,53298,1
1,30939,30784,32090,61513,0,-5650,-335,-332,-309,512,-431,189,491,-131,1,0,41,2,0,0,53298,1
2,30929,30788,32082,61514,14166,-4405,-381,23,2204,-193,446,193,491,-129,1,0,41,2,40,0,53298,1
2,30918,30781,32065,61515,14189,-4136,-592,-28,662,-455,377,195,489,-129,1,0,41,2,80,0,53298,1
2,30951,30785,32089,61516,14212,-4894,-474,-346,-1794,-288,-162,189,489,-131,1,0,41,2,120,0,53298,1
2,30891,30773,32029,61517,14236,-4803,-509,-287,-909,-197,5,191,487,-119,1,0,41,2,160,0,53298,1
2,30910,30776,32031,61518,14259,-4235,-709,-180,359,-232,229,194,482,-130,1,0,41,2,200,0,53298,1
2,30939,30782,32072,61519,14283,-4823,-404,-480,-294,-51,-112,187,473,-119,1,0,41,2,240,0,53298,1
2,30941,30785,32071,61520,14307,-5009,-340,-143,-226,92,-134,195,495,-129,1,0,41,2,280,0,53298,1
2,30928,30781,32066,61521,14330,-4349,-557,-89,191,-84,157,189,487,-127,1,0,41,2,320,0,53298,1
2,30913,30780,32052,61522,14354,-3859,-922,-96,130,-109,232,184,484,-128,1,0,41,2,360,0,53298,1
2,30963,30792,32096,61523,14377,-4923,-396,-723,-750,174,-275,192,484,-122,1,0,41,2,400,0,53298,1
2,30943,30795,32081,61524,14401,-5657,-167,-211,-400,303,-403,195,487,-129,1,0,41,2,440,0,53298,1
2,30942,30785,32071,61525,14425,-4384,-425,63,1078,-253,376,201,493,-135,1,0,41,2,480,0,53298,1
2,30921,30788,32063,61526,14449,-3683,-940,-24,77,-498,437,197,491,-131,1,0,41,2,520,0,53298,1
2,30969,30793,32092,61527,14472,-3601,-1354,-257,-604,-94,170,195,479,-129,1,0,41,2,560,0,53298,1
2,30966,30792,32115,61528,14496,-6119,155,-1059,-1633,545,-896,189,487,-125,1,0,41,2,600,0,53298,1
2,30929,30790,32105,61529,14520,-5648,14,61,1311,463,-176,192,484,-138,1,0,41,2,640,0,53298,1
2,30916,30784,32053,61530,14542,-3943,-474,221,1966,-417,648,198,482,-136,1,0,41,2,680,0,53298,1
2,30882,30774,32029,61531,14565,-3395,-1137,23,-455,-486,421,189,485,-129,1,0,41,2,720,0,53298,1
2,30934,30786,32089,61532,14589,-4055,-962,-652,-1463,102,-105,196,490,-118,1,0,41,2,760,0,53298,1
2,30905,30777,32071,61533,14612,-6411,-197,-858,-1486,752,-1020,202,488,-130,1,0,41,2,800,0,53298,1
2,30874,30774,32035,61534,14635,-5215,-30,89,2411,296,145,205,493,-125,1,0,41,2,840,0,53298,1
2,30838,30761,31967,61535,14659,-3793,-599,235,1955,-538,715,192,492,-130,1,0,41,2,880,0,53298,1
2,30857,30762,31995,61536,14681,-3678,-1059,-142,-1083,-366,295,192,486,-128,1,0,41,2,920,0,53298,1
2,30826,30746,31962,61537,14705,-5287,-381,-842,-2371,156,-545,196,486,-126,1,0,41,2,960,0,53298,1
1,30815,30746,31937,61538,0,-5417,-255,-214,287,373,-242,194,476,-132,1,0,41,3,0,1,53298,1
2,30815,30745,31930,61539,13724,-4310,-457,29,1677,-87,370,188,488,-130,1,0,41,3,40,1,53298,1
2,30767,30733,31885,61540,13748,-3935,-814,-92,331,-200,274,189,491,-123,1,0,41,3,80,1,53298,1
2,30793,30737,31903,61541,13771,-4505,-647,-402,-987,177,-150,197,485,-129,1,0,41,3,120,1,53298,1
2,30784,30732,31876,61542,13794,-4900,-512,-350,-167,306,-141,188,486,-120,1,0,41,3,160,1,53298,1
2,30772,30731,31891,61543,13817,-4567,-554,-257,1153,150,172,198,484,-136,1,0,41,3,200,1,53298,1
2,30795,30734,31905,61544,13841,-4926,-348,-285,449,93,-40,191,493,-135,1,0,41,3,240,1,53298,1
2,30769,30732,31903,61545,13864,-4814,-382,-151,161,-40,13,187,489,-117,1,0,41,3,280,1,53298,1
2,30774,30732,31883,61546,13889,-4468,-576,-225,-118,-140,116,199,491,-127,1,0,41,3,320,1,53298,1
2,30789,30733,31892,61547,13912,-4392,-700,-299,-99,-40,90,188,484,-132,1,0,41,3,360,1,53298,1
2,30779,30733,31899,61548,13935,-4876,-437,-376,61,128,-74,192,484,-126,1,0,41,3,400,1,53298,1
2,30770,30732,31894,61549,13958,-5235,-219,-189,-42,63,-178,196,488,-128,1,0,41,3,440,1,53298,1
2,30761,30726,31870,61550,13981,-4564,-475,-86,-53,-197,151,187,487,-129,1,0,41,3,480,1,53298,1
2,30751,30728,31856,61551,14004,-4036,-777,-196,-361,-321,267,200,490,-130,1,0,41,3,520,1,53298,1
2,30756,30724,31863,61552,14027,-4060,-953,-347,-336,46,92,198,488,-138,1,0,41,3,560,1,53298,1
2,30755,30726,31880,61553,14051,-5767,-10,-725,-641,372,-552,193,477,-131,1,0,41,3,600,1,53298,1
2,30730,30724,31848,61554,14074,-5435,-46,31,375,116,-173,194,486,-122,1,0,41,3,640,1,53298,1
2,30721,30724,31841,61555,14097,-3931,-563,136,1035,-638,599,195,483,-135,1,0,41,3,680,1,53298,1
2,30728,30720,31829,61556,14119,-3529,-1084,-123,-736,-602,408,192,486,-132,1,0,41,3,720,1,53298,1
2,30754,30727,31880,61557,14141,-3883,-1270,-447,-1021,72,15,201,497,-133,1,0,41,3,760,1,53298,1
2,30765,30730,31888,61558,14165,-6439,26,-925,-1514,701,-1049,187,485,-127,1,0,41,3,800,1,53298,1
2,30724,30724,31855,61559,14187,-5304,5,127,2049,315,80,191,483,-133,1,0,41,3,840,1,53298,1
2,30710,30723,31833,61560,14211,-3726,-597,250,1806,-583,775,187,483,-133,1,0,41,3,880,1,53298,1
2,30720,30723,31822,61561,14234,-3253,-1252,8,-995,-477,433,190,484,-138,1,0,41,3,920,1,53298,1
2,30756,30729,31900,61562,14257,-4592,-617,-1121,-2033,181,-391,191,487,-137,1,0,41,3,960,1,53298,1
1,30735,30729,31893,61563,0,-6638,-303,-549,-1291,885,-1059,191,491,-127,1,0,41,4,0,1,53298,1
2,30716,30723,31842,61564,13282,-4728,-44,228,3234,64,466,188,482,-134,1,0,41,4,40,1,53298,1
2,30711,30722,31827,61565,13305,-3495,-782,334,1742,-723,814,197,485,-129,1,0,41,4,80,1,53298,1
2,30743,30728,31866,61566,13329,-3245,-1477,-124,-1332,-365,405,196,488,-130,1,0,41,4,120,1,53298,1
2,30763,30729,31907,61567,13351,-6032,58,-1366,-3389,436,-1060,195,475,-131,1,0,41,4,160,1,53298,1
2,30735,30725,31869,61568,13374,-5946,-71,-77,797,716,-467,195,483,-125,1,0,41,4,200,1,53298,1
2,30690,30721,31833,61569,13396,-4066,-316,289,3259,-267,707,191,487,-127,1,0,41,4,240,1,53298,1
2,30715,30723,31837,61570,13419,-3483,-1012,109,521,-568,589,197,489,-133,1,0,41,4,280,1,53298,1
2,30769,30729,31877,61571,13441,-4754,-561,-710,-2670,-56,-337,190,490,-132,1,0,41,4,320,1,53298,1
2,30756,30730,31874,61572,13464,-5447,-416,-480,-1156,382,-400,193,485,-129,1,0,41,4,360,1,53298,1
2,30757,30702,31867,61573,13486,-4630,-385,-89,1322,84,238,205,487,-123,1,0,41,4,400,1,53298,1
2,30767,30738,31875,61574,13509,-4188,-672,-125,944,-180,318,192,490,-124,1,0,41,4,440,1,53298,1
2,30761,30733,31879,61575,13532,-4694,-533,-294,-731,45,-177,199,481,-131,1,0,41,4,480,1,53298,1
2,30775,30736,31877,61576,13555,-4749,-500,-227,-310,123,-70,192,486,-130,1,0,41,4,520,1,53298,1
2,30769,30732,31866,61577,13578,-4664,-546,-339,81,-40,66,194,496,-122,1,0,41,4,560,1,53298,1
2,30745,30729,31842,61578,13601,-5190,-297,-338,-161,-116,-84,181,483,-115,1,0,41,4,600,1,53298,1
2,30739,30721,31826,61579,13624,-4511,-511,-64,860,-243,293,194,486,-136,1,0,41,4,640,1,53298,1
2,30719,30721,31820,61580,13646,-3972,-757,-50,710,-362,460,200,478,-142,1,0,41,4,680,1,53298,1
2,30743,30722,31837,61581,13669,-3683,-1164,-183,39,-124,252,193,481,-129,1,0,41,4,720,1,53298,1
2,30753,30727,31868,61582,13691,-5798,67,-929,-1516,351,-734,193,485,-129,1,0,41,4,760,1,53298,1
2,30728,30723,31845,61583,13714,-5530,-69,-27,621,350,-232,187,481,-123,1,0,41,4,800,1,53298,1
2,30699,30718,31806,61584,13736,-4007,-493,203,1763,-371,614,194,490,-118,1,0,41,4,840,1,53298,1
2,30696,30717,31794,61585,13759,-3366,-1152,76,-139,-482,489,192,486,-134,1,0,41,4,880,1,53298,1
2,30743,30725,31873,61586,13782,-4135,-899,-667,-1507,117,-168,193,497,-129,1,0,41,4,920,1,53298,1
2,30730,30723,31865,61587,13804,-6647,-235,-888,-2380,824,-1306,196,480,-124,1,0,41,4,960,1,53298,1
1,30679,30717,31829,61588,0,-5086,-46,156,2796,290,256,197,485,-131,1,0,41,5,0,0,53298,1
2,30666,30715,31795,61589,12839,-3603,-674,343,2647,-684,975,199,481,-131,1,0,41,5,40,0,53298,1
2,30719,30722,31826,61590,12862,-3177,-1366,28,-876,-478,471,187,493,-121,1,0,41,5,80,0,53298,1
2,30755,30725,31867,61591,12885,-5739,99,-1288,-3567,248,-951,196,492,-124,1,0,41,5,120,0,53298,1
2,30717,30720,31837,61592,12909,-5983,-91,-163,-235,661,-594,188,482,-126,1,0,41,5,160,0,53298,1
2,30685,30715,31796,61593,12932,-4094,-393,235,2927,-190,690,193,481,-133,1,0,41,5,200,0,53298,1
2,30681,30719,31792,61594,12955,-3289,-1096,161,968,-500,637,191,485,-137,1,0,41,5,240,0,53298,1
2,30721,30719,31843,61595,12979,-4023,-902,-530,-1536,51,-63,198,490,-118,1,0,41,5,280,0,53298,1
2,30725,30720,31862,61596,13003,-6474,-259,-867,-2925,703,-1211,183,487,-121,1,0,41,5,320,0,53298,1
2,30698,30714,31805,61597,13027,-5189,-97,17,1911,224,165,197,485,-139,1,0,41,5,360,0,53298,1
2,30692,30713,31783,61598,13051,-3687,-698,201,2537,-638,908,195,489,-137,1,0,41,5,400,0,53298,1
2,30698,30712,31789,61599,13074,-3218,-1245,-6,-112,-374,462,196,480,-126,1,0,41,5,440,0,53298,1
2,30719,30717,31842,61600,13098,-4310,-681,-701,-1518,424,-325,196,494,-120,1,0,41,5,480,0,53298,1
2,30762,30735,31884,61601,13121,-5108,-658,-483,-41,954,-434,188,494,-126,1,0,41,5,520,0,53298,1
2,30790,30744,31930,61602,13145,-6627,658,-706,1682,666,-318,190,482,-138,1,0,41,5,560,0,53298,1
2,30730,30727,31853,61603,13170,-5564,-21,210,953,-300,-29,194,490,-126,1,0,41,5,600,0,53298,1
2,30697,30718,31797,61604,13194,-3656,-457,237,1524,-1220,1107,192,482,-126,1,0,41,5,640,0,53298,1
2,30703,30719,31814,61605,13218,-3251,-1140,-39,-1060,-957,658,183,493,-125,1,0,41,5,680,0,53298,1
2,30766,30726,31860,61606,13242,-3787,-1422,-577,-1763,66,16,197,493,-125,1,0,41,5,720,0,53298,1
2,30770,30724,31890,61607,13266,-6659,7,-1060,-2075,1073,-1277,186,494,-132,1,0,41,5,760,0,53298,1
2,30743,30721,31839,61608,13289,-5490,29,148,2292,709,-185,190,496,-130,1,0,41,5,800,0,53298,1
2,30702,30717,31795,61609,13312,-3672,-441,321,3012,-458,873,200,486,-130,1,0,41,5,840,0,53298,1
2,30715,30719,31826,61610,13336,-3044,-1232,116,-479,-487,490,189,485,-117,1,0,41,5,880,0,53298,1
2,30756,30726,31883,61611,13360,-4820,-445,-1357,-2840,198,-594,194,488,-134,1,0,41,5,920,0,53298,1
2,30758,30723,31870,61612,13384,-6598,-435,-454,-2570,908,-1226,186,492,-122,1,0,41,5,960,0,53298,1
1,30722,30718,31804,61613,0,-4523,-178,155,3157,-160,606,191,487,-127,1,0,41,6,0,1,53298,1
2,30674,30715,31793,61614,12398,-3333,-829,301,2416,-895,1023,186,484,-124,1,0,41,6,40,1,53298,1
2,30750,30723,31830,61615,12423,-2996,-1628,-125,-438,-447,583,189,491,-117,1,0,41,6,80,1,53298,1
2,30754,30727,31888,61616,12447,-6317,407,-1366,-3511,665,-1212,192,492,-134,1,0,41,6,120,1,53298,1
2,30721,30717,31837,61617,12471,-6273,-10,-17,-249,688,-669,191,489,-133,1,0,41,6,160,1,53298,1
2,30694,30713,31794,61618,12495,-4051,-319,175,3054,-540,880,194,490,-126,1,0,41,6,200,1,53298,1
2,30696,30712,31784,61619,12519,-3223,-1056,89,975,-705,738,191,489,-133,1,0,41,6,240,1,53298,1
2,30753,30719,31854,61620,12543,-3800,-1011,-521,-1173,99,62,190,482,-128,1,0,41,6,280,1,53298,1
2,30764,30720,31862,61621,12567,-6377,-190,-835,-2658,910,-1249,202,488,-132,1,0,41,6,320,1,53298,1
2,30704,30714,31811,61622,12590,-5508,-50,-5,1194,381,-117,193,499,-131,1,0,41,6,360,1,53298,1
2,30677,30709,31783,61623,12613,-3879,-566,103,2287,-599,823,178,488,-106,1,0,41,6,400,1,53298,1
2,30693,30710,31785,61624,12636,-3493,-1075,-129,-115,-424,453,192,492,-136,1,0,41,6,440,1,53298,1
2,30737,30712,31831,61625,12659,-4838,-475,-723,-1781,282,-414,193,487,-135,1,0,41,6,480,1,53298,1
2,30751,30717,31821,61626,12683,-5747,-268,-311,-945,494,-595,188,486,-122,1,0,41,6,520,1,53298,1
2,30727,30712,31797,61627,12706,-4637,-335,-72,1312,-165,315,191,485,-137,1,0,41,6,560,1,53298,1
2,30735,30714,31809,61628,12729,-3898,-756,-67,896,-459,490,183,483,-123,1,0,41,6,600,1,53298,1
2,30743,30716,31816,61629,12752,-4201,-797,-352,-718,2,29,191,485,-133,1,0,41,6,640,1,53298,1
2,30734,30714,31821,61630,12775,-5394,-280,-485,-1059,300,-465,188,484,-138,1,0,41,6,680,1,53298,1
2,30728,30713,31813,61631,12798,-5010,-293,-163,451,46,3,193,485,-129,1,0,41,6,720,1,53298,1
2,30725,30712,31797,61632,12821,-4371,-546,-161,622,-262,262,186,496,-126,1,0,41,6,760,1,53298,1
2,30722,30714,31811,61633,12843,-4361,-638,-219,-461,-143,10,191,487,-139,1,0,41,6,800,1,53298,1
2,30730,30713,31809,61634,12866,-4523,-650,-280,-468,50,-43,196,484,-136,1,0,41,6,840,1,53298,1
2,30743,30714,31815,61635,12888,-5210,-277,-399,-494,60,-211,183,491,-121,1,0,41,6,880,1,53298,1
2,30723,30715,31795,61636,12911,-4788,-388,-147,110,-110,61,195,493,-139,1,0,41,6,920,1,53298,1
2,30719,30712,31797,61637,12933,-4140,-653,-91,273,-279,258,197,491,-133,1,0,41,6,960,1,53298,1
1,30726,30710,31795,61638,0,-3937,-891,-143,-283,-86,154,194,492,-126,1,0,41,7,0,0,53298,1
2,30737,30710,31810,61639,11956,-5057,-394,-652,-933,157,-327,194,482,-132,1,0,41,7,40,0,53298,1
2,30734,30712,31807,61640,11979,-5295,-259,-229,181,198,-205,188,488,-128,1,0,41,7,80,0,53298,1
2,30739,30711,31797,61641,12001,-4368,-474,-2,977,-161,280,182,486,-138,1,0,41,7,120,0,53298,1
2,30738,30713,31810,61642,12023,-3882,-895,-71,42,-267,298,196,482,-122,1,0,41,7,160,0,53298,1
2,30761,30717,31820,61643,12046,-4931,-446,-650,-1233,-4,-225,187,485,-131,1,0,41,7,200,0,53298,1
2,30735,30713,31813,61644,12069,-5481,-239,-285,-339,158,-292,194,486,-126,1,0,41,7,240,0,53298,1
2,30718,30710,31790,61645,12092,-4401,-433,6,1166,-161,330,192,498,-124,1,0,41,7,280,0,53298,1
2,30714,30710,31792,61646,12115,-3767,-894,-13,351,-324,375,200,490,-134,1,0,41,7,320,0,53298,1
2,30739,30717,31803,61647,12138,-3850,-1150,-273,-512,40,115,195,493,-131,1,0,41,7,360,0,53298,1
2,30737,30716,31840,61648,12162,-6150,63,-855,-1607,514,-845,194,496,-130,1,0,41,7,400,0,53298,1
2,30722,30710,31801,61649,12185,-5401,-51,0,1106,239,-22,189,493,-121,1,0,41,7,440,0,53298,1
2,30730,30708,31774,61650,12208,-3881,-586,158,1597,-498,700,190,488,-126,1,0,41,7,480,0,53298,1
2,30720,30708,31777,61651,12231,-3447,-1162,-25,-556,-427,417,199,489,-129,1,0,41,7,520,0,53298,1
2,30732,30712,31815,61652,12254,-4310,-875,-729,-1399,199,-192,188,492,-126,1,0,41,7,560,0,53298,1
2,30741,30711,31816,61653,12277,-6366,-192,-668,-1278,714,-998,198,490,-134,1,0,41,7,600,0,53298,1
2,30707,30707,31776,61654,12300,-4989,-93,80,2362,157,277,192,488,-132,1,0,41,7,640,0,53298,1
2,30697,30704,31762,61655,12322,-3725,-680,234,1664,-575,739,190,486,-132,1,0,41,7,680,0,53298,1
2,30714,30709,31785,61656,12345,-3459,-1176,-127,-1052,-309,284,196,490,-128,1,0,41,7,720,0,53298,1
2,30735,30712,31819,61657,12368,-5412,-172,-1044,-2133,295,-663,190,486,-126,1,0,41,7,760,0,53298,1
2,30716,30709,31799,61658,12391,-5997,-113,-212,-144,584,-563,204,484,-128,1,0,41,7,800,0,53298,1
2,30691,30705,31764,61659,12415,-4243,-338,151,2515,-186,599,193,481,-129,1,0,41,7,840,0,53298,1
2,30688,30705,31752,61660,12439,-3508,-935,99,730,-512,581,191,481,-123,1,0,41,7,880,0,53298,1
2,30719,30710,31789,61661,12462,-3661,-1226,-304,-1260,5,124,185,485,-129,1,0,41,7,920,0,53298,1
2,30735,30711,31812,61662,12485,-6252,61,-1048,-2174,523,-964,194,486,-134,1,0,41,7,960,0,53298,1
1,30710,30705,31775,61663,0,-5623,-38,-19,1159,341,-125,194,484,-136,1,0,41,8,0,1,53298,1
2,30667,30701,31744,61664,11514,-3922,-502,167,2329,-484,736,198,484,-138,1,0,41,8,40,1,53298,1
2,30694,30703,31754,61665,11538,-3469,-1067,8,-153,-434,411,196,488,-124,1,0,41,8,80,1,53298,1
2,30726,30707,31788,61666,11561,-4826,-494,-759,-2028,123,-388,194,482,-134,1,0,41,8,120,1,53298,1
2,30714,30706,31783,61667,11586,-5852,-304,-419,-974,424,-581,194,496,-130,1,0,41,8,160,1,53298,1
2,30684,30702,31760,61668,11609,-4548,-356,-18,1764,-61,373,202,484,-126,1,0,41,8,200,1,53298,1
2,30679,30702,31748,61669,11631,-3733,-832,52,1059,-381,509,200,486,-130,1,0,41,8,240,1,53298,1
2,30710,30705,31777,61670,11654,-3924,-1009,-282,-784,41,77,185,493,-133,1,0,41,8,280,1,53298,1
2,30712,30706,31789,61671,11677,-5667,-208,-713,-1614,396,-705,196,482,-128,1,0,41,8,320,1,53298,1
2,30697,30703,31759,61672,11700,-5295,-203,-142,767,199,-44,193,491,-123,1,0,41,8,360,1,53298,1
2,30680,30702,31755,61673,11725,-4094,-598,11,1290,-339,498,194,494,-134,1,0,41,8,400,1,53298,1
2,30691,30702,31760,61674,11748,-4099,-763,-255,-425,-246,176,193,495,-135,1,0,41,8,440,1,53298,1
2,30701,30706,31777,61675,11772,-4768,-575,-409,-997,49,-187,192,482,-118,1,0,41,8,480,1,53298,1
2,30709,30705,31780,61676,11796,-4995,-401,-271,153,171,-81,194,488,-134,1,0,41,8,520,1,53298,1
2,30717,30707,31785,61677,11820,-5177,-200,-251,133,-51,-22,199,487,-127,1,0,41,8,560,1,53298,1
2,30694,30706,31766,61678,11844,-4533,-496,-93,-80,-275,195,190,490,-128,1,0,41,8,600,1,53298,1
2,30644,30030,31714,61679,11868,-4015,-746,-49,-205,-367,503,201,489,-129,1,0,41,8,640,1,53298,1
2,30628,30025,31715,61680,11892,-3911,-999,-224,-353,-102,359,189,487,-125,1,0,41,8,680,1,53298,1
2,30646,30101,31743,61681,11916,-5303,-267,-802,-894,314,-398,196,492,-128,1,0,41,8,720,1,53298,1
2,30671,30150,31743,61682,11941,-5514,-134,-93,483,376,-320,193,483,-125,1,0,41,8,760,1,53298,1
2,30660,30109,31717,61683,11966,-4257,-395,146,1427,-217,356,195,479,-131,1,0,41,8,800,1,53298,1
2,30680,30565,31736,61684,11990,-3714,-978,-31,-139,-400,318,199,489,-133,1,0,41,8,840,1,53298,1
2,30688,30627,31769,61685,12013,-4389,-769,-646,-1252,68,-184,190,490,-134,1,0,41,8,880,1,53298,1
2,30691,30603,31764,61686,12036,-5896,-248,-518,-834,442,-706,202,488,-132,1,0,41,8,920,1,53298,1
2,30684,30548,31741,61687,12060,-4821,-189,53,1858,75,244,183,479,-119,1,0,41,8,960,1,53298,1
1,30669,30632,31725,61688,0,-3822,-730,141,968,-399,542,186,486,-130,1,0,41,9,0,0,53298,1
2,30693,30666,31756,61689,11073,-3796,-1084,-238,-1020,-125,157,195,491,-123,1,0,41,9,40,0,53298,1
2,30695,30630,31768,61690,11097,-5714,-164,-824,-1795,301,-697,196,488,-138,1,0,41,9,80,0,53298,1
2,30686,30590,31734,61691,11121,-5318,-156,-81,967,254,-71,191,497,-129,1,0,41,9,120,0,53298,1
2,30688,30598,31727,61692,11145,-4030,-590,106,1489,-258,501,187,485,-127,1,0,41,9,160,0,53298,1
2,30682,30709,31749,61693,11169,-3662,-1008,-76,-201,-200,306,195,483,-135,1,0,41,9,200,0,53298,1
2,30752,30727,31836,61694,11191,-3791,-972,-272,-431,333,-37,195,485,-135,1,0,41,9,240,0,53298,1
2,30741,30719,31841,61695,11214,-4121,-846,-431,938,736,-71,194,482,-122,1,0,41,9,280,0,53298,1
2,30750,30725,31895,61696,11237,-6625,751,-1305,1051,1166,-511,191,489,-129,1,0,41,9,320,0,53298,1
2,30646,30705,31799,61697,11261,-6703,128,240,-98,264,-808,183,493,-117,1,0,41,9,360,0,53298,1
2,30580,30689,31716,61698,11285,-3946,-99,331,2448,-1514,1197,183,491,-121,1,0,41,9,400,0,53298,1
2,30564,30692,31713,61699,11308,-2922,-1186,169,-484,-1640,1109,189,487,-127,1,0,41,9,440,0,53298,1
2,30620,30699,31766,61700,11332,-3188,-1515,-451,-2673,-433,207,192,484,-126,1,0,41,9,480,0,53298,1
2,30643,30700,31800,61701,11355,-5505,-262,-1205,-1769,960,-853,194,490,-132,1,0,41,9,520,0,53298,1
2,30626,30698,31779,61702,11379,-6078,13,-11,1360,1421,-757,188,486,-128,1,0,41,9,560,0,53298,1
2,30608,30692,31750,61703,11403,-4461,-145,239,3084,244,355,191,487,-127,1,0,41,9,600,0,53298,1
2,30630,30696,31759,61704,11427,-3814,-766,-3,492,-407,413,190,492,-130,1,0,41,9,640,0,53298,1
2,30643,30694,31774,61705,11449,-5034,-490,-642,-2757,-157,-411,184,492,-126,1,0,41,9,680,0,53298,1
2,30630,30694,31750,61706,11473,-5107,-494,-347,-1049,-51,-165,189,491,-133,1,0,41,9,720,0,53298,1
2,30631,30692,31746,61707,11496,-4249,-614,-107,840,-248,322,194,490,-126,1,0,41,9,760,0,53298,1
2,30621,30690,31747,61708,11520,-3751,-910,-73,848,-211,405,190,490,-122,1,0,41,9,800,0,53298,1
2,30648,30693,31769,61709,11544,-4781,-437,-568,-757,209,-232,188,488,-124,1,0,41,9,840,0,53298,1
2,30655,30692,31768,61710,11568,-5426,-330,-257,-672,346,-369,187,485,-133,1,0,41,9,880,0,53298,1
2,30636,30690,31753,61711,11592,-4648,-381,-106,679,-202,235,201,489,-125,1,0,41,9,920,0,53298,1
2,30645,30691,31750,61712,11615,-4190,-723,-180,190,-353,280,192,490,-130,1,0,41,9,960,0,53298,1
1,30648,30694,31760,61713,0,-4689,-569,-347,-694,-46,-127,193,491,-121,1,0,41,10,0,0,53298,1
2,30654,30694,31764,61714,10631,-4766,-445,-167,65,147,-49,195,493,-135,1,0,41,10,40,0,53298,1
2,30666,30329,31746,61715,10655,-4695,-517,-281,161,85,31,189,491,-121,1,0,41,10,80,0,53298,1
2,30666,30437,31752,61716,10679,-5379,-222,-353,-1022,-45,-254,189,489,-127,1,0,41,10,120,0,53298,1
2,30660,30672,31748,61717,10703,-4454,-541,-50,129,-405,254,198,486,-126,1,0,41,10,160,0,53298,1
2,30646,30600,31743,61718,10727,-3795,-867,-29,183,-473,506,195,483,-137,1,0,41,10,200,0,53298,1
2,30666,30661,31755,61719,10751,-3524,-1213,-168,-135,-97,296,187,495,-125,1,0,41,10,240,0,53298,1
2,30679,30576,31792,61720,10775,-5657,22,-1090,-1240,546,-715,201,489,-121,1,0,41,10,280,0,53298,1
2,30675,30635,31769,61721,10798,-6007,30,9,199,650,-550,190,484,-126,1,0,41,10,320,0,53298,1
2,30660,30615,31736,61722,10822,-4141,-321,231,2203,-379,653,196,496,-124,1,0,41,10,360,0,53298,1
2,30642,30665,31725,61723,10846,-3364,-1085,60,103,-698,624,188,486,-142,1,0,41,10,400,0,53298,1
2,30696,30635,31787,61724,10870,-3832,-1274,-591,-1561,-82,22,191,485,-131,1,0,41,10,440,0,53298,1
2,30679,30621,31782,61725,10893,-6501,-232,-963,-2465,773,-1262,193,491,-127,1,0,41,10,480,0,53298,1
2,30649,30612,31740,61726,10918,-5314,-3,107,2445,390,83,190,492,-130,1,0,41,10,520,0,53298,1
2,30621,30645,31714,61727,10942,-3689,-600,311,2568,-594,879,189,485,-127,1,0,41,10,560,0,53298,1
2,30635,30674,31725,61728,10965,-3118,-1231,74,-545,-451,500,190,482,-134,1,0,41,10,600,0,53298,1
2,30670,30665,31787,61729,10988,-5214,-156,-1283,-2668,273,-723,187,491,-135,1,0,41,10,640,0,53298,1
2,30652,30657,31761,61730,11011,-6407,-168,-277,-1207,823,-910,191,489,-131,1,0,41,10,680,0,53298,1
2,30611,30652,31712,61731,11034,-4336,-225,180,3010,-150,645,194,494,-138,1,0,41,10,720,0,53298,1
2,30607,30678,31716,61732,11058,-3352,-941,236,1483,-666,786,188,486,-118,1,0,41,10,760,0,53298,1
2,30663,30685,31766,61733,11081,-3349,-1503,-218,-1003,-124,281,196,490,-134,1,0,41,10,800,0,53298,1
2,30695,30682,31797,61734,11105,-6568,198,-1264,-3350,692,-1314,187,489,-121,1,0,41,10,840,0,53298,1
2,30654,30677,31750,61735,11128,-5863,77,10,982,530,-270,194,486,-120,1,0,41,10,880,0,53298,1
2,30637,30679,31720,61736,11152,-3809,-458,237,3007,-604,965,193,481,-135,1,0,41,10,920,0,53298,1
2,30647,30697,31734,61737,11175,-3142,-1209,96,194,-616,620,183,489,-111,1,0,41,10,960,0,53298,1
1,30699,30689,31796,61738,0,-4335,-683,-870,-1827,128,-288,190,484,-130,1,0,41,11,0,0,53298,1
2,30694,30697,31778,61739,10190,-6663,-313,-608,-2462,854,-1204,190,488,-126,1,0,41,11,40,0,53298,1
2,30647,30690,31725,61740,10214,-4894,-111,96,2334,29,370,193,485,-127,1,0,41,11,80,0,53298,1
2,30629,30691,31709,61741,10237,-3495,-794,238,2171,-753,946,184,482,-128,1,0,41,11,120,0,53298,1
2,30675,30693,31761,61742,10261,-3119,-1325,-70,-531,-305,422,187,485,-121,1,0,41,11,160,0,53298,1
2,30713,30694,31791,61743,10284,-6073,320,-1245,-2848,543,-1038,192,484,-136,1,0,41,11,200,0,53298,1
2,30667,30689,31764,61744,10307,-6212,40,-52,-312,659,-685,199,487,-131,1,0,41,11,240,0,53298,1
2,30644,30686,31709,61745,10328,-3973,-361,224,2894,-504,836,201,481,-123,1,0,41,11,280,0,53298,1
2,30597,30685,31696,61746,10350,-3191,-1130,91,762,-777,696,192,484,-124,1,0,41,11,320,0,53298,1
2,30675,30697,31761,61747,10372,-3486,-1393,-297,-1102,-35,96,193,491,-131,1,0,41,11,360,0,53298,1
2,30685,30693,31775,61748,10396,-6448,87,-1128,-2755,852,-1201,186,490,-136,1,0,41,11,400,0,53298,1
2,30656,30689,31740,61749,10419,-5765,61,41,1366,569,-157,187,499,-125,1,0,41,11,440,0,53298,1
2,30626,30685,31700,61750,10441,-3879,-456,204,2791,-548,915,194,476,-128,1,0,41,11,480,0,53298,1
2,30657,30689,31717,61751,10463,-3357,-1095,20,-48,-545,498,190,488,-138,1,0,41,11,520,0,53298,1
2,30675,30692,31760,61752,10486,-4748,-528,-804,-2250,122,-444,197,489,-131,1,0,41,11,560,0,53298,1
2,30671,30691,31748,61753,10508,-5975,-321,-441,-1363,521,-730,196,494,-130,1,0,41,11,600,0,53298,1
2,30637,30689,31724,61754,10530,-4678,-300,-9,1807,-66,349,196,478,-124,1,0,41,11,640,0,53298,1
2,30625,30684,31703,61755,10553,-3767,-771,59,1342,-476,594,193,489,-129,1,0,41,11,680,0,53298,1
2,30650,30687,31735,61756,10576,-3921,-941,-293,-780,-22,107,194,486,-126,1,0,41,11,720,0,53298,1
2,30653,30689,31741,61757,10599,-5626,-224,-633,-1706,375,-643,195,487,-129,1,0,41,11,760,0,53298,1
2,30651,30685,31723,61758,10621,-5219,-227,-140,519,158,-58,193,487,-137,1,0,41,11,800,0,53298,1
2,30644,30682,31716,61759,10644,-4156,-639,-40,1124,-296,408,189,491,-125,1,0,41,11,840,0,53298,1
2,30658,30682,31723,61760,10667,-4519,-536,-338,-666,-216,-14,188,488,-136,1,0,41,11,880,0,53298,1
2,30655,30675,31717,61761,10689,-4882,-494,-289,-980,-4,-141,192,488,-126,1,0,41,11,920,0,53298,1
2,30642,30679,31709,61762,10712,-4484,-573,-182,64,-62,100,190,490,-122,1,0,41,11,960,0,53298,1
1,30655,30680,31715,61763,0,-4085,-842,-121,526,-94,248,195,487,-133,1,0,41,12,0,1,53298,1
2,30660,30662,31716,61764,9748,-5213,-250,-524,-733,51,-284,200,488,-132,1,0,41,12,40,1,53298,1
2,30642,30662,31705,61765,9771,-5084,-270,-113,-16,16,-54,198,496,-126,1,0,41,12,80,1,53298,1
2,30623,30671,31690,61766,9794,-4172,-638,-43,468,-293,334,205,489,-139,1,0,41,12,120,1,53298,1
2,30661,30681,31710,61767,9815,-3970,-945,-177,-140,-236,244,199,481,-137,1,0,41,12,160,1,53298,1
2,30657,30682,31722,61768,9837,-5122,-378,-532,-1081,105,-374,193,485,-125,1,0,41,12,200,1,53298,1
2,30641,30690,31715,61769,9859,-5031,-292,-116,455,188,-70,196,482,-140,1,0,41,12,240,1,53298,1
2,30641,30685,31696,61770,9881,-4171,-629,-15,757,-124,285,191,493,-137,1,0,41,12,280,1,53298,1
2,30642,30691,31710,61771,9904,-3765,-1020,-149,13,-93,255,199,495,-127,1,0,41,12,320,1,53298,1
2,30660,30693,31730,61772,9926,-5236,-216,-790,-1044,227,-448,193,479,-127,1,0,41,12,360,1,53298,1
2,30640,30692,31721,61773,9947,-5722,-122,-169,92,354,-359,197,487,-133,1,0,41,12,400,1,53298,1
2,30622,30684,31693,61774,9969,-4290,-397,108,1530,-243,474,190,482,-132,1,0,41,12,440,1,53298,1
2,30627,30688,31691,61775,9992,-3606,-1024,14,149,-429,455,199,483,-139,1,0,41,12,480,1,53298,1
2,30660,30692,31723,61776,10014,-4007,-1003,-365,-1048,49,28,198,486,-128,1,0,41,12,520,1,53298,1
2,30650,30692,31724,61777,10038,-6248,-67,-792,-1606,523,-926,194,486,-126,1,0,41,12,560,1,53298,1
2,30620,30690,31693,61778,10062,-5159,-83,49,1773,195,152,200,480,-136,1,0,41,12,600,1,53298,1
2,30615,30686,31678,61779,10085,-3779,-677,196,1630,-492,701,193,481,-131,1,0,41,12,640,1,53298,1
2,30647,30689,31707,61780,10108,-3740,-1072,-186,-1070,-306,232,199,485,-143,1,0,41,12,680,1,53298,1
2,30668,30695,31717,61781,10130,-5444,-309,-800,-2148,148,-578,191,483,-133,1,0,41,12,720,1,53298,1
2,30642,30689,31713,61782,10152,-5276,-211,-145,644,293,-134,189,481,-139,1,0,41,12,760,1,53298,1
2,30612,30691,31695,61783,10175,-4132,-586,77,1525,-149,417,199,479,-127,1,0,41,12,800,1,53298,1
2,30651,30690,31706,61784,10198,-3656,-1018,-56,175,-176,312,189,485,-129,1,0,41,12,840,1,53298,1
2,30660,30694,31725,61785,10220,-5130,-241,-683,-1503,178,-468,190,486,-124,1,0,41,12,880,1,53298,1
2,30660,30693,31709,61786,10243,-5615,-195,-235,-225,288,-313,194,480,-132,1,0,41,12,920,1,53298,1
2,30634,30690,31692,61787,10266,-4349,-440,0,1363,-201,419,197,493,-125,1,0,41,12,960,1,53298,1
1,30641,30691,31703,61788,0,-3768,-946,-27,310,-316,368,193,487,-119,1,0,41,13,0,1,53298,1
2,30673,30693,31717,61789,9307,-4618,-631,-509,-1142,73,-186,196,492,-130,1,0,41,13,40,1,53298,1
2,30667,30692,31715,61790,9329,-5550,-229,-380,-610,255,-412,199,479,-131,1,0,41,13,80,1,53298,1
2,30647,30691,31694,61791,9351,-4624,-368,-72,1114,-22,248,200,482,-126,1,0,41,13,120,1,53298,1
2,30663,30690,31697,61792,9374,-3946,-823,-40,517,-259,354,203,483,-133,1,0,41,13,160,1,53298,1
2,30678,30692,31708,61793,9396,-4596,-628,-473,-1012,-21,-128,197,485,-127,1,0,41,13,200,1,53298,1
2,30667,30693,31710,61794,9418,-5192,-370,-344,-463,172,-254,193,487,-127,1,0,41,13,240,1,53298,1
2,30658,30693,31698,61795,9440,-4572,-456,-107,759,2,174,198,488,-128,1,0,41,13,280,1,53298,1
2,30679,30697,31715,61796,9463,-4456,-587,-216,50,-151,144,199,489,-129,1,0,41,13,320,1,53298,1
2,30680,30688,31710,61797,9485,-4776,-495,-262,-654,-113,-60,201,475,-129,1,0,41,13,360,1,53298,1
2,30670,30663,31707,61798,9508,-4522,-571,-179,-32,-71,110,195,481,-135,1,0,41,13,400,1,53298,1
2,30675,30652,31712,61799,9531,-4203,-747,-157,331,-54,211,200,486,-130,1,0,41,13,440,1,53298,1
2,30683,30449,31725,61800,9554,-4861,-412,-513,-347,94,-130,194,494,-126,1,0,41,13,480,1,53298,1
2,30676,30485,31717,61801,9576,-5419,-120,-218,-163,117,-225,189,485,-129,1,0,41,13,520,1,53298,1
2,30650,30542,31706,61802,9599,-4417,-478,3,756,-194,358,193,477,-127,1,0,41,13,560,1,53298,1
2,30644,30585,31706,61803,9621,-3766,-918,-48,184,-327,401,196,486,-130,1,0,41,13,600,1,53298,1
2,30670,30578,31728,61804,9644,-3797,-1194,-250,-343,49,55,193,485,-125,1,0,41,13,640,1,53298,1
2,30667,30576,31740,61805,9666,-6136,173,-885,-1241,516,-855,188,492,-126,1,0,41,13,680,1,53298,1
2,30646,30599,31708,61806,9688,-5502,75,68,1288,240,3,194,480,-140,1,0,41,13,720,1,53298,1
2,30612,30598,31678,61807,9712,-3838,-623,211,1556,-526,790,194,490,-132,1,0,41,13,760,1,53298,1
2,30650,30635,31690,61808,9734,-3392,-1224,-35,-753,-464,432,197,485,-131,1,0,41,13,800,1,53298,1
2,30675,30630,31740,61809,9757,-4112,-1044,-612,-1306,169,-239,204,488,-132,1,0,41,13,840,1,53298,1
2,30660,30630,31735,61810,9780,-6658,9,-846,-1364,812,-1185,192,484,-140,1,0,41,13,880,1,53298,1
2,30630,30612,31691,61811,9803,-5121,1,175,2695,304,244,195,493,-129,1,0,41,13,920,1,53298,1
2,30628,30624,31680,61812,9826,-3622,-709,290,1865,-555,850,189,485,-131,1,0,41,13,960,1,53298,1
1,30658,30654,31702,61813,0,-3269,-1301,-36,-1255,-368,358,194,484,-134,1,0,41,14,0,1,53298,1
2,30674,30612,31748,61814,8866,-5506,-64,-1279,-2660,223,-779,189,487,-139,1,0,41,14,40,1,53298,1
2,30639,30617,31715,61815,8889,-6394,54,-212,-120,617,-668,191,495,-121,1,0,41,14,80,1,53298,1
2,30597,30637,31672,61816,8911,-4100,-275,290,3272,-238,785,194,486,-130,1,0,41,14,120,1,53298,1
2,30619,30635,31683,61817,8933,-3291,-1070,203,899,-623,679,189,491,-129,1,0,41,14,160,1,53298,1
2,30680,30629,31728,61818,8955,-4370,-798,-641,-2526,-139,-244,201,485,-133,1,0,41,14,200,1,53298,1
2,30672,30631,31731,61819,8978,-5846,-316,-620,-1924,447,-713,201,489,-129,1,0,41,14,240,1,53298,1
2,30641,30633,31705,61820,8999,-4821,-264,-26,1729,194,219,201,491,-127,1,0,41,14,280,1,53298,1
2,30618,30633,31680,61821,9021,-3734,-839,96,1536,-270,561,195,493,-129,1,0,41,14,320,1,53298,1
2,30635,30695,31690,61822,9044,-3386,-1248,-71,-35,17,264,201,485,-129,1,0,41,14,360,1,53298,1
2,30640,30694,31727,61823,9066,-4032,-842,-456,-794,558,-297,193,485,-133,1,0,41,14,400,1,53298,1
2,30679,30704,31811,61824,9089,-4551,-1027,-946,1347,977,-7,191,493,-127,1,0,41,14,440,1,53298,1
2,30669,30701,31797,61825,9112,-8603,462,-828,-1151,1205,-1434,191,493,-125,1,0,41,14,480,1,53298,1
2,30592,30689,31693,61826,9135,-5284,218,359,2684,-738,530,191,491,-133,1,0,41,14,520,1,53298,1
2,30554,30686,31664,61827,9157,-3028,-699,449,2525,-1971,1720,180,486,-136,1,0,41,14,560,1,53298,1
2,30581,30687,31696,61828,9179,-2824,-1489,-27,-2351,-1141,657,185,483,-123,1,0,41,14,600,1,53298,1
2,30674,30696,31773,61829,9201,-4175,-890,-1229,-3217,323,-467,195,485,-137,1,0,41,14,640,1,53298,1
2,30653,30695,31764,61830,9224,-6992,-447,-767,-2066,1602,-1602,181,489,-129,1,0,41,14,680,1,53298,1
2,30603,30687,31698,61831,9246,-5154,103,298,3996,859,48,192,490,-128,1,0,41,14,720,1,53298,1
2,30578,30686,31680,61832,9269,-3486,-531,431,3435,-466,924,187,491,-117,1,0,41,14,760,1,53298,1
2,30625,30690,31711,61833,9292,-3285,-1297,-76,-1082,-347,406,192,478,-134,1,0,41,14,800,1,53298,1
2,30642,30693,31737,61834,9314,-6095,42,-1241,-4305,360,-1064,194,486,-130,1,0,41,14,840,1,53298,1
2,30608,30686,31705,61835,9336,-5761,-178,-187,-480,348,-392,187,491,-131,1,0,41,14,880,1,53298,1
2,30597,30684,31671,61836,9357,-3948,-539,75,2467,-493,753,189,497,-123,1,0,41,14,920,1,53298,1
2,30582,30685,31676,61837,9379,-3224,-1137,83,1037,-559,630,189,495,-123,1,0,41,14,960,1,53298,1
1,30642,30693,31736,61838,0,-3922,-782,-556,-642,99,31,187,487,-115,1,0,41,15,0,1,53298,1
2,30641,30692,31750,61839,8426,-6578,-121,-687,-2345,761,-1104,197,491,-123,1,0,41,15,40,1,53298,1
2,30617,30689,31713,61840,8449,-5423,70,87,956,18,52,187,495,-123,1,0,41,15,80,1,53298,1
2,30613,30690,31706,61841,8472,-3804,-621,154,955,-809,656,193,483,-129,1,0,41,15,120,1,53298,1
2,30658,30694,31737,61842,8494,-3703,-1015,-236,-1423,-423,196,189,489,-123,1,0,41,15,160,1,53298,1
2,30678,30695,31755,61843,8516,-5274,-393,-790,-2219,318,-601,199,491,-125,1,0,41,15,200,1,53298,1
2,30658,30694,31740,61844,8539,-5437,-236,-209,128,526,-328,201,487,-129,1,0,41,15,240,1,53298,1
2,30650,30691,31723,61845,8561,-4302,-496,2,1413,32,277,191,491,-119,1,0,41,15,280,1,53298,1
2,30664,30696,31737,61846,8583,-3875,-883,-96,372,-201,270,193,495,-123,1,0,41,15,320,1,53298,1
2,30665,30695,31745,61847,8605,-5043,-325,-514,-1339,-39,-240,190,482,-126,1,0,41,15,360,1,53298,1
2,30649,30691,31731,61848,8628,-5197,-342,-243,-530,-80,-44,191,487,-121,1,0,41,15,400,1,53298,1
2,30657,30693,31717,61849,8650,-4320,-567,-112,609,-381,372,200,486,-134,1,0,41,15,440,1,53298,1
2,30652,30694,31719,61850,8671,-3820,-945,-155,246,-330,322,192,482,-134,1,0,41,15,480,1,53298,1
2,30659,30694,31730,61851,8693,-4291,-719,-404,-475,202,-81,197,487,-135,1,0,41,15,520,1,53298,1
2,30658,30693,31745,61852,8716,-4894,-546,-380,-154,561,-263,183,485,-127,1,0,41,15,560,1,53298,1
2,30676,30696,31765,61853,8737,-5206,-176,-400,894,421,-97,199,485,-127,1,0,41,15,600,1,53298,1
2,30658,30693,31732,61854,8759,-5598,-59,-103,69,-5,-273,199,493,-129,1,0,41,15,640,1,53298,1
2,30659,30687,31711,61855,8782,-4373,-435,62,292,-542,371,188,494,-126,1,0,41,15,680,1,53298,1
2,30665,30689,31717,61856,8804,-3745,-942,-73,-479,-549,441,197,483,-137,1,0,41,15,720,1,53298,1
2,30671,30694,31725,61857,8826,-3696,-1171,-329,-736,99,205,199,489,-125,1,0,41,15,760,1,53298,1
2,30675,30695,31752,61858,8847,-5452,-167,-904,-214,716,-441,189,497,-129,1,0,41,15,800,1,53298,1
2,30640,30690,31728,61859,8869,-5893,36,18,1024,736,-363,192,488,-130,1,0,41,15,840,1,53298,1
2,30636,30686,31699,61860,8890,-4221,-340,152,1537,-223,422,193,481,-133,1,0,41,15,880,1,53298,1
2,30640,30689,31706,61861,8911,-3529,-1068,-87,-539,-556,324,202,476,-128,1,0,41,15,920,1,53298,1
2,30667,30694,31741,61862,8933,-3877,-1228,-557,-1412,-33,-13,195,493,-135,1,0,41,15,960,1,53298,1
1,30667,30690,31742,61863,0,-6230,-149,-901,-1244,538,-868,195,489,-135,1,0,41,16,0,1,53298,1
2,30624,30683,31708,61864,7985,-5338,-8,122,1978,65,134,195,485,-129,1,0,41,16,40,1,53298,1
2,30632,30684,31709,61865,8007,-3832,-590,184,1385,-737,737,194,480,-122,1,0,41,16,80,1,53298,1
2,30641,30693,31716,61866,8031,-3458,-1152,-100,-1014,-631,489,196,496,-128,1,0,41,16,120,1,53298,1
2,30677,30695,31753,61867,8054,-4716,-562,-935,-1610,68,-210,191,487,-135,1,0,41,16,160,1,53298,1
2,30656,30692,31735,61868,8077,-6216,-196,-371,-452,502,-608,191,485,-131,1,0,41,16,200,1,53298,1
2,30624,30687,31714,61869,8100,-4661,-144,149,2300,-118,429,190,478,-126,1,0,41,16,240,1,53298,1
2,30625,30690,31710,61870,8123,-3631,-786,169,893,-484,543,196,482,-128,1,0,41,16,280,1,53298,1
2,30668,30694,31744,61871,8146,-3695,-1126,-258,-1168,24,108,190,478,-126,1,0,41,16,320,1,53298,1
2,30670,30688,31749,61872,8168,-5999,-66,-926,-1959,612,-908,189,489,-131,1,0,41,16,360,1,53298,1
2,30647,30688,31722,61873,8190,-5471,-99,-33,1051,446,-234,183,483,-127,1,0,41,16,400,1,53298,1
2,30633,30684,31701,61874,8211,-3941,-568,110,1661,-268,469,193,487,-123,1,0,41,16,440,1,53298,1
2,30647,30690,31712,61875,8233,-3479,-1098,-38,-232,-326,352,189,485,-125,1,0,41,16,480,1,53298,1
2,30682,30694,31750,61876,8254,-4420,-697,-757,-1336,174,-162,189,487,-127,1,0,41,16,520,1,53298,1
2,30658,30689,31737,61877,8276,-6311,-179,-554,-1067,384,-683,197,487,-133,1,0,41,16,560,1,53298,1
2,30638,30683,31706,61878,8299,-4885,-160,74,1860,-263,389,196,488,-122,1,0,41,16,600,1,53298,1
2,30637,30687,31703,61879,8321,-3664,-767,160,1026,-705,652,189,477,-119,1,0,41,16,640,1,53298,1
2,30676,30689,31727,61880,8343,-3628,-1114,-194,-1005,-225,215,190,480,-134,1,0,41,16,680,1,53298,1
2,30690,30686,31743,61881,8366,-5848,-60,-865,-1923,396,-689,189,485,-135,1,0,41,16,720,1,53298,1
2,30670,30682,31714,61882,8389,-5505,-109,-72,690,354,-134,194,488,-128,1,0,41,16,760,1,53298,1
2,30644,30678,31695,61883,8412,-3984,-544,106,1523,-214,504,188,484,-124,1,0,41,16,800,1,53298,1
2,30664,30683,31709,61884,8434,-3516,-1077,-38,-74,-205,304,184,484,-120,1,0,41,16,840,1,53298,1
2,30685,30687,31738,61885,8456,-4972,-314,-823,-1671,233,-450,193,487,-127,1,0,41,16,880,1,53298,1
2,30651,30684,31721,61886,8478,-6036,-135,-292,-847,341,-519,207,493,-127,1,0,41,16,920,1,53298,1
2,30624,30673,31687,61887,8500,-4335,-384,69,1600,-322,512,188,480,-130,1,0,41,16,960,1,53298,1
1,30630,30679,31691,61888,7544,-3553,-1001,16,573,-559,558,196,492,-128,1,0,41,17,0,1,53298,1
2,30648,30682,31715,61889,7566,-3960,-1042,-408,-1030,-18,37,187,483,-131,1,0,41,17,40,1,53298,1
2,30665,30685,31718,61890,7589,-5634,-291,-705,-1059,519,-685,188,488,-122,1,0,41,17,80,1,53298,1
2,30626,30681,31696,61891,7589,-5190,-169,-33,1761,338,-13,191,483,-137,1,0,41,17,120,1,53298,1
2,30630,30680,31690,61892,7636,-4083,-530,126,1724,-279,462,193,481,-135,1,0,41,17,160,1,53298,1
2,30653,30680,31715,61893,7636,-4397,-628,-308,-830,-247,30,203,495,-131,1,0,41,17,200,1,53298,1
2,30645,30685,31711,61894,7659,-5241,-409,-446,-1532,34,-344,200,486,-128,1,0,41,17,240,1,53298,1
2,30640,30681,31694,61895,7681,-4633,-489,-156,371,-2,98,195,487,-125,1,0,41,17,280,1,53298,1
2,30658,30681,31699,61896,7704,-3976,-874,-78,837,-121,298,191,477,-131,1,0,41,17,320,1,53298,1
2,30689,30611,31721,61897,7727,-4740,-485,-507,-520,39,-157,197,487,-139,1,0,41,17,360,1,53298,1
2,30657,30617,31718,61898,7750,-5190,-300,-224,-316,127,-211,198,474,-134,1,0,41,17,400,1,53298,1
2,30653,30634,31717,61899,7773,-4435,-535,-100,628,-192,285,196,494,-126,1,0,41,17,440,1,53298,1
2,30663,30681,31713,61900,7796,-3785,-955,-40,448,-314,416,196,484,-136,1,0,41,17,480,1,53298,1
2,30688,30687,31744,61901,7819,-4444,-717,-589,-627,36,-97,186,480,-130,1,0,41,17,520,1,53298,1
2,30680,30674,31736,61902,7842,-5812,-144,-413,-731,402,-624,193,489,-137,1,0,41,17,560,1,53298,1
2,30658,30675,31723,61903,7865,-4794,-200,30,1463,-8,241,191,487,-125,1,0,41,17,600,1,53298,1
2,30659,30688,31717,61904,7887,-3864,-799,87,670,-395,461,197,481,-129,1,0,41,17,640,1,53298,1
2,30682,30689,31745,61905,7910,-3736,-1148,-248,-846,-123,162,186,488,-126,1,0,41,17,680,1,53298,1
2,30683,30684,31756,61906,7933,-5741,-28,-854,-1495,353,-685,196,494,-124,1,0,41,17,720,1,53298,1
2,30665,30681,31734,61907,7956,-5495,-85,-73,885,300,-123,183,485,-127,1,0,41,17,760,1,53298,1
2,30645,30685,31710,61908,7979,-4041,-541,127,1532,-285,556,195,495,-135,1,0,41,17,800,1,53298,1
2,30663,30685,31722,61909,8002,-3613,-1034,-27,-295,-308,331,194,486,-128,1,0,41,17,840,1,53298,1
2,30689,30685,31754,61910,8023,-4861,-481,-719,-1618,126,-376,197,475,-133,1,0,41,17,880,1,53298,1
2,30673,30678,31738,61911,8046,-5826,-207,-332,-536,342,-477,191,489,-135,1,0,41,17,920,1,53298,1
2,30645,30679,31712,61912,8068,-4439,-369,34,1657,-133,414,194,492,-122,1,0,41,17,960,1,53298,1
1,30641,30680,31702,61913,7103,-3661,-922,64,559,-381,460,193,483,-127,1,0,41,18,0,1,53298,1
2,30680,30683,31734,61914,7126,-3888,-1076,-294,-992,58,33,196,482,-134,1,0,41,18,40,1,53298,1
2,30669,30689,31745,61915,7149,-6194,40,-840,-1789,422,-848,189,485,-123,1,0,41,18,80,1,53298,1
2,30637,30681,31708,61916,7171,-5306,-69,-39,1201,134,75,203,479,-125,1,0,41,18,120,1,53298,1
2,30624,30678,31689,61917,7193,-3807,-687,130,1576,-446,664,191,487,-127,1,0,41,18,160,1,53298,1
2,30653,30687,31708,61918,7217,-3452,-1165,-43,-504,-274,302,196,480,-132,1,0,41,18,200,1,53298,1
2,30671,30685,31738,61919,7239,-4703,-561,-756,-1462,311,-392,200,496,-140,1,0,41,18,240,1,53298,1
2,30656,30679,31717,61920,7262,-6308,-107,-462,-800,547,-731,192,480,-136,1,0,41,18,280,1,53298,1
2,30626,30677,31690,61921,7284,-4632,-252,102,2183,-93,465,182,482,-130,1,0,41,18,320,1,53298,1
2,30620,30680,31683,61922,7306,-3584,-906,133,930,-536,594,197,481,-125,1,0,41,18,360,1,53298,1
2,30651,30680,31712,61923,7328,-3536,-1252,-210,-1121,-103,154,191,489,-127,1,0,41,18,400,1,53298,1
2,30668,30682,31735,61924,7350,-5948,76,-1048,-1981,443,-829,198,496,-116,1,0,41,18,440,1,53298,1
2,30656,30681,31700,61925,7374,-5841,-7,-65,759,438,-261,192,488,-116,1,0,41,18,480,1,53298,1
2,30620,30673,31676,61926,7397,-3967,-472,186,2247,-353,691,193,485,-141,1,0,41,18,520,1,53298,1
2,30620,30681,31695,61927,7420,-3417,-1109,35,-64,-442,455,194,476,-128,1,0,41,18,560,1,53298,1
2,30654,30679,31725,61928,7443,-4326,-803,-624,-1727,130,-202,182,488,-120,1,0,41,18,600,1,53298,1
2,30647,30684,31720,61929,7466,-6369,-179,-689,-1601,480,-892,196,484,-132,1,0,41,18,640,1,53298,1
2,30619,30674,31683,61930,7487,-4881,-174,55,2118,12,329,199,485,-129,1,0,41,18,680,1,53298,1
2,30610,30677,31685,61931,7510,-3612,-819,159,1480,-511,670,198,488,-126,1,0,41,18,720,1,53298,1
2,30639,30681,31695,61932,7532,-3430,-1238,-114,-811,-151,241,197,477,-131,1,0,41,18,760,1,53298,1
2,30662,30681,31727,61933,7555,-5524,-84,-974,-1918,426,-697,194,492,-126,1,0,41,18,800,1,53298,1
2,30621,30674,31706,61934,7577,-6023,-34,-160,145,476,-437,192,486,-122,1,0,41,18,840,1,53298,1
2,30593,30667,31687,61935,7600,-4163,-370,167,2173,-299,595,191,485,-133,1,0,41,18,880,1,53298,1
2,30613,30671,31699,61936,7622,-3485,-1023,74,178,-512,457,190,490,-134,1,0,41,18,920,1,53298,1
2,30656,30679,31727,61937,7622,-4406,-810,-579,-1938,12,-193,199,483,-129,1,0,41,18,960,1,53298,1
1,30646,30672,31717,61938,6663,-5875,-262,-604,-1330,347,-609,183,479,-123,1,0,41,19,0,1,53298,1
2,30613,30668,31700,61939,6685,-4821,-254,-18,1563,79,215,203,483,-139,1,0,41,19,40,1,53298,1
2,30618,30669,31697,61940,6707,-3823,-789,66,1043,-300,434,191,487,-135,1,0,41,19,80,1,53298,1
2,30641,30672,31717,61941,6729,-3882,-993,-240,-684,-11,88,206,484,-126,1,0,41,19,120,1,53298,1
2,30655,30674,31721,61942,6751,-5287,-342,-638,-1290,366,-476,195,491,-127,1,0,41,19,160,1,53298,1
2,30639,30673,31712,61943,6774,-5307,-245,-180,613,248,-77,198,488,-128,1,0,41,19,200,1,53298,1
2,30640,30671,31706,61944,6796,-4385,-507,-52,1033,-193,328,194,488,-124,1,0,41,19,240,1,53298,1
2,30647,30674,31714,61945,6818,-4463,-629,-239,-455,-259,43,201,483,-123,1,0,41,19,280,1,53298,1
2,30641,30671,31708,61946,6839,-4634,-581,-297,-457,-86,-10,201,489,-129,1,0,41,19,320,1,53298,1
2,30655,30673,31721,61947,6861,-4639,-553,-221,178,45,32,194,486,-124,1,0,41,19,360,1,53298,1
2,30647,30680,31715,61948,6883,-5144,-275,-303,-319,-4,-121,200,482,-132,1,0,41,19,400,1,53298,1
2,30635,30681,31701,61949,6905,-4619,-498,-128,159,-154,152,192,482,-136,1,0,41,19,440,1,53298,1
2,30641,30685,31695,61950,6927,-4088,-714,-66,156,-187,267,198,486,-134,1,0,41,19,480,1,53298,1
2,30658,30683,31715,61951,6949,-3903,-1007,-219,-221,-23,141,193,485,-137,1,0,41,19,520,1,53298,1
2,30677,30685,31737,61952,6971,-5279,-241,-729,-756,340,-451,203,489,-133,1,0,41,19,560,1,53298,1
2,30665,30683,31713,61953,6993,-5664,-54,-104,336,266,-286,193,483,-125,1,0,41,19,600,1,53298,1
2,30633,30680,31690,61954,7015,-4213,-436,137,1210,-322,470,192,492,-132,1,0,41,19,640,1,53298,1
2,30626,30668,31699,61955,7037,-3608,-1064,-51,-286,-465,408,189,479,-137,1,0,41,19,680,1,53298,1
2,30682,30679,31730,61956,7060,-3936,-1128,-388,-1003,56,14,198,486,-124,1,0,41,19,720,1,53298,1
2,30675,30684,31726,61957,7083,-6422,73,-829,-1233,533,-896,196,492,-128,1,0,41,19,760,1,53298,1
2,30635,30678,31701,61958,7106,-5247,12,105,1912,159,176,197,485,-129,1,0,41,19,800,1,53298,1
2,30632,30675,31689,61959,7128,-3722,-719,205,1355,-516,685,190,488,-140,1,0,41,19,840,1,53298,1
2,30642,30665,31699,61960,7150,-3365,-1288,-100,-1105,-319,277,203,483,-141,1,0,41,19,880,1,53298,1
2,30682,30684,31741,61961,7172,-4758,-574,-955,-1621,319,-476,192,484,-124,1,0,41,19,920,1,53298,1
2,30664,30675,31729,61962,7172,-6470,-67,-416,-396,677,-758,192,484,-130,1,0,41,19,960,1,53298,1
1,30620,30670,31684,61963,6223,-4566,-157,205,2599,-39,511,193,487,-125,1,0,41,20,0,0,53298,1
2,30619,30660,31675,61964,6245,-3496,-925,173,780,-590,633,197,485,-129,1,0,41,20,40,0,53298,1
2,30669,30675,31723,61965,6267,-3415,-1409,-210,-1400,-186,182,184,484,-130,1,0,41,20,80,0,53298,1
2,30667,30676,31745,61966,6289,-6256,171,-1226,-2417,422,-952,199,489,-125,1,0,41,20,120,0,53298,1
2,30629,30665,31706,61967,6311,-5803,59,28,1349,391,-138,195,481,-131,1,0,41,20,160,0,53298,1
2,30611,30657,31666,61968,6332,-3814,-489,259,2446,-420,754,199,479,-127,1,0,41,20,200,0,53298,1
2,30630,30665,31691,61969,6354,-3289,-1224,71,-281,-433,434,193,489,-133,1,0,41,20,240,0,53298,1
2,30681,30674,31725,61970,6376,-4671,-548,-799,-2208,164,-413,192,494,-122,1,0,41,20,280,0,53298,1
2,30659,30666,31713,61971,6399,-6314,-202,-507,-1131,518,-728,196,482,-128,1,0,41,20,320,0,53298,1
2,30607,30659,31678,61972,6421,-4613,-240,93,2296,-23,435,198,484,-140,1,0,41,20,360,0,53298,1
2,30620,30647,31677,61973,6443,-3533,-927,152,1146,-485,592,198,482,-126,1,0,41,20,400,0,53298,1
2,30667,30665,31720,61974,6465,-3424,-1333,-164,-793,-76,211,204,490,-130,1,0,41,20,440,0,53298,1
2,30655,30667,31740,61975,6487,-6171,150,-1105,-2229,478,-923,190,488,-126,1,0,41,20,480,0,53298,1
2,30644,30664,31692,61976,6510,-5828,28,-36,922,375,-167,198,480,-122,1,0,41,20,520,0,53298,1
2,30602,30658,31669,61977,6533,-3876,-514,183,2148,-445,726,191,489,-127,1,0,41,20,560,0,53298,1
2,30620,30661,31684,61978,6555,-3340,-1166,36,-182,-436,415,195,481,-127,1,0,41,20,600,0,53298,1
2,30666,30664,31722,61979,6577,-3969,-919,-433,-1249,218,-98,192,486,-126,1,0,41,20,640,0,53298,1
2,30650,30668,31730,61980,6600,-6130,-163,-791,-1125,677,-781,181,489,-123,1,0,41,20,680,0,53298,1
2,30627,30659,31695,61981,6622,-5358,-54,0,1895,280,103,189,477,-129,1,0,41,20,720,0,53298,1
2,30618,30660,31687,61982,6645,-3967,-598,104,1484,-420,550,190,490,-126,1,0,41,20,760,0,53298,1
2,30635,30672,31699,61983,6669,-4040,-859,-261,-828,-290,158,193,481,-137,1,0,41,20,800,0,53298,1
2,30643,30671,31704,61984,6691,-5048,-489,-557,-1227,80,-283,196,484,-128,1,0,41,20,840,0,53298,1
2,30638,30665,31700,61985,6714,-5097,-330,-209,425,145,-79,190,480,-114,1,0,41,20,880,0,53298,1
2,30637,30658,31698,61986,6738,-4519,-459,-104,731,-83,181,191,481,-129,1,0,41,20,920,0,53298,1
2,30635,30656,31689,61987,6738,-4463,-612,-209,-339,-164,56,199,489,-129,1,0,41,20,960,0,53298,1
1,30645,30664,31710,61988,5783,-4478,-657,-258,-410,0,10,199,497,-131,1,0,41,21,0,1,53298,1
2,30642,30675,31712,61989,5807,-5281,-139,-527,-427,83,-171,199,491,-129,1,0,41,21,40,1,53298,1
2,30629,30685,31688,61990,5831,-5260,-244,-134,-314,-173,-60,187,479,-135,1,0,41,21,80,1,53298,1
2,30630,30682,31680,61991,5854,-3999,-655,44,723,-486,498,192,492,-128,1,0,41,21,120,1,53298,1
2,30616,30683,31681,61992,5878,-3620,-1026,-89,-279,-309,278,196,490,-126,1,0,41,21,160,1,53298,1
2,30672,30692,31724,61993,5902,-4070,-1048,-405,-629,177,-67,194,496,-118,1,0,41,21,200,1,53298,1
2,30658,30688,31725,61994,5926,-6336,63,-684,-1172,533,-867,193,487,-125,1,0,41,21,240,1,53298,1
2,30649,30689,31687,61995,5949,-5033,-70,129,1773,59,266,199,483,-133,1,0,41,21,280,1,53298,1
2,30599,30685,31672,61996,5972,-3659,-804,159,1097,-549,694,204,478,-132,1,0,41,21,320,1,53298,1
2,30655,30681,31704,61997,5995,-3155,-1435,-80,-712,-329,361,202,484,-134,1,0,41,21,360,1,53298,1
2,30668,30689,31736,61998,6018,-5458,-45,-1290,-1966,356,-764,191,493,-115,1,0,41,21,400,1,53298,1
2,30630,30679,31696,61999,6041,-6561,131,-127,283,667,-670,199,481,-135,1,0,41,21,440,1,53298,1
2,30600,30673,31660,62000,6064,-4068,-211,366,3179,-289,818,196,494,-132,1,0,41,21,480,1,53298,1
2,30581,30662,31673,62001,6087,-3248,-1148,219,425,-710,704,196,478,-130,1,0,41,21,520,1,53298,1
2,30648,30676,31705,62002,6110,-3296,-1620,-213,-1660,-220,127,193,483,-123,1,0,41,21,560,1,53298,1
2,30664,30679,31725,62003,6133,-6505,278,-1332,-2678,670,-1161,197,489,-117,1,0,41,21,600,1,53298,1
2,30611,30675,31684,62004,6157,-5932,167,90,1654,651,-212,188,478,-126,1,0,41,21,640,1,53298,1
2,30610,30658,31667,62005,6180,-3753,-511,296,2691,-394,848,190,480,-122,1,0,41,21,680,1,53298,1
2,30618,30662,31689,62006,6203,-3173,-1240,98,-382,-450,446,199,485,-127,1,0,41,21,720,1,53298,1
2,30672,30681,31731,62007,6227,-4804,-411,-947,-2411,107,-486,202,482,-130,1,0,41,21,760,1,53298,1
2,30644,30670,31701,62008,6250,-6510,-132,-446,-1237,531,-770,203,481,-131,1,0,41,21,800,1,53298,1
2,30594,30663,31660,62009,6273,-4466,-243,160,2444,-113,547,198,488,-130,1,0,41,21,840,1,53298,1
2,30581,30665,31655,62010,6296,-3360,-985,168,1238,-557,679,200,484,-130,1,0,41,21,880,1,53298,1
2,30658,30667,31717,62011,6320,-3270,-1579,-117,-747,-83,237,195,485,-135,1,0,41,21,920,1,53298,1
2,30669,30680,31725,62012,6320,-6590,372,-1199,-2833,608,-1191,199,495,-115,1,0,41,21,960,1,53298,1
1,30632,30666,31685,62013,5342,-5878,148,52,1243,374,-118,194,482,-126,1,0,41,22,0,0,53298,1
2,30578,30656,31657,62014,5364,-3692,-586,214,2351,-572,872,195,477,-129,1,0,41,22,40,0,53298,1
2,30635,30665,31679,62015,5387,-3080,-1341,84,-210,-483,499,198,472,-126,1,0,41,22,80,0,53298,1
2,30673,30677,31734,62016,5411,-4769,-422,-952,-2216,199,-462,200,480,-140,1,0,41,22,120,0,53298,1
2,30644,30675,31706,62017,5434,-6561,-126,-394,-1138,642,-774,188,484,-130,1,0,41,22,160,0,53298,1
2,30610,30665,31675,62018,5456,-4543,-235,135,2270,-68,513,190,486,-116,1,0,41,22,200,0,53298,1
2,30608,30657,31667,62019,5478,-3408,-1017,149,1043,-559,633,192,496,-124,1,0,41,22,240,0,53298,1
2,30670,30671,31714,62020,5502,-3501,-1363,-235,-933,-104,190,196,486,-136,1,0,41,22,280,0,53298,1
2,30664,30672,31725,62021,5525,-6463,144,-1025,-2468,495,-1003,200,486,-134,1,0,41,22,320,0,53298,1
2,30622,30669,31681,62022,5548,-5568,69,45,1286,222,43,194,478,-130,1,0,41,22,360,0,53298,1
2,30611,30657,31672,62023,5571,-3691,-674,146,1796,-519,753,193,491,-133,1,0,41,22,400,0,53298,1
2,30632,30664,31688,62024,5593,-3160,-1300,33,-308,-349,370,199,485,-127,1,0,41,22,440,0,53298,1
2,30669,30667,31735,62025,5615,-4808,-362,-930,-1620,323,-504,197,491,-131,1,0,41,22,480,0,53298,1
2,30651,30660,31699,62026,5637,-6567,-67,-363,-862,625,-755,197,491,-129,1,0,41,22,520,0,53298,1
2,30632,30656,31669,62027,5660,-4506,-240,150,2160,-137,535,200,484,-138,1,0,41,22,560,0,53298,1
2,30640,30647,31666,62028,5682,-3395,-1030,143,870,-578,619,190,488,-118,1,0,41,22,600,0,53298,1
2,30654,30662,31704,62029,5706,-3579,-1244,-241,-1087,-61,123,197,483,-127,1,0,41,22,640,0,53298,1
2,30671,30668,31722,62030,5728,-6345,83,-955,-2106,481,-933,191,481,-121,1,0,41,22,680,0,53298,1
2,30625,30663,31675,62031,5751,-5526,15,45,1292,246,14,198,486,-128,1,0,41,22,720,0,53298,1
2,30630,30658,31671,62032,5774,-3753,-674,144,1647,-434,657,195,485,-131,1,0,41,22,760,0,53298,1
2,30630,30659,31689,62033,5796,-3319,-1239,-9,-322,-290,330,187,481,-127,1,0,41,22,800,0,53298,1
2,30673,30664,31725,62034,5820,-4669,-476,-741,-1411,337,-405,198,486,-130,1,0,41,22,840,0,53298,1
2,30646,30659,31705,62035,5844,-6070,-137,-440,-370,605,-594,191,483,-129,1,0,41,22,880,0,53298,1
2,30611,30648,31684,62036,5868,-4797,-203,32,1820,21,288,198,482,-134,1,0,41,22,920,0,53298,1
2,30640,30647,31687,62037,5868,-3851,-798,37,718,-420,443,194,484,-128,1,0,41,22,960,0,53298,1
1,30675,30653,31714,62038,4903,-4381,-716,-397,-1174,-121,-48,193,487,-133,1,0,41,23,0,1,53298,1
2,30666,30650,31713,62039,4925,-5352,-366,-444,-808,103,-269,189,497,-127,1,0,41,23,40,1,53298,1
2,30649,30646,31699,62040,4948,-4786,-382,-106,735,-1,135,196,480,-128,1,0,41,23,80,1,53298,1
2,30662,30670,31699,62041,4971,-4595,-465,-186,265,-211,169,190,482,-128,1,0,41,23,120,1,53298,1
2,30652,30672,31696,62042,4995,-4739,-504,-199,-249,-260,128,194,486,-128,1,0,41,23,160,1,53298,1
2,30653,30672,31692,62043,5019,-4376,-647,-222,186,-187,242,200,484,-134,1,0,41,23,200,1,53298,1
2,30661,30674,31695,62044,5041,-4246,-787,-192,382,-45,177,194,490,-124,1,0,41,23,240,1,53298,1
2,30662,30679,31700,62045,5064,-5060,-330,-356,-235,29,-121,195,483,-127,1,0,41,23,280,1,53298,1
2,30661,30681,31689,62046,5087,-4761,-361,-99,390,-13,93,195,489,-135,1,0,41,23,320,1,53298,1
2,30657,30681,31691,62047,5109,-4106,-747,-18,266,-151,231,190,484,-120,1,0,41,23,360,1,53298,1
2,30654,30677,31705,62048,5132,-4407,-706,-368,-606,-67,38,203,473,-137,1,0,41,23,400,1,53298,1
2,30660,30680,31704,62049,5155,-5018,-440,-372,-251,55,-179,193,481,-131,1,0,41,23,440,1,53298,1
2,30663,30674,31703,62050,5178,-4728,-397,-99,704,57,31,198,482,-128,1,0,41,23,480,1,53298,1
2,30663,30661,31693,62051,5200,-4699,-407,-150,77,-123,81,192,482,-126,1,0,41,23,520,1,53298,1
2,30662,30666,31690,62052,5224,-4897,-378,-216,-709,-238,37,195,477,-125,1,0,41,23,560,1,53298,1
2,30635,30659,31687,62053,5246,-4423,-633,-159,-34,-254,252,197,481,-135,1,0,41,23,600,1,53298,1
2,30647,30665,31684,62054,5270,-3937,-912,-72,271,-87,215,186,490,-132,1,0,41,23,640,1,53298,1
2,30690,30671,31713,62055,5292,-4414,-729,-436,-259,203,-143,197,477,-133,1,0,41,23,680,1,53298,1
2,30656,30657,31703,62056,5314,-5815,7,-360,-494,331,-507,198,482,-138,1,0,41,23,720,1,53298,1
2,30645,30655,31681,62057,5336,-4689,-261,29,949,-101,294,196,486,-138,1,0,41,23,760,1,53298,1
2,30645,30660,31677,62058,5358,-3804,-893,20,125,-363,410,197,481,-135,1,0,41,23,800,1,53298,1
2,30674,30673,31699,62059,5381,-3583,-1260,-163,-710,-97,100,197,485,-127,1,0,41,23,840,1,53298,1
2,30672,30668,31706,62060,5403,-5941,191,-933,-1328,384,-721,196,490,-130,1,0,41,23,880,1,53298,1
2,30641,30651,31683,62061,5425,-5726,115,35,1133,264,-56,183,483,-121,1,0,41,23,920,1,53298,1
2,30626,30655,31669,62062,5425,-3905,-575,164,1416,-382,669,201,481,-117,1,0,41,23,960,1,53298,1
1,30647,30657,31674,62063,4463,-3383,-1229,18,-676,-337,320,194,484,-128,1,0,41,24,0,0,53298,1
2,30674,30677,31708,62064,4486,-4103,-956,-521,-1241,203,-222,192,492,-132,1,0,41,24,40,0,53298,1
2,30663,30669,31699,62065,4509,-6731,210,-756,-840,628,-920,190,482,-120,1,0,41,24,80,0,53298,1
2,30627,30656,31668,62066,4531,-5065,-7,164,2255,141,310,200,478,-132,1,0,41,24,120,0,53298,1
2,30619,30650,31668,62067,4554,-3559,-871,179,1096,-472,643,189,491,-129,1,0,41,24,160,0,53298,1
2,30667,30640,31692,62068,4576,-3297,-1338,-63,-1159,-177,169,198,486,-120,1,0,41,24,200,0,53298,1
2,30674,30666,31717,62069,4598,-5197,-199,-1104,-1619,400,-651,193,483,-121,1,0,41,24,240,0,53298,1
2,30641,30650,31702,62070,4621,-6422,18,-227,168,608,-595,200,478,-128,1,0,41,24,280,0,53298,1
2,30602,30632,31652,62071,4644,-4259,-271,226,2456,-173,598,191,479,-129,1,0,41,24,320,0,53298,1
