sensorStatus,cap1,cap2,cap3,counter,microseconds_since_last_tick,accX,accY,accZ,gyroX,gyroY,gyroZ,magnetX,magnetY,magnetZ,day,hour,min,sec,msec,sync,battery_fuel,crc_good
2,29703,30536,31648,58339,30689,-4122,852,-1177,25,10,14,43,461,-215,1,0,38,55,40,0,53298,1
2,29709,30532,31640,58340,30709,-4120,854,-1174,18,16,2,38,454,-212,1,0,38,55,80,0,53298,1
2,29702,30530,31646,58341,30730,-4104,857,-1168,7,9,7,43,465,-201,1,0,38,55,120,0,53298,1
2,29718,30537,31647,58342,30750,-4114,852,-1188,3,-6,12,40,464,-202,1,0,38,55,160,0,53298,1
2,29735,30534,31648,58343,30771,-4109,857,-1175,-24,-36,18,40,462,-204,1,0,38,55,200,0,53298,1
2,29735,30537,31645,58344,30792,-4123,852,-1187,-21,-50,21,43,461,-205,1,0,38,55,240,0,53298,1
2,29724,30539,31644,58345,30814,-4114,853,-1170,-11,-51,24,53,461,-213,1,0,38,55,280,0,53298,1
2,29754,30540,31650,58346,30835,-4130,842,-1159,-2,-9,41,47,463,-207,1,0,38,55,320,0,53298,1
2,29727,30537,31652,58347,30857,-4106,848,-1160,73,61,52,42,462,-208,1,0,38,55,360,0,53298,1
2,29747,30537,31660,58348,30879,-4124,855,-1172,133,143,46,50,458,-204,1,0,38,55,400,0,53298,1
2,29714,30535,31649,58349,30901,-4120,852,-1192,124,175,1,40,456,-208,1,0,38,55,440,0,53298,1
2,29757,30540,31643,58350,30923,-4109,846,-1212,65,118,-53,45,463,-209,1,0,38,55,480,0,53298,1
2,29768,30536,31650,58351,30945,-4110,843,-1202,-5,-6,-59,34,460,-212,1,0,38,55,520,0,53298,1
2,29771,30540,31643,58352,30967,-4117,844,-1191,-33,-123,-7,47,465,-213,1,0,38,55,560,0,53298,1
2,29772,30541,31649,58353,30988,-4120,849,-1164,-77,-161,67,41,463,-205,1,0,38,55,600,0,53298,1
2,29764,30540,31648,58354,31010,-4130,856,-1163,-106,-121,88,42,468,-208,1,0,38,55,640,0,53298,1
2,29757,30541,31648,58355,31032,-4105,867,-1165,-54,-58,60,29,459,-199,1,0,38,55,680,0,53298,1
2,29765,30547,31655,58356,31054,-4114,863,-1173,-16,-13,23,38,458,-212,1,0,38,55,720,0,53298,1
2,29759,30550,31657,58357,31075,-4119,844,-1183,-32,1,1,39,459,-215,1,0,38,55,760,0,53298,1
2,29746,30547,31660,58358,31098,-4120,845,-1176,-18,-24,28,43,467,-213,1,0,38,55,800,0,53298,1
2,29760,30549,31649,58359,31120,-4115,854,-1157,33,-43,60,36,470,-198,1,0,38,55,840,0,53298,1
2,29759,30552,31651,58360,31143,-4125,863,-1171,22,-8,72,43,461,-215,1,0,38,55,880,0,53298,1
2,29716,30545,31650,58361,31165,-4114,858,-1183,-18,28,49,45,457,-211,1,0,38,55,920,0,53298,1
2,29750,30544,31645,58362,31188,-4111,863,-1197,-23,43,25,41,463,-207,1,0,38,55,960,0,53298,1
1,29760,30547,31657,58363,0,-4110,864,-1183,37,16,13,37,455,-199,1,0,38,56,0,0,53298,1
2,29762,30549,31652,58364,30236,-4115,859,-1171,78,21,12,40,458,-204,1,0,38,56,40,0,53298,1
2,29756,30547,31649,58365,30259,-4111,863,-1173,49,54,-3,43,461,-211,1,0,38,56,80,0,53298,1
2,29761,30548,31649,58366,30281,-4118,856,-1182,32,66,-19,47,463,-203,1,0,38,56,120,0,53298,1
2,29766,30542,31646,58367,30303,-4105,851,-1184,38,37,-26,44,468,-202,1,0,38,56,160,0,53298,1
2,29756,30544,31654,58368,30325,-4103,851,-1196,11,-20,-13,45,457,-211,1,0,38,56,200,0,53298,1
2,29758,30543,31648,58369,30348,-4120,854,-1194,-31,-53,1,42,464,-208,1,0,38,56,240,0,53298,1
2,29762,30543,31658,58370,30371,-4123,856,-1165,-21,-66,18,45,457,-211,1,0,38,56,280,0,53298,1
2,29766,30543,31661,58371,30393,-4110,866,-1173,-28,-44,28,54,464,-212,1,0,38,56,320,0,53298,1
2,29757,30547,31660,58372,30415,-4120,844,-1182,-35,-17,36,39,461,-205,1,0,38,56,360,0,53298,1
2,29750,30543,31660,58373,30436,-4122,850,-1167,12,-13,61,41,459,-203,1,0,38,56,400,0,53298,1
2,29760,30547,31659,58374,30458,-4121,856,-1172,24,2,55,34,462,-198,1,0,38,56,440,0,53298,1
2,29763,30550,31660,58375,30479,-4108,854,-1182,4,14,40,38,462,-210,1,0,38,56,480,0,53298,1
2,29755,30548,31660,58376,30501,-4108,859,-1184,16,12,20,47,457,-217,1,0,38,56,520,0,53298,1
2,29751,30547,31659,58377,30523,-4115,852,-1193,28,11,-1,36,464,-210,1,0,38,56,560,0,53298,1
2,29751,30543,31654,58378,30545,-4125,849,-1186,3,10,-1,46,464,-196,1,0,38,56,600,0,53298,1
2,29736,30548,31641,58379,30568,-4109,853,-1172,3,-7,11,40,458,-214,1,0,38,56,640,0,53298,1
2,29755,30543,31645,58380,30590,-4117,847,-1173,5,-9,24,45,453,-205,1,0,38,56,680,0,53298,1
2,29748,30534,31647,58381,30613,-4115,863,-1186,13,-3,25,51,465,-211,1,0,38,56,720,0,53298,1
2,29750,30533,31644,58382,30636,-4107,858,-1190,9,4,19,38,462,-208,1,0,38,56,760,0,53298,1
2,29752,30541,31644,58383,30658,-4122,849,-1173,9,6,23,42,462,-210,1,0,38,56,800,0,53298,1
2,29741,30536,31655,58384,30680,-4106,863,-1194,5,-14,23,37,463,-213,1,0,38,56,840,0,53298,1
2,29741,30543,31653,58385,30704,-4106,864,-1197,-5,-21,33,44,464,-202,1,0,38,56,880,0,53298,1
2,29756,30539,31651,58386,30726,-4117,865,-1178,-5,-19,22,42,462,-208,1,0,38,56,920,0,53298,1
2,29745,30540,31649,58387,30749,-4115,851,-1188,-7,-10,17,43,461,-213,1,0,38,56,960,0,53298,1
1,29740,30545,31654,58388,0,-4120,861,-1169,0,-9,3,47,471,-203,1,0,38,57,0,0,53298,1
2,29732,30552,31648,58389,29785,-4117,858,-1187,-26,-20,-1,46,458,-216,1,0,38,57,40,0,53298,1
2,29748,30282,31652,58390,29809,-4157,869,-1154,-92,-74,28,45,457,-213,1,0,38,57,80,0,53298,1
2,29793,30074,31612,58391,29835,-4430,849,-846,-324,-702,307,40,460,-210,1,0,38,57,120,0,53298,1
2,29850,32497,31486,58392,29860,-4178,941,-972,747,-914,8,41,467,-201,1,0,38,57,160,0,53298,1
2,29969,31675,31589,58393,29885,-3835,872,-1455,139,-367,-88,45,461,-211,1,0,38,57,200,0,53298,1
2,29933,33655,31471,58394,29909,-4030,815,-1316,-35,160,9,38,460,-208,1,0,38,57,240,0,53298,1
2,29997,30463,31489,58395,29935,-4094,877,-1223,480,319,62,46,452,-214,1,0,38,57,280,0,53298,1
2,29935,32001,31474,58396,29958,-3996,852,-1378,267,395,27,34,462,-206,1,0,38,57,320,0,53298,1
2,29884,32127,31470,58397,29982,-4106,718,-1391,-938,822,-337,38,466,-202,1,0,38,57,360,0,53298,1
2,29920,31998,31585,58398,30005,-4267,905,-1024,-3872,1348,-2267,54,468,-208,1,0,38,57,400,0,53298,1
2,29932,32187,31879,58399,30027,-4237,923,-875,-3206,298,-2023,54,462,-210,1,0,38,57,440,0,53298,1
2,30015,31273,32054,58400,30050,-4050,882,-1140,-3313,225,-1539,53,463,-213,1,0,38,57,480,0,53298,1
2,29736,30997,31744,58401,30073,-4020,556,-1078,-1971,-16,-922,54,474,-208,1,0,38,57,520,0,53298,1
2,30080,31484,32142,58402,30095,-4074,586,-1112,-706,24,-402,50,464,-202,1,0,38,57,560,0,53298,1
2,30351,30889,32415,58403,30118,-4344,1038,-1261,-1104,34,-420,60,460,-196,1,0,38,57,600,0,53298,1
2,30359,30681,32568,58404,30141,-4453,935,-883,-1194,-315,-299,61,471,-201,1,0,38,57,640,0,53298,1
2,30310,30306,32457,58405,30165,-4074,917,-852,-554,-697,210,57,467,-189,1,0,38,57,680,0,53298,1
2,30221,31677,32323,58406,30189,-3919,637,-996,-1151,-659,322,60,460,-208,1,0,38,57,720,0,53298,1
2,30119,32960,32251,58407,30213,-4039,561,-1137,-1972,-21,-73,73,465,-207,1,0,38,57,760,0,53298,1
2,29946,32845,32135,58408,30236,-3849,398,-1028,-410,269,85,58,460,-200,1,0,38,57,800,0,53298,1
2,29683,32887,32010,58409,30260,-3538,15,-855,3466,30,1357,51,461,-197,1,0,38,57,840,0,53298,1
2,29570,30184,31815,58410,30283,-5580,2708,-2276,4302,432,2691,60,466,-206,1,0,38,57,880,0,53298,1
2,29636,30012,31761,58411,30306,-4655,869,-276,4489,-1871,960,50,458,-204,1,0,38,57,920,0,53298,1
2,29641,30295,31779,58412,30330,-3675,571,-1362,-347,-838,-257,47,457,-211,1,0,38,57,960,0,53298,1
1,29784,30531,31740,58413,0,-4824,457,-1330,-239,46,-169,50,466,-198,1,0,38,58,0,0,53298,1
2,29881,30667,31766,58414,29335,-3920,1317,-797,1801,-285,-341,53,467,-211,1,0,38,58,40,0,53298,1
2,29746,30371,31696,58415,29360,-3553,1108,-1283,773,34,-178,41,471,-201,1,0,38,58,80,0,53298,1
2,29747,30784,31702,58416,29384,-3904,1086,-1127,1317,129,423,47,463,-201,1,0,38,58,120,0,53298,1
2,29828,30127,31729,58417,29408,-3717,1532,-942,415,164,887,39,457,-199,1,0,38,58,160,0,53298,1
2,29785,30763,31680,58418,29432,-3994,1108,-1128,-300,40,1895,50,456,-210,1,0,38,58,200,0,53298,1
2,29747,31231,31651,58419,29455,-5416,-1027,-1692,-1311,1013,607,43,461,-197,1,0,38,58,240,0,53298,1
2,29877,31267,31663,58420,29479,-5695,1142,36,831,-1628,-396,46,454,-210,1,0,38,58,280,0,53298,1
2,29700,31212,31567,58421,29504,-2782,943,-1513,-1826,-604,-2154,58,462,-208,1,0,38,58,320,0,53298,1
2,29984,33450,31823,58422,29529,-3322,1330,-1502,-466,-56,-172,53,467,-199,1,0,38,58,360,0,53298,1
2,30011,33325,31782,58423,29554,-4314,849,-971,1127,215,878,46,468,-198,1,0,38,58,400,0,53298,1
2,30048,31115,31785,58424,29579,-4221,872,-1083,497,386,465,47,465,-209,1,0,38,58,440,0,53298,1
2,29905,33935,31804,58425,29603,-3827,1102,-1274,835,179,472,52,464,-210,1,0,38,58,480,0,53298,1
2,29925,32770,31838,58426,29627,-4157,483,-1176,380,251,997,46,452,-212,1,0,38,58,520,0,53298,1
2,29910,32737,31806,58427,29651,-5249,418,-435,-466,-90,193,49,463,-205,1,0,38,58,560,0,53298,1
2,29894,32740,31743,58428,29676,-3594,1221,-1133,28,-849,-817,51,469,-195,1,0,38,58,600,0,53298,1
2,29885,32767,31723,58429,29700,-3655,954,-1472,-225,33,73,48,460,-210,1,0,38,58,640,0,53298,1
2,29888,32839,31733,58430,29724,-4972,599,-984,202,153,282,46,458,-202,1,0,38,58,680,0,53298,1
2,29913,32938,31712,58431,29748,-3927,1156,-936,51,-43,-633,53,457,-207,1,0,38,58,720,0,53298,1
2,29921,32864,31708,58432,29773,-3640,972,-1354,151,96,-87,45,469,-201,1,0,38,58,760,0,53298,1
2,29959,31727,31789,58433,29797,-3960,997,-1385,666,389,621,44,458,-198,1,0,38,58,800,0,53298,1
2,29905,32624,31761,58434,29820,-4446,1309,-1079,-2127,869,-995,54,458,-208,1,0,38,58,840,0,53298,1
2,29908,33265,31815,58435,29842,-4777,771,-436,-3947,147,-1886,51,461,-201,1,0,38,58,880,0,53298,1
2,30010,31145,31868,58436,29865,-4406,550,-790,-2439,-660,-469,51,475,-205,1,0,38,58,920,0,53298,1
2,30034,30899,31900,58437,29888,-4143,1028,-1152,-4289,-821,-640,56,462,-200,1,0,38,58,960,0,53298,1
1,30003,31104,31880,58438,0,-4125,480,-743,-5688,-993,-937,67,463,-193,1,0,38,59,0,1,53298,1
2,29997,31293,31864,58439,28882,-3887,403,-932,-3998,-933,-1122,70,456,-190,1,0,38,59,40,1,53298,1
2,29896,31146,31823,58440,28904,-3986,249,-1057,-2003,-742,-1223,69,477,-187,1,0,38,59,80,1,53298,1
2,29920,31158,31836,58441,28926,-4012,1929,-1446,-1513,438,-1375,66,458,-178,1,0,38,59,120,1,53298,1
2,29890,31173,31819,58442,28950,-4524,671,-587,879,171,47,65,465,-195,1,0,38,59,160,1,53298,1
2,29831,31128,31803,58443,28973,-4287,510,-700,1771,-23,190,66,464,-196,1,0,38,59,200,1,53298,1
2,30082,32423,31820,58444,28996,-4172,446,-917,694,-70,-470,69,465,-187,1,0,38,59,240,1,53298,1
2,30411,32370,31849,58445,29020,-4461,19,-82,478,-492,-1548,73,471,-183,1,0,38,59,280,1,53298,1
2,30089,30149,31824,58446,29046,-4151,2422,-1527,1773,-887,-1095,67,479,-185,1,0,38,59,320,1,53298,1
2,30026,33435,31829,58447,29072,-3834,877,-830,5581,-450,1278,66,470,-192,1,0,38,59,360,1,53298,1
2,30018,33801,31863,58448,29097,-4135,859,-629,5274,72,1716,60,472,-190,1,0,38,59,400,1,53298,1
2,30019,32504,31823,58449,29122,-4159,953,-945,2595,292,1199,66,466,-198,1,0,38,59,440,1,53298,1
2,30047,31785,31789,58450,29146,-4299,1298,-652,-77,196,891,62,464,-196,1,0,38,59,480,1,53298,1
2,30084,30932,31808,58451,29171,-4316,427,-890,-3959,42,699,55,457,-187,1,0,38,59,520,1,53298,1
2,30091,33779,31811,58452,29197,-5098,-425,-2583,-6018,93,-1208,69,475,-195,1,0,38,59,560,1,53298,1
2,30208,32506,31841,58453,29224,-3975,1645,-427,3094,-357,-681,65,457,-199,1,0,38,59,600,1,53298,1
2,30244,32468,31864,58454,29251,-3698,770,-1594,2680,-277,118,64,462,-192,1,0,38,59,640,1,53298,1
2,29338,33417,32053,58455,29279,-4916,-449,-1769,6178,756,-316,53,477,-199,1,0,38,59,680,1,53298,1
2,30366,32616,31861,58456,29308,-4375,2329,1273,15801,-1924,1699,48,480,-200,1,0,38,59,720,1,53298,1
2,30806,33029,32107,58457,29336,-3183,1246,-2742,1750,-1638,381,54,460,-200,1,0,38,59,760,1,53298,1
2,30697,34249,32138,58458,29365,-4571,111,-1505,-7790,2079,-1218,55,471,-205,1,0,38,59,800,1,53298,1
2,30593,32279,31779,58459,29394,-4734,1297,1033,-6900,735,-1075,61,473,-201,1,0,38,59,840,1,53298,1
2,30781,30182,31763,58460,29423,-3440,2029,-1432,-7950,-968,-99,72,468,-190,1,0,38,59,880,1,53298,1
2,31189,30390,31785,58461,29450,-4307,-1939,-3192,-11931,1351,-682,67,477,-179,1,0,38,59,920,1,53298,1
2,31280,30224,31809,58462,29479,-4590,1894,691,939,4,29,59,465,-195,1,0,38,59,960,1,53298,1
1,31274,30773,31830,58463,0,-3868,842,-1274,1004,-935,361,75,471,-191,1,0,39,0,0,0,53298,1
2,31361,30236,31856,58464,28433,-5041,-1184,-2238,-977,524,-304,80,468,-188,1,0,39,0,40,0,53298,1
2,31129,30212,31858,58465,28462,-4294,896,-492,4920,530,-482,63,479,-189,1,0,39,0,80,0,53298,1
2,31221,31086,31802,58466,28492,-2663,3172,736,11622,-2944,1548,59,469,-189,1,0,39,0,120,0,53298,1
2,31305,30106,31896,58467,28520,-3816,-49,-3411,-563,-209,752,66,468,-194,1,0,39,0,160,0,53298,1
2,31253,30470,31893,58468,28548,-4794,1148,89,-2081,2157,-624,59,471,-187,1,0,39,0,200,0,53298,1
2,31269,30085,31886,58469,28576,-3589,1907,-160,-843,-219,-83,72,466,-188,1,0,39,0,240,0,53298,1
2,31224,30056,31829,58470,28602,-5276,-43,-2053,-5271,266,263,68,468,-200,1,0,39,0,280,0,53298,1
2,31279,30057,31896,58471,28630,-4734,351,-541,-3381,916,-635,72,468,-186,1,0,39,0,320,0,53298,1
2,31276,30082,31861,58472,28657,-3458,2158,73,3798,-1596,209,70,466,-180,1,0,39,0,360,0,53298,1
2,30770,30031,31751,58473,28684,-3723,-357,-2562,-2100,206,490,67,463,-197,1,0,39,0,400,0,53298,1
2,30830,30052,31786,58474,28710,-5262,398,-500,3291,577,447,62,474,-190,1,0,39,0,440,0,53298,1
2,30817,30024,31775,58475,28737,-4212,1920,827,5088,-499,230,58,470,-192,1,0,39,0,480,0,53298,1
2,30862,30210,31785,58476,28764,-3803,999,-2153,-243,-963,476,65,463,-189,1,0,39,0,520,0,53298,1
2,30810,30168,31815,58477,28789,-4802,-692,-1845,-4543,1606,-700,62,470,-190,1,0,39,0,560,0,53298,1
2,30878,30166,31835,58478,28816,-4857,1247,759,2378,818,-668,67,479,-197,1,0,39,0,600,0,53298,1
2,31305,30177,31894,58479,28843,-3449,1300,-1106,5160,-2445,1278,65,473,-187,1,0,39,0,640,0,53298,1
2,31350,30260,31904,58480,28869,-3525,1080,-2578,-4329,673,144,58,466,-182,1,0,39,0,680,0,53298,1
2,31381,30221,31922,58481,28895,-5190,181,-229,-4298,1728,-516,60,484,-186,1,0,39,0,720,0,53298,1
2,31367,30244,31909,58482,28921,-4221,1514,278,719,-485,-58,64,466,-176,1,0,39,0,760,0,53298,1
2,31377,30263,31893,58483,28947,-3566,903,-1997,-1210,-545,277,69,467,-193,1,0,39,0,800,0,53298,1
2,31399,30250,31903,58484,28972,-4612,-9,-1652,-1131,432,416,71,467,-187,1,0,39,0,840,0,53298,1
2,31397,30239,31930,58485,28997,-4711,1194,180,1062,300,-107,63,459,-193,1,0,39,0,880,0,53298,1
2,31390,30256,31915,58486,29021,-3733,1122,-867,553,-703,81,74,462,-200,1,0,39,0,920,0,53298,1
2,31411,30250,31914,58487,29047,-4195,171,-1805,-1277,135,103,61,463,-181,1,0,39,0,960,0,53298,1
1,31403,30240,31917,58488,0,-4482,1182,-87,1700,7,151,63,467,-185,1,0,39,1,0,0,53298,1
2,31396,30255,31913,58489,27980,-4040,851,-988,213,-317,109,61,461,-191,1,0,39,1,40,0,53298,1
2,31415,30266,31930,58490,28006,-4328,99,-1696,-1071,317,-130,68,460,-196,1,0,39,1,80,0,53298,1
2,31421,30273,31969,58491,28032,-4466,653,-741,2438,523,-467,66,466,-196,1,0,39,1,120,0,53298,1
2,31400,30265,31948,58492,28059,-3822,2157,472,7049,-1341,781,57,467,-185,1,0,39,1,160,0,53298,1
2,31418,30293,31953,58493,28086,-3823,616,-2596,-1243,-390,340,62,468,-196,1,0,39,1,200,0,53298,1
2,31402,30303,31965,58494,28111,-4721,164,-825,-3076,1560,-628,61,465,-201,1,0,39,1,240,0,53298,1
2,31401,30285,31979,58495,28138,-4601,1174,268,1174,387,-419,64,474,-202,1,0,39,1,280,0,53298,1
2,31430,30290,31973,58496,28164,-3681,1044,-1248,2513,-1532,897,56,464,-190,1,0,39,1,320,0,53298,1
2,31446,30298,31961,58497,28190,-3911,821,-1893,-2772,387,524,62,470,-192,1,0,39,1,360,0,53298,1
2,31445,30295,31980,58498,28215,-5149,-102,-705,-3412,1117,-448,62,462,-196,1,0,39,1,400,0,53298,1
2,31432,30278,31974,58499,28240,-4252,1441,163,1336,-269,-359,63,463,-187,1,0,39,1,440,0,53298,1
2,31437,30263,31970,58500,28266,-3579,912,-1694,1261,-1180,570,64,466,-186,1,0,39,1,480,0,53298,1
2,31430,30267,31964,58501,28291,-4336,273,-1552,-1702,790,66,68,464,-192,1,0,39,1,520,0,53298,1
2,31427,30190,31972,58502,28316,-4059,1526,-182,783,351,54,65,467,-185,1,0,39,1,560,0,53298,1
2,31478,30333,32039,58503,28340,-4368,-97,-921,-307,-25,808,65,463,-183,1,0,39,1,600,0,53298,1
2,31460,31386,31959,58504,28365,-5071,812,-1185,-737,148,-320,68,460,-192,1,0,39,1,640,0,53298,1
2,31516,30573,32089,58505,28390,-3597,1219,-995,-711,269,-1216,74,466,-194,1,0,39,1,680,0,53298,1
2,31497,30833,32098,58506,28414,-3709,1315,-858,1721,-64,188,68,462,-188,1,0,39,1,720,0,53298,1
2,31532,30308,32129,58507,28439,-4039,811,-1218,423,417,593,68,468,-196,1,0,39,1,760,0,53298,1
2,31599,30155,32171,58508,28462,-4412,866,-816,307,110,683,68,466,-192,1,0,39,1,800,0,53298,1
2,31644,30280,32225,58509,28486,-4160,1001,-798,-277,-121,642,66,470,-194,1,0,39,1,840,0,53298,1
2,31676,30655,32240,58510,28508,-4319,55,-1360,-1377,2,444,56,462,-196,1,0,39,1,880,0,53298,1
2,31680,30793,32264,58511,28532,-4410,792,-708,-3,85,-210,71,465,-201,1,0,39,1,920,0,53298,1
2,31677,30714,32267,58512,28555,-3965,1054,-876,1145,-415,-171,65,465,-203,1,0,39,1,960,0,53298,1
1,31684,30735,32262,58513,0,-4057,717,-1136,-153,226,223,58,464,-190,1,0,39,2,0,1,53298,1
2,31669,30865,32271,58514,27528,-4997,340,-942,140,-127,-35,51,465,-187,1,0,39,2,40,1,53298,1
2,31614,30777,32220,58515,27551,-3900,1082,-584,-111,80,-1028,67,463,-195,1,0,39,2,80,1,53298,1
2,31583,30747,32183,58516,27575,-3580,1199,-1200,439,-198,-110,64,468,-188,1,0,39,2,120,1,53298,1
2,31592,30700,32180,58517,27599,-4816,451,-1212,65,85,536,64,466,-182,1,0,39,2,160,1,53298,1
2,31554,30808,32157,58518,27622,-4013,1121,-533,-752,333,-605,66,466,-194,1,0,39,2,200,1,53298,1
2,31545,30806,32138,58519,27645,-3785,987,-1095,-639,72,-108,73,461,-195,1,0,39,2,240,1,53298,1
2,31574,30811,32159,58520,27667,-4190,735,-1014,18,111,781,68,464,-204,1,0,39,2,280,1,53298,1
2,31582,30816,32164,58521,27690,-4506,593,-917,40,-20,609,71,463,-197,1,0,39,2,320,1,53298,1
2,31503,30783,32137,58522,27714,-4107,896,-980,-430,-16,-16,72,460,-190,1,0,39,2,360,1,53298,1
2,31553,30795,32160,58523,27737,-4265,215,-991,-306,2,103,65,455,-181,1,0,39,2,400,1,53298,1
2,31573,30821,32190,58524,27761,-4310,867,-772,-166,16,-462,62,468,-178,1,0,39,2,440,1,53298,1
2,31557,30817,32168,58525,27784,-3915,1045,-1083,168,-229,-181,66,458,-188,1,0,39,2,480,1,53298,1
2,31554,30822,32169,58526,27807,-4254,412,-900,73,41,416,59,469,-189,1,0,39,2,520,1,53298,1
2,31560,30819,32174,58527,27831,-4356,752,-748,293,-66,-45,72,462,-184,1,0,39,2,560,1,53298,1
2,31546,30808,32163,58528,27854,-3945,1005,-1021,222,-132,-305,62,458,-196,1,0,39,2,600,1,53298,1
2,31545,30779,32160,58529,27877,-4046,934,-1136,46,188,151,74,452,-192,1,0,39,2,640,1,53298,1
2,31539,30767,32169,58530,27900,-5055,511,-1000,-18,68,70,71,457,-189,1,0,39,2,680,1,53298,1
2,31527,30753,32147,58531,27922,-3850,1189,-754,-3,-51,-502,70,470,-190,1,0,39,2,720,1,53298,1
2,31469,30726,32104,58532,27944,-3916,835,-1098,-383,102,107,68,460,-186,1,0,39,2,760,1,53298,1
2,31435,30712,32062,58533,27967,-5104,531,-892,-258,-97,143,61,465,-195,1,0,39,2,800,1,53298,1
2,31416,30759,32042,58534,27989,-3972,1022,-934,-881,-21,-564,59,469,-193,1,0,39,2,840,1,53298,1
2,30656,30541,31879,58535,28012,-3541,1179,-1119,-381,38,-145,69,461,-193,1,0,39,2,880,1,53298,1
2,30587,30564,31837,58536,28035,-4186,946,-1062,325,184,743,64,464,-186,1,0,39,2,920,1,53298,1
2,31405,30575,32047,58537,28059,-4843,348,-947,477,150,624,57,467,-179,1,0,39,2,960,1,53298,1
1,30598,30476,31919,58538,0,-3925,1037,-802,-85,-44,-275,67,455,-191,1,0,39,3,0,1,53298,1
2,30578,30438,31950,58539,27076,-4107,614,-1061,-409,24,16,67,459,-191,1,0,39,3,40,1,53298,1
2,30610,30411,31950,58540,27099,-4514,775,-825,41,-79,79,69,463,-191,1,0,39,3,80,1,53298,1
2,30636,30533,31948,58541,27121,-4025,961,-1073,-78,-163,-184,64,464,-188,1,0,39,3,120,1,53298,1
2,30603,30571,31954,58542,27144,-4338,815,-985,-953,229,-276,78,460,-188,1,0,39,3,160,1,53298,1
2,30640,30590,31964,58543,27167,-4681,637,-1046,-4021,627,-1202,80,466,-194,1,0,39,3,200,1,53298,1
2,30570,30496,31968,58544,27188,-5047,93,-561,-5169,-266,-2183,75,467,-185,1,0,39,3,240,1,53298,1
2,30171,30719,31883,58545,27211,-4820,-1429,-88,-5017,-1638,-3634,86,462,-178,1,0,39,3,280,1,53298,1
2,30194,30417,31903,58546,27233,-4190,352,-851,-4270,-2684,-6329,94,480,-172,1,0,39,3,320,1,53298,1
2,30365,30743,32008,58547,27255,-3254,3261,-1568,-1501,-1213,-5182,111,475,-173,1,0,39,3,360,1,53298,1
2,30302,30784,31948,58548,27277,-3877,817,-561,965,245,-340,102,474,-168,1,0,39,3,400,1,53298,1
2,30271,30777,31939,58549,27298,-4390,-67,-48,2023,783,1053,107,469,-165,1,0,39,3,440,1,53298,1
2,30346,30679,32093,58550,27319,-4332,407,-642,-7,573,63,94,466,-174,1,0,39,3,480,1,53298,1
2,30390,30673,32099,58551,27342,-4412,753,-933,-1694,1069,-347,102,478,-170,1,0,39,3,520,1,53298,1
2,30023,30139,31677,58552,27364,-4804,686,-1090,-823,850,-210,103,479,-175,1,0,39,3,560,1,53298,1
2,30544,30854,32301,58553,27386,-4533,383,-764,1925,413,253,101,483,-173,1,0,39,3,600,1,53298,1
2,30513,30833,32312,58554,27408,-4090,399,-551,2824,143,421,113,473,-183,1,0,39,3,640,1,53298,1
2,30602,30851,32344,58555,27430,-4069,375,-626,1114,162,157,100,478,-176,1,0,39,3,680,1,53298,1
2,30566,30766,32348,58556,27453,-4233,178,-775,299,247,146,96,484,-176,1,0,39,3,720,1,53298,1
2,30701,30289,32545,58557,27474,-5081,984,-1465,-1097,565,-601,96,480,-170,1,0,39,3,760,1,53298,1
2,30708,30741,32486,58558,27497,-4606,519,-626,2653,371,-104,103,483,-183,1,0,39,3,800,1,53298,1
2,30253,30453,32177,58559,27519,-3772,429,-332,3683,-153,529,92,490,-182,1,0,39,3,840,1,53298,1
2,30153,30585,31998,58560,27542,-3500,-174,-441,920,-188,398,92,488,-180,1,0,39,3,880,1,53298,1
2,30307,30574,32290,58561,27565,-4122,280,-1192,-2101,364,-11,91,479,-189,1,0,39,3,920,1,53298,1
2,29896,30744,32225,58562,27588,-4572,376,-1130,-1268,757,-54,100,486,-188,1,0,39,3,960,1,53298,1
1,30362,30811,32345,58563,0,-5581,1407,-1340,-339,581,-424,101,483,-185,1,0,39,4,0,1,53298,1
2,30206,30737,32232,58564,26625,-4661,597,-388,2748,-284,57,98,488,-180,1,0,39,4,40,1,53298,1
2,30184,30671,32156,58565,26648,-3466,291,-365,2587,-871,731,87,477,-187,1,0,39,4,80,1,53298,1
2,30178,30691,32151,58566,26671,-3616,-127,-801,-655,-426,344,94,482,-190,1,0,39,4,120,1,53298,1
2,30222,30797,32214,58567,26694,-4792,599,-1586,-3168,622,-494,95,465,-179,1,0,39,4,160,1,53298,1
2,30180,30782,32184,58568,26717,-4751,738,-584,1293,544,-93,98,480,-180,1,0,39,4,200,1,53298,1
2,30126,30752,32095,58569,26740,-3795,147,-441,2207,-206,478,81,481,-179,1,0,39,4,240,1,53298,1
2,30164,30699,32103,58570,26762,-4679,734,-1363,-1704,-51,-237,96,478,-168,1,0,39,4,280,1,53298,1
2,30182,30605,32102,58571,26785,-4849,588,-624,4,-304,-42,94,478,-186,1,0,39,4,320,1,53298,1
2,30096,34527,32122,58572,26808,-3991,307,137,1640,-1399,997,96,482,-186,1,0,39,4,360,1,53298,1
2,30182,30472,32007,58573,26832,-3998,-600,252,-2129,-2497,514,92,476,-174,1,0,39,4,400,1,53298,1
2,30024,30262,32075,58574,26855,-5562,-558,-245,-10467,-3922,-2232,118,474,-170,1,0,39,4,440,1,53298,1
2,29888,30641,32106,58575,26877,-6194,-704,-540,-10100,-4732,-6527,139,479,-157,1,0,39,4,480,1,53298,1
2,29864,30828,32030,58576,26900,-5436,-753,161,-3496,-6616,-9079,157,473,-137,1,0,39,4,520,1,53298,1
2,29883,30545,31951,58577,26924,-4629,-742,260,-1457,-7820,-10917,186,466,-132,1,0,39,4,560,1,53298,1
2,29914,30700,31904,58578,26948,-3741,382,-408,-1053,-7265,-12034,208,466,-118,1,0,39,4,600,1,53298,1
2,29919,30648,31893,58579,26972,-3379,1927,-903,924,-5214,-9815,226,462,-102,1,0,39,4,640,1,53298,1
2,30027,30740,31906,58580,26996,-2979,2989,-1761,1637,-1817,-4500,215,467,-111,1,0,39,4,680,1,53298,1
2,30115,30428,31967,58581,27020,-5403,-466,-426,2337,1865,1181,217,471,-109,1,0,39,4,720,1,53298,1
2,30160,30149,32023,58582,27045,-7111,-1855,-9,-871,2131,-181,219,457,-113,1,0,39,4,760,1,53298,1
2,30044,31834,31828,58583,27068,-4675,11,-164,1520,399,-515,213,477,-105,1,0,39,4,800,1,53298,1
2,30121,34425,31962,58584,27092,-3750,-830,167,3297,-536,537,214,470,-100,1,0,39,4,840,1,53298,1
2,30161,30989,31831,58585,27116,-5306,-566,-100,1961,-402,-98,219,473,-105,1,0,39,4,880,1,53298,1
2,30148,30302,31837,58586,27141,-4715,-510,137,2111,304,-206,215,475,-115,1,0,39,4,920,1,53298,1
2,29933,30209,31785,58587,27164,-3703,-682,537,3721,561,364,220,476,-120,1,0,39,4,960,1,53298,1
1,29877,30416,31756,58588,0,-3863,-798,567,1949,648,-13,212,480,-110,1,0,39,5,0,1,53298,1
2,29925,30235,31782,58589,26175,-4982,-144,144,-945,758,-608,213,481,-113,1,0,39,5,40,1,53298,1
2,30005,30586,31881,58590,26198,-5066,-362,-16,-1064,380,-59,210,474,-118,1,0,39,5,80,1,53298,1
2,29979,30132,31866,58591,26221,-4710,-533,-124,-998,52,183,214,478,-114,1,0,39,5,120,1,53298,1
2,29959,30286,31863,58592,26244,-4143,-948,56,-251,-194,466,211,469,-111,1,0,39,5,160,1,53298,1
2,29951,30717,31889,58593,26267,-4255,-934,-89,-110,-139,238,217,475,-127,1,0,39,5,200,1,53298,1
2,30026,30730,31935,58594,26289,-5093,-373,-152,-396,156,-260,220,476,-120,1,0,39,5,240,1,53298,1
2,30064,30736,31958,58595,26312,-4656,-456,140,743,-18,217,221,475,-113,1,0,39,5,280,1,53298,1
2,30070,30732,31933,58596,26336,-4117,-928,138,665,-199,344,224,474,-122,1,0,39,5,320,1,53298,1
2,30190,30688,31944,58597,26359,-5185,-203,-246,-1092,-88,-383,215,473,-119,1,0,39,5,360,1,53298,1
2,30257,30719,31933,58598,26382,-4684,-575,111,201,-67,88,216,472,-126,1,0,39,5,400,1,53298,1
2,30035,30725,31901,58599,26405,-3825,-885,151,1002,-84,291,217,479,-111,1,0,39,5,440,1,53298,1
2,30009,30714,31879,58600,26427,-3673,-1705,-259,-812,424,-684,214,472,-122,1,0,39,5,480,1,53298,1
2,30046,30723,31942,58601,26451,-4779,-844,-548,-1150,1786,-2383,216,470,-122,1,0,39,5,520,1,53298,1
2,30457,30854,32374,58602,26475,-5674,-31,-127,3407,2088,-1702,214,484,-126,1,0,39,5,560,1,53298,1
2,30581,30852,32390,58603,26499,-5305,241,525,4672,1411,-482,213,489,-123,1,0,39,5,600,1,53298,1
2,30548,30845,32331,58604,26523,-4266,-306,679,2782,109,645,206,484,-122,1,0,39,5,640,1,53298,1
2,30356,30808,32223,58605,26546,-4402,-409,179,-1084,-810,693,219,487,-115,1,0,39,5,680,1,53298,1
2,30417,30800,32194,58606,26569,-4718,-871,-432,-4092,-954,188,218,474,-120,1,0,39,5,720,1,53298,1
2,30380,30805,32217,58607,26592,-4918,-952,-547,-2128,-348,76,213,471,-115,1,0,39,5,760,1,53298,1
2,30438,30821,32255,58608,26615,-5371,-280,-414,220,124,-76,200,472,-108,1,0,39,5,800,1,53298,1
2,30333,31052,32265,58609,26638,-4325,-721,206,2038,122,658,205,483,-115,1,0,39,5,840,1,53298,1
2,30254,32897,32244,58610,26661,-3624,-922,472,1957,-210,951,209,481,-123,1,0,39,5,880,1,53298,1
2,30330,31781,32331,58611,26684,-4633,-550,-70,-1272,-243,-76,221,469,-119,1,0,39,5,920,1,53298,1
2,30360,32552,32370,58612,26707,-5392,-282,-195,-1827,-188,-45,220,478,-128,1,0,39,5,960,1,53298,1
1,30400,31376,32417,58613,0,-4351,-655,106,472,-387,840,213,473,-123,1,0,39,6,0,1,53298,1
2,30485,31147,32485,58614,25724,-4517,-661,83,188,-540,750,213,471,-123,1,0,39,6,40,1,53298,1
2,30506,31463,32487,58615,25748,-5162,-170,-91,-1082,-666,417,215,469,-123,1,0,39,6,80,1,53298,1
2,30452,31656,32442,58616,25771,-4433,-644,19,-369,-780,858,212,474,-122,1,0,39,6,120,1,53298,1
2,30416,30649,32544,58617,25794,-3448,-1279,286,171,-597,906,211,473,-115,1,0,39,6,160,1,53298,1
2,30515,30780,32573,58618,25817,-5431,-41,-813,-1837,-193,-353,216,484,-122,1,0,39,6,200,1,53298,1
2,30467,30743,32545,58619,25840,-5269,-380,-67,443,224,-139,207,473,-113,1,0,39,6,240,1,53298,1
2,30284,30772,32409,58620,25863,-3887,-676,425,2239,181,411,209,471,-121,1,0,39,6,280,1,53298,1
2,30233,30744,32384,58621,25886,-3650,-1394,346,542,112,135,214,472,-122,1,0,39,6,320,1,53298,1
2,30270,30795,32385,58622,25909,-5092,-310,-489,-1912,377,-934,205,465,-115,1,0,39,6,360,1,53298,1
2,30248,30788,32354,58623,25932,-4778,-680,9,275,584,-552,208,478,-118,1,0,39,6,400,1,53298,1
2,30247,30765,32360,58624,25955,-5631,352,-218,1319,531,-491,216,474,-120,1,0,39,6,440,1,53298,1
2,30187,30831,32350,58625,25978,-4919,-240,405,1104,2,190,214,468,-118,1,0,39,6,480,1,53298,1
2,30070,30819,32310,58626,26002,-3829,-783,304,-12,-508,681,206,474,-128,1,0,39,6,520,1,53298,1
2,30197,30824,32340,58627,26025,-3538,-1675,90,-1243,-263,364,205,469,-125,1,0,39,6,560,1,53298,1
2,30170,30812,32309,58628,26048,-6221,332,-944,-2161,152,-921,217,467,-125,1,0,39,6,600,1,53298,1
2,30145,30776,32270,58629,26071,-5254,-240,164,1481,206,179,210,472,-120,1,0,39,6,640,1,53298,1
2,30168,30695,32244,58630,26094,-3593,-764,492,2383,-163,872,212,474,-122,1,0,39,6,680,1,53298,1
2,30564,30759,32320,58631,26116,-2874,-1832,468,341,-304,511,212,476,-116,1,0,39,6,720,1,53298,1
2,30596,30831,32317,58632,26139,-5995,545,-1130,-2928,274,-1265,222,472,-118,1,0,39,6,760,1,53298,1
2,30633,30867,32359,58633,26163,-6154,19,21,-278,625,-655,205,485,-111,1,0,39,6,800,1,53298,1
2,30592,30863,32300,58634,26186,-3930,-533,401,2691,67,739,218,476,-122,1,0,39,6,840,1,53298,1
2,30762,30859,32281,58635,26208,-3018,-1377,508,1320,-413,732,199,477,-129,1,0,39,6,880,1,53298,1
2,30835,30840,32315,58636,26230,-5131,-191,-693,-2342,-14,-714,212,472,-116,1,0,39,6,920,1,53298,1
2,30890,30325,32339,58637,26253,-6247,-37,-231,-1758,433,-802,216,482,-120,1,0,39,6,960,1,53298,1
1,30823,30845,32270,58638,0,-4268,-484,293,1737,25,616,216,466,-118,1,0,39,7,0,0,53298,1
2,30959,30842,32250,58639,25274,-3205,-1256,430,1678,-476,881,209,475,-117,1,0,39,7,40,0,53298,1
2,31047,30848,32290,58640,25296,-4036,-1166,-322,-1350,-90,-214,211,479,-127,1,0,39,7,80,0,53298,1
2,31146,30737,32301,58641,25318,-5979,-100,-582,-1950,646,-1086,214,474,-118,1,0,39,7,120,0,53298,1
2,31108,30636,32268,58642,25342,-5164,-203,163,1141,541,-152,213,483,-125,1,0,39,7,160,0,53298,1
2,31119,30634,32259,58643,25365,-4000,-702,315,2042,-138,549,207,471,-125,1,0,39,7,200,0,53298,1
2,31075,30301,32212,58644,25387,-4551,-589,-88,-536,-180,-50,213,471,-115,1,0,39,7,240,0,53298,1
2,31003,30232,32130,58645,25410,-4944,-510,-106,-972,-16,-134,211,475,-117,1,0,39,7,280,0,53298,1
2,31128,30525,32264,58646,25434,-5285,-181,-259,-268,17,-42,209,479,-109,1,0,39,7,320,0,53298,1
2,31057,30202,32200,58647,25457,-5360,-12,82,-333,-299,197,211,473,-115,1,0,39,7,360,0,53298,1
2,31039,30158,32137,58648,25481,-3663,-914,448,959,-838,1329,218,470,-126,1,0,39,7,400,0,53298,1
2,31099,30390,32192,58649,25505,-3327,-1324,249,-563,-733,886,214,470,-116,1,0,39,7,440,0,53298,1
2,31159,30410,32217,58650,25528,-3235,-1919,-7,-1783,-113,3,213,471,-119,1,0,39,7,480,0,53298,1
2,31220,30415,32275,58651,25551,-6558,462,-1492,-1920,987,-1832,216,468,-122,1,0,39,7,520,0,53298,1
2,31171,30227,32206,58652,25575,-5920,78,368,2836,1327,-677,218,476,-126,1,0,39,7,560,0,53298,1
2,31181,30259,32151,58653,25600,-3741,-344,641,4268,189,775,213,473,-129,1,0,39,7,600,0,53298,1
2,31279,30277,32206,58654,25624,-3278,-1152,555,245,-483,509,212,472,-114,1,0,39,7,640,0,53298,1
2,31184,30449,32156,58655,25647,-5891,260,-792,-3441,-389,-649,213,469,-121,1,0,39,7,680,0,53298,1
2,31094,32601,32058,58656,25671,-5892,-122,-140,-2124,-99,-294,215,475,-111,1,0,39,7,720,0,53298,1
2,31072,32133,32012,58657,25695,-3719,-865,312,1700,-384,1061,211,477,-119,1,0,39,7,760,0,53298,1
2,31223,30221,32180,58658,25718,-2912,-1505,389,1358,-527,866,209,467,-117,1,0,39,7,800,0,53298,1
2,31368,30205,32228,58659,25741,-4507,-814,-628,-1623,157,-650,216,470,-120,1,0,39,7,840,0,53298,1
2,31400,30359,32229,58660,25765,-6664,147,-421,-1728,900,-1331,215,475,-115,1,0,39,7,880,0,53298,1
2,31408,30318,32190,58661,25788,-4630,-252,396,2381,369,418,203,469,-115,1,0,39,7,920,0,53298,1
2,31391,30293,32225,58662,25811,-3293,-965,567,2268,-488,1037,214,472,-122,1,0,39,7,960,0,53298,1
1,31479,30383,32293,58663,0,-3523,-1604,38,-1325,-318,138,213,469,-129,1,0,39,8,0,0,53298,1
2,31620,30282,32361,58664,24825,-6414,242,-964,-3118,475,-1436,215,479,-123,1,0,39,8,40,0,53298,1
2,31607,30272,32338,58665,24848,-5538,-111,219,909,530,-188,214,464,-112,1,0,39,8,80,0,53298,1
2,31587,30335,32295,58666,24871,-3658,-715,447,2820,-265,975,209,473,-125,1,0,39,8,120,0,53298,1
2,31634,30244,32306,58667,24894,-3209,-1572,248,144,-377,497,207,471,-117,1,0,39,8,160,0,53298,1
2,31615,30302,32295,58668,24916,-5778,127,-767,-2228,129,-893,217,473,-125,1,0,39,8,200,0,53298,1
2,31595,30852,32288,58669,24939,-5791,-90,39,-644,396,-464,214,472,-112,1,0,39,8,240,0,53298,1
2,31605,30819,32235,58670,24962,-4051,-628,255,1577,-163,675,205,479,-123,1,0,39,8,280,0,53298,1
2,31495,30391,32209,58671,24986,-3467,-1317,205,664,-397,561,208,472,-108,1,0,39,8,320,0,53298,1
2,31452,30995,32181,58672,25009,-5397,-112,-562,-1425,49,-581,211,473,-121,1,0,39,8,360,0,53298,1
2,31601,30731,32342,58673,25033,-5571,-102,45,-486,253,-307,209,475,-113,1,0,39,8,400,0,53298,1
2,31603,30857,32336,58674,25057,-4050,-671,281,1082,-153,640,217,481,-123,1,0,39,8,440,0,53298,1
2,31580,30722,32313,58675,25081,-3283,-1406,276,477,-381,605,217,465,-117,1,0,39,8,480,0,53298,1
2,31567,30848,32335,58676,25105,-4904,-442,-687,-1451,129,-587,218,470,-126,1,0,39,8,520,0,53298,1
2,31555,30565,32337,58677,25128,-6010,-47,-152,-688,598,-794,214,472,-124,1,0,39,8,560,0,53298,1
2,31516,30647,32310,58678,25152,-4414,-386,306,1862,76,481,215,479,-127,1,0,39,8,600,0,53298,1
2,31516,30750,32290,58679,25175,-3483,-1095,379,1087,-445,708,214,468,-120,1,0,39,8,640,0,53298,1
2,31545,30716,32322,58680,25197,-4188,-1094,-332,-1470,-154,-134,212,476,-124,1,0,39,8,680,0,53298,1
2,31542,30640,32325,58681,25221,-6201,12,-526,-1767,388,-984,211,469,-121,1,0,39,8,720,0,53298,1
2,31510,30745,32308,58682,25244,-4905,-270,235,1442,131,298,213,463,-117,1,0,39,8,760,0,53298,1
2,31507,30789,32295,58683,25267,-3617,-892,409,1714,-391,841,205,465,-115,1,0,39,8,800,0,53298,1
2,31539,30820,32309,58684,25291,-3691,-1364,-2,-917,-186,174,209,471,-119,1,0,39,8,840,0,53298,1
2,31533,30648,32326,58685,25314,-5939,52,-682,-1876,303,-946,217,469,-121,1,0,39,8,880,0,53298,1
2,31495,30685,32317,58686,25338,-5383,-122,134,668,361,-119,220,476,-122,1,0,39,8,920,0,53298,1
2,31477,30702,32274,58687,25362,-3863,-711,327,1711,-189,700,211,475,-119,1,0,39,8,960,0,53298,1
1,31472,30692,32286,58688,0,-3640,-1254,97,-264,-240,302,211,469,-115,1,0,39,9,0,0,53298,1
2,31507,30709,32321,58689,24375,-5591,-80,-574,-1580,108,-672,220,472,-120,1,0,39,9,40,0,53298,1
2,31496,30701,32307,58690,24398,-5410,-140,62,126,205,-151,213,477,-115,1,0,39,9,80,0,53298,1
2,31491,30699,32286,58691,24423,-3992,-692,267,1252,-226,642,210,472,-128,1,0,39,9,120,0,53298,1
2,31482,30704,32280,58692,24447,-3522,-1314,202,-10,-308,406,201,473,-123,1,0,39,9,160,0,53298,1
2,31511,30755,32312,58693,24471,-5224,-247,-559,-1373,121,-588,213,473,-125,1,0,39,9,200,0,53298,1
2,31490,30665,32296,58694,24495,-5623,-85,12,-34,341,-392,211,471,-129,1,0,39,9,240,0,53298,1
2,31477,30709,32275,58695,24518,-4230,-530,258,1364,-94,522,212,470,-120,1,0,39,9,280,0,53298,1
2,31461,30710,32262,58696,24540,-3614,-1153,238,225,-302,460,213,477,-119,1,0,39,9,320,0,53298,1
2,31487,30685,32294,58697,24563,-4572,-759,-412,-1315,46,-313,210,472,-124,1,0,39,9,360,0,53298,1
2,31494,30708,32304,58698,24586,-5692,-162,-273,-472,398,-605,212,478,-124,1,0,39,9,400,0,53298,1
2,31465,30737,32284,58699,24610,-4703,-358,194,1399,129,233,219,467,-125,1,0,39,9,440,0,53298,1
2,31485,30713,32278,58700,24633,-3943,-833,256,730,-232,413,217,475,-129,1,0,39,9,480,0,53298,1
2,31485,30781,32290,58701,24656,-4460,-833,-196,-1075,-75,-97,215,475,-125,1,0,39,9,520,0,53298,1
2,31472,30536,32285,58702,24680,-5385,-255,-258,-674,100,-344,209,471,-113,1,0,39,9,560,0,53298,1
2,31382,30435,32181,58703,24703,-4681,-460,108,754,-9,207,213,475,-121,1,0,39,9,600,0,53298,1
2,31325,30565,32116,58704,24726,-3994,-834,192,495,-173,359,215,465,-121,1,0,39,9,640,0,53298,1
2,31312,30320,32127,58705,24750,-4164,-1024,-121,-629,44,-10,209,467,-113,1,0,39,9,680,0,53298,1
2,31309,30462,32133,58706,24775,-5383,-268,-353,-586,281,-485,210,478,-128,1,0,39,9,720,0,53298,1
2,31234,31603,32054,58707,24799,-4987,-296,95,840,147,25,204,472,-106,1,0,39,9,760,0,53298,1
2,31254,31347,32075,58708,24824,-4176,-677,190,615,-168,318,200,472,-120,1,0,39,9,800,0,53298,1
2,31248,31278,32065,58709,24848,-4368,-822,-95,-665,-133,37,215,467,-119,1,0,39,9,840,0,53298,1
2,31283,31254,32110,58710,24872,-5289,-305,-264,-586,1,-262,211,473,-123,1,0,39,9,880,0,53298,1
2,31292,30792,32101,58711,24895,-4770,-423,107,542,-28,168,212,468,-128,1,0,39,9,920,0,53298,1
2,31273,30905,32084,58712,24919,-4038,-799,186,393,-196,374,217,471,-121,1,0,39,9,960,0,53298,1
1,31343,30373,32141,58713,0,-3895,-1162,6,-406,-35,131,213,463,-119,1,0,39,10,0,0,53298,1
2,31345,30199,32194,58714,23926,-5472,-160,-524,-661,299,-566,212,480,-124,1,0,39,10,40,0,53298,1
2,31441,30733,32278,58715,23949,-5351,-94,119,832,272,-135,213,471,-125,1,0,39,10,80,0,53298,1
2,31424,30740,32262,58716,23971,-4123,-588,288,977,-175,466,213,483,-115,1,0,39,10,120,0,53298,1
2,31440,30745,32266,58717,23994,-3802,-1092,127,-602,-283,261,220,472,-110,1,0,39,10,160,0,53298,1
2,31468,30769,32293,58718,24017,-4880,-595,-538,-1278,43,-366,210,466,-122,1,0,39,10,200,0,53298,1
2,31462,30758,32299,58719,24041,-5765,-26,-133,143,298,-415,210,472,-130,1,0,39,10,240,0,53298,1
2,31443,30726,32261,58720,24064,-4365,-425,284,1533,-86,484,210,470,-122,1,0,39,10,280,0,53298,1
2,31447,30705,32254,58721,24088,-3707,-1001,288,229,-369,487,207,481,-115,1,0,39,10,320,0,53298,1
2,31456,30756,32274,58722,24112,-4144,-1152,-202,-1374,-57,-61,209,479,-117,1,0,39,10,360,0,53298,1
2,31490,30833,32305,58723,24135,-6072,23,-583,-976,329,-745,209,475,-111,1,0,39,10,400,0,53298,1
2,31448,30813,32269,58724,24158,-5023,-200,229,1523,167,216,213,477,-125,1,0,39,10,440,0,53298,1
2,31439,30808,32259,58725,24181,-3745,-806,379,1244,-310,696,210,478,-126,1,0,39,10,480,0,53298,1
2,31446,30802,32262,58726,24205,-3617,-1299,143,-1000,-250,215,205,469,-125,1,0,39,10,520,0,53298,1
2,31448,30845,32289,58727,24228,-5490,-143,-723,-1639,177,-661,213,471,-117,1,0,39,10,560,0,53298,1
2,31453,30837,32286,58728,24251,-5624,-46,45,604,350,-280,218,480,-120,1,0,39,10,600,0,53298,1
2,31436,30838,32264,58729,24274,-4049,-551,340,1753,-140,603,211,477,-129,1,0,39,10,640,0,53298,1
2,31454,30829,32264,58730,24296,-3581,-1159,254,-95,-318,386,210,470,-122,1,0,39,10,680,0,53298,1
2,31450,30837,32290,58731,24319,-4584,-780,-485,-1671,48,-355,215,479,-123,1,0,39,10,720,0,53298,1
2,31461,30850,32302,58732,24342,-6038,-19,-332,-550,354,-664,220,480,-124,1,0,39,10,760,0,53298,1
2,31428,30844,32271,58733,24365,-4604,-362,246,1713,29,409,211,473,-127,1,0,39,10,800,0,53298,1
2,31438,30840,32252,58734,24387,-3673,-943,350,848,-339,574,211,471,-119,1,0,39,10,840,0,53298,1
2,31462,30847,32274,58735,24410,-3929,-1237,-100,-1318,-63,0,200,474,-120,1,0,39,10,880,0,53298,1
2,31486,30857,32300,58736,24433,-5955,-18,-638,-1285,287,-771,211,473,-121,1,0,39,10,920,0,53298,1
2,31457,30837,32284,58737,24457,-5245,-160,155,1183,206,50,211,465,-121,1,0,39,10,960,0,53298,1
1,31429,30785,32249,58738,0,-3834,-728,332,1406,-247,622,222,482,-126,1,0,39,11,0,0,53298,1
2,31428,30803,32258,58739,23477,-3695,-1202,130,-686,-175,190,211,479,-129,1,0,39,11,40,0,53298,1
2,31445,30724,32285,58740,23501,-5492,-157,-580,-1484,163,-610,208,468,-112,1,0,39,11,80,0,53298,1
2,31435,30820,32270,58741,23524,-5510,-102,23,432,218,-185,213,471,-129,1,0,39,11,120,0,53298,1
2,31415,30820,32257,58742,23547,-4050,-639,272,1358,-162,567,215,475,-121,1,0,39,11,160,0,53298,1
2,31421,30794,32249,58743,23571,-3638,-1168,169,-116,-247,332,201,477,-111,1,0,39,11,200,0,53298,1
2,31463,30820,32285,58744,23593,-4824,-606,-459,-1347,114,-392,212,468,-122,1,0,39,11,240,0,53298,1
2,31463,30859,32292,58745,23616,-5772,-75,-161,-183,287,-457,222,470,-120,1,0,39,11,280,0,53298,1
2,31434,30853,32254,58746,23639,-4435,-463,228,1322,-85,450,220,478,-122,1,0,39,11,320,0,53298,1
2,31465,30854,32261,58747,23662,-3720,-1005,247,224,-373,484,209,471,-119,1,0,39,11,360,0,53298,1
2,31456,30856,32274,58748,23685,-4176,-1105,-240,-1379,-68,-38,215,477,-119,1,0,39,11,400,0,53298,1
2,31477,30860,32293,58749,23708,-5771,-137,-499,-788,188,-607,209,479,-117,1,0,39,11,440,0,53298,1
2,31431,30855,32275,58750,23731,-5076,-187,189,1251,32,153,214,472,-114,1,0,39,11,480,0,53298,1
2,31424,30853,32259,58751,23754,-3948,-752,306,1040,-341,559,209,473,-127,1,0,39,11,520,0,53298,1
2,31417,30853,32266,58752,23778,-4012,-1002,40,-820,-161,121,209,473,-123,1,0,39,11,560,0,53298,1
2,31432,30857,32285,58753,23802,-5519,-151,-428,-1038,85,-471,208,470,-120,1,0,39,11,600,0,53298,1
2,31415,30851,32274,58754,23826,-5192,-177,79,517,67,18,212,482,-114,1,0,39,11,640,0,53298,1
2,31402,30848,32251,58755,23849,-3994,-724,246,834,-235,516,216,472,-122,1,0,39,11,680,0,53298,1
2,31399,30849,32242,58756,23872,-3705,-1198,119,-360,-215,252,218,478,-126,1,0,39,11,720,0,53298,1
2,31411,30849,32279,58757,23897,-5117,-349,-467,-1027,164,-481,208,478,-128,1,0,39,11,760,0,53298,1
2,31360,30812,32260,58758,23920,-5508,-97,9,321,265,-289,209,479,-125,1,0,39,11,800,0,53298,1
2,31332,30834,32243,58759,23945,-4246,-562,252,1049,-118,456,215,475,-127,1,0,39,11,840,0,53298,1
2,31347,30829,32239,58760,23968,-3689,-1123,189,-123,-245,400,211,467,-119,1,0,39,11,880,0,53298,1
2,31347,30835,32258,58761,23992,-4567,-790,-405,-1139,113,-250,205,485,-111,1,0,39,11,920,0,53298,1
2,31352,30850,32275,58762,24015,-5870,-26,-268,-222,341,-578,213,475,-123,1,0,39,11,960,0,53298,1
1,31313,30848,32249,58763,0,-4656,-338,239,1350,-36,356,211,471,-125,1,0,39,12,0,1,53298,1
2,31321,30847,32241,58764,23027,-3783,-919,285,422,-384,563,210,462,-120,1,0,39,12,40,1,53298,1
2,31327,30850,32259,58765,23050,-4012,-1152,-140,-1202,-124,54,209,471,-121,1,0,39,12,80,1,53298,1
2,31347,30853,32283,58766,23073,-5722,-96,-506,-808,215,-626,211,473,-129,1,0,39,12,120,1,53298,1
2,31322,30849,32270,58767,23096,-5193,-132,164,1112,127,15,211,475,-115,1,0,39,12,160,1,53298,1
2,31292,30845,32243,58768,23120,-3945,-729,303,1000,-265,546,205,461,-115,1,0,39,12,200,1,53298,1
2,31321,30847,32249,58769,23144,-3782,-1128,109,-726,-167,191,211,465,-119,1,0,39,12,240,1,53298,1
2,31329,30852,32274,58770,23167,-5277,-290,-494,-1162,169,-505,216,464,-122,1,0,39,12,280,1,53298,1
2,31337,30850,32266,58771,23191,-5443,-107,22,465,236,-204,207,469,-125,1,0,39,12,320,1,53298,1
2,31316,30846,32243,58772,23214,-4150,-608,255,1136,-113,507,216,468,-126,1,0,39,12,360,1,53298,1
2,31314,30846,32242,58773,23237,-3741,-1097,149,-151,-159,351,209,477,-121,1,0,39,12,400,1,53298,1
2,31334,30851,32266,58774,23260,-4827,-555,-380,-1054,201,-323,214,468,-122,1,0,39,12,440,1,53298,1
2,31335,30851,32277,58775,23284,-5670,-83,-139,41,303,-432,204,464,-114,1,0,39,12,480,1,53298,1
2,31315,30847,32243,58776,23307,-4443,-459,214,1072,-68,323,214,478,-120,1,0,39,12,520,1,53298,1
2,31325,30848,32242,58777,23330,-3765,-1016,218,86,-316,364,206,474,-122,1,0,39,12,560,1,53298,1
2,31329,30850,32259,58778,23354,-4349,-947,-258,-1129,-21,-143,220,466,-122,1,0,39,12,600,1,53298,1
2,31340,30852,32280,58779,23378,-5704,-124,-352,-490,202,-561,206,476,-126,1,0,39,12,640,1,53298,1
2,31318,30849,32259,58780,23401,-4824,-312,176,1191,-43,234,211,473,-121,1,0,39,12,680,1,53298,1
2,31307,30846,32242,58781,23424,-3904,-841,274,622,-320,499,206,470,-120,1,0,39,12,720,1,53298,1
2,31320,30847,32253,58782,23447,-4090,-1056,-73,-941,-49,72,213,471,-115,1,0,39,12,760,1,53298,1
2,31324,30850,32266,58783,23471,-5655,-121,-399,-755,164,-512,212,482,-120,1,0,39,12,800,1,53298,1
2,31309,30847,32251,58784,23495,-5093,-206,134,878,56,134,214,476,-120,1,0,39,12,840,1,53298,1
2,31297,30846,32238,58785,23519,-3949,-781,272,716,-232,552,205,473,-117,1,0,39,12,880,1,53298,1
2,31281,30847,32242,58786,23542,-3777,-1169,97,-630,-74,194,199,477,-115,1,0,39,12,920,1,53298,1
2,31324,30852,32273,58787,23566,-5327,-230,-489,-847,323,-552,217,473,-119,1,0,39,12,960,1,53298,1
1,31313,30850,32262,58788,0,-5478,-53,59,746,376,-260,210,472,-122,1,0,39,13,0,0,53298,1
2,31279,30845,32245,58789,22580,-4151,-595,276,1134,-43,407,213,469,-113,1,0,39,13,40,0,53298,1
2,31280,30845,32229,58790,22603,-3740,-1148,138,-327,-137,260,209,469,-121,1,0,39,13,80,0,53298,1
2,31301,30849,32261,58791,22625,-4729,-667,-437,-1228,203,-345,205,463,-125,1,0,39,13,120,0,53298,1
2,31288,30849,32262,58792,22649,-5719,-82,-206,31,312,-428,207,477,-105,1,0,39,13,160,0,53298,1
2,31243,30843,32248,58793,22672,-4517,-421,233,1417,-86,456,217,475,-123,1,0,39,13,200,0,53298,1
2,31240,30842,32227,58794,22695,-3798,-941,258,307,-379,505,211,475,-121,1,0,39,13,240,0,53298,1
2,31272,30847,32258,58795,22718,-4342,-936,-231,-1193,-69,-74,211,473,-121,1,0,39,13,280,0,53298,1
2,31296,30850,32268,58796,22741,-5737,-80,-366,-586,177,-581,213,473,-117,1,0,39,13,320,0,53298,1
2,31258,30845,32247,58797,22763,-4831,-280,169,1149,29,162,210,468,-124,1,0,39,13,360,0,53298,1
2,31233,30842,32235,58798,22787,-3876,-843,276,631,-205,435,209,469,-115,1,0,39,13,400,0,53298,1
2,31261,30846,32242,58799,22810,-3970,-1103,-30,-874,51,13,207,469,-129,1,0,39,13,440,0,53298,1
2,31285,30848,32262,58800,22834,-5565,-153,-474,-833,339,-603,218,478,-134,1,0,39,13,480,0,53298,1
2,31262,30846,32251,58801,22858,-5246,-121,101,908,226,-44,213,477,-117,1,0,39,13,520,0,53298,1
2,31230,30841,32228,58802,22881,-4013,-691,270,927,-216,506,206,476,-114,1,0,39,13,560,0,53298,1
2,31235,30842,32230,58803,22905,-3792,-1148,87,-638,-208,232,211,469,-121,1,0,39,13,600,0,53298,1
2,31267,30845,32249,58804,22928,-5049,-444,-471,-1097,129,-432,215,475,-125,1,0,39,13,640,0,53298,1
2,31250,30845,32248,58805,22952,-5544,-63,-56,404,184,-300,215,477,-121,1,0,39,13,680,0,53298,1
2,31225,30843,32233,58806,22975,-4303,-521,251,1187,-189,452,210,468,-114,1,0,39,13,720,0,53298,1
2,31213,30844,32237,58807,22998,-3789,-1053,168,-136,-302,369,206,472,-116,1,0,39,13,760,0,53298,1
2,31259,30848,32260,58808,23021,-4641,-746,-339,-1177,63,-230,212,462,-128,1,0,39,13,800,0,53298,1
2,31247,30848,32256,58809,23045,-5675,-83,-243,-152,230,-451,206,478,-126,1,0,39,13,840,0,53298,1
2,31237,30843,32238,58810,23068,-4582,-390,201,1155,-35,307,206,472,-122,1,0,39,13,880,0,53298,1
2,31201,30842,32231,58811,23091,-3824,-928,249,249,-266,430,214,474,-122,1,0,39,13,920,0,53298,1
2,31222,30844,32255,58812,23113,-4220,-1018,-199,-1051,5,-56,210,474,-124,1,0,39,13,960,0,53298,1
1,31246,30845,32268,58813,0,-5683,-121,-420,-536,252,-551,205,479,-109,1,0,39,14,0,1,53298,1
2,31221,30843,32247,58814,22131,-4940,-232,166,1088,68,161,215,471,-123,1,0,39,14,40,1,53298,1
2,31213,30841,32230,58815,22154,-3933,-800,279,616,-284,509,213,471,-127,1,0,39,14,80,1,53298,1
2,31239,30846,32244,58816,22177,-4061,-1047,-58,-941,-174,97,209,477,-121,1,0,39,14,120,1,53298,1
2,31292,30854,32281,58817,22201,-5514,-169,-438,-785,93,-464,215,481,-119,1,0,39,14,160,1,53298,1
2,31271,30851,32268,58818,22223,-5045,-220,123,804,44,76,213,465,-131,1,0,39,14,200,1,53298,1
2,31235,30849,32247,58819,22246,-4005,-765,266,676,-222,466,210,468,-124,1,0,39,14,240,1,53298,1
2,31246,30851,32256,58820,22269,-3825,-1172,76,-625,-129,183,211,473,-121,1,0,39,14,280,1,53298,1
2,31295,30855,32282,58821,22291,-5294,-244,-493,-866,239,-540,220,470,-130,1,0,39,14,320,1,53298,1
2,31295,30855,32270,58822,22313,-5410,-73,75,707,270,-189,213,475,-131,1,0,39,14,360,1,53298,1
2,31227,30849,32245,58823,22335,-4130,-587,251,995,-151,466,217,469,-121,1,0,39,14,400,1,53298,1
2,31247,30850,32253,58824,22357,-3803,-1119,119,-509,-212,278,215,475,-125,1,0,39,14,440,1,53298,1
2,31257,30854,32274,58825,22379,-4960,-501,-442,-1108,95,-365,204,468,-116,1,0,39,14,480,1,53298,1
2,31234,30852,32277,58826,22401,-5501,-94,-74,331,209,-303,213,471,-115,1,0,39,14,520,1,53298,1
2,31222,30849,32235,58827,22423,-4325,-509,260,1132,-112,411,215,469,-119,1,0,39,14,560,1,53298,1
2,31224,30846,32246,58828,22445,-3779,-1056,168,-135,-262,364,212,466,-118,1,0,39,14,600,1,53298,1
2,31226,30850,32258,58829,22467,-4571,-778,-311,-1110,82,-214,211,467,-129,1,0,39,14,640,1,53298,1
2,31240,30853,32270,58830,22489,-5720,-46,-252,-105,258,-494,208,476,-120,1,0,39,14,680,1,53298,1
2,31205,30848,32240,58831,22511,-4651,-353,197,1198,-12,291,214,486,-122,1,0,39,14,720,1,53298,1
2,31236,30847,32240,58832,22533,-3850,-926,238,242,-256,434,207,471,-111,1,0,39,14,760,1,53298,1
2,31240,30850,32260,58833,22555,-4214,-1005,-179,-1078,5,-37,215,473,-117,1,0,39,14,800,1,53298,1
2,31286,30855,32273,58834,22578,-5608,-146,-425,-491,241,-527,214,474,-114,1,0,39,14,840,1,53298,1
2,31266,30850,32252,58835,22599,-4987,-211,171,1110,82,102,216,478,-118,1,0,39,14,880,1,53298,1
2,31239,30846,32238,58836,22621,-3969,-787,254,586,-248,458,215,473,-121,1,0,39,14,920,1,53298,1
2,31245,30849,32253,58837,22643,-3973,-1089,-1,-909,-106,99,214,470,-116,1,0,39,14,960,1,53298,1
1,31244,30852,32280,58838,0,-5265,-323,-456,-792,194,-463,215,475,-125,1,0,39,15,0,1,53298,1
2,31228,30852,32271,58839,21681,-5333,-102,57,813,193,-145,210,470,-128,1,0,39,15,40,1,53298,1
2,31211,30847,32249,58840,21703,-4152,-608,263,953,-172,443,204,474,-118,1,0,39,15,80,1,53298,1
2,31186,30846,32241,58841,21725,-3903,-1027,81,-543,-194,238,223,479,-125,1,0,39,15,120,1,53298,1
2,31225,30851,32262,58842,21747,-4865,-572,-392,-1034,121,-303,210,480,-120,1,0,39,15,160,1,53298,1
2,31206,30849,32273,58843,21769,-5463,-129,-100,315,202,-299,206,470,-126,1,0,39,15,200,1,53298,1
2,31202,30846,32242,58844,21791,-4422,-493,228,1068,-84,331,200,478,-124,1,0,39,15,240,1,53298,1
2,31192,30847,32242,58845,21814,-3901,-966,162,-126,-225,304,210,472,-126,1,0,39,15,280,1,53298,1
2,31211,30850,32261,58846,21837,-4507,-791,-239,-1032,80,-146,214,468,-130,1,0,39,15,320,1,53298,1
2,31212,30850,32265,58847,21859,-5567,-154,-289,-90,217,-401,209,481,-119,1,0,39,15,360,1,53298,1
2,31190,30844,32251,58848,21881,-4732,-337,185,1094,10,201,212,472,-114,1,0,39,15,400,1,53298,1
2,31190,30846,32248,58849,21903,-3985,-852,210,215,-221,360,212,474,-112,1,0,39,15,440,1,53298,1
2,31213,30848,32270,58850,21926,-4302,-924,-148,-975,-42,-28,201,471,-115,1,0,39,15,480,1,53298,1
2,31230,30852,32274,58851,21950,-5567,-136,-348,-423,119,-400,207,471,-121,1,0,39,15,520,1,53298,1
2,31215,30851,32265,58852,21972,-4905,-259,140,970,-24,179,208,468,-126,1,0,39,15,560,1,53298,1
2,31188,30844,32249,58853,21995,-3955,-821,254,411,-278,474,207,473,-123,1,0,39,15,600,1,53298,1
2,31195,30843,32246,58854,22017,-3986,-1111,-8,-869,-131,119,206,472,-130,1,0,39,15,640,1,53298,1
2,31234,30853,32296,58855,22040,-5513,-156,-477,-789,180,-498,217,479,-127,1,0,39,15,680,1,53298,1
2,31211,30857,32280,58856,22063,-5162,-110,126,830,112,32,208,472,-124,1,0,39,15,720,1,53298,1
2,31189,30850,32255,58857,22086,-3995,-708,289,680,-231,519,206,472,-118,1,0,39,15,760,1,53298,1
2,31200,30854,32261,58858,22110,-3701,-1225,115,-745,-205,265,217,471,-121,1,0,39,15,800,1,53298,1
2,31209,30859,32284,58859,22133,-4752,-632,-497,-993,237,-448,212,482,-124,1,0,39,15,840,1,53298,1
2,31205,30860,32297,58860,22156,-5833,18,-141,530,423,-583,209,475,-125,1,0,39,15,880,1,53298,1
2,31198,30855,32262,58861,22179,-4521,-322,307,1682,-4,351,204,472,-122,1,0,39,15,920,1,53298,1
2,31188,30854,32250,58862,22202,-3834,-947,249,38,-306,398,210,468,-118,1,0,39,15,960,1,53298,1
1,31213,30855,32268,58863,0,-4415,-914,-266,-1478,-26,-129,216,476,-116,1,0,39,16,0,1,53298,1
2,31230,30858,32284,58864,21234,-5733,-63,-367,-436,158,-478,209,471,-113,1,0,39,16,40,1,53298,1
2,31210,30854,32257,58865,21256,-4733,-355,174,1287,-19,278,206,472,-128,1,0,39,16,80,1,53298,1
2,31190,30850,32246,58866,21279,-3821,-899,277,521,-261,504,203,475,-117,1,0,39,16,120,1,53298,1
2,31208,30855,32270,58867,21301,-4138,-1052,-111,-1036,-17,-11,209,477,-121,1,0,39,16,160,1,53298,1
2,31215,30857,32285,58868,21324,-5725,-47,-455,-729,233,-571,211,471,-123,1,0,39,16,200,1,53298,1
2,31190,30853,32262,58869,21346,-4963,-226,145,1034,64,158,207,479,-123,1,0,39,16,240,1,53298,1
2,31172,30848,32233,58870,21368,-3874,-846,290,641,-267,541,211,469,-125,1,0,39,16,280,1,53298,1
2,31200,30851,32249,58871,21390,-3983,-1128,-50,-926,-137,110,204,468,-116,1,0,39,16,320,1,53298,1
2,31234,30859,32291,58872,21412,-5529,-134,-469,-815,188,-549,219,473,-119,1,0,39,16,360,1,53298,1
2,31219,30855,32262,58873,21435,-5106,-154,132,925,119,20,214,476,-122,1,0,39,16,400,1,53298,1
2,31178,30853,32250,58874,21458,-3996,-758,283,716,-239,477,220,468,-126,1,0,39,16,440,1,53298,1
2,31207,30854,32255,58875,21480,-3849,-1165,54,-740,-134,163,210,470,-114,1,0,39,16,480,1,53298,1
2,31231,30858,32285,58876,21504,-5346,-228,-494,-902,224,-548,211,479,-123,1,0,39,16,520,1,53298,1
2,31210,30856,32283,58877,21527,-5336,-77,90,832,236,-151,215,477,-127,1,0,39,16,560,1,53298,1
2,31200,30852,32257,58878,21550,-4093,-628,280,1003,-160,479,208,476,-108,1,0,39,16,600,1,53298,1
2,31185,30852,32260,58879,21573,-3852,-1101,98,-585,-183,237,212,470,-120,1,0,39,16,640,1,53298,1
2,31231,30858,32275,58880,21595,-5012,-456,-441,-1076,133,-391,211,477,-127,1,0,39,16,680,1,53298,1
2,31222,30855,32272,58881,21618,-5423,-92,-44,461,199,-266,211,479,-123,1,0,39,16,720,1,53298,1
2,31197,30849,32253,58882,21640,-4287,-550,229,1049,-137,381,212,470,-114,1,0,39,16,760,1,53298,1
2,31204,30854,32259,58883,21662,-3850,-1051,121,-285,-222,298,216,468,-124,1,0,39,16,800,1,53298,1
2,31212,30856,32279,58884,21685,-4747,-614,-334,-1024,122,-256,209,465,-125,1,0,39,16,840,1,53298,1
2,31223,30857,32284,58885,21708,-5524,-78,-127,153,221,-352,213,479,-127,1,0,39,16,880,1,53298,1
2,31213,30854,32262,58886,21731,-4479,-456,193,1038,-76,323,213,477,-117,1,0,39,16,920,1,53298,1
2,31203,30853,32253,58887,21754,-3868,-980,165,-72,-230,349,206,474,-120,1,0,39,16,960,1,53298,1
1,31220,30855,32277,58888,0,-4551,-781,-277,-1030,65,-141,200,470,-114,1,0,39,17,0,1,53298,1
2,31217,30855,32274,58889,20787,-5606,-54,-260,-54,196,-406,216,468,-116,1,0,39,17,40,1,53298,1
2,31190,30850,32253,58890,20810,-4678,-332,180,1084,-55,266,216,472,-118,1,0,39,17,80,1,53298,1
2,31183,30849,32252,58891,20833,-3925,-910,243,137,-290,430,215,469,-127,1,0,39,17,120,1,53298,1
2,31191,30850,32261,58892,20856,-4191,-1020,-132,-1028,-57,-6,204,476,-122,1,0,39,17,160,1,53298,1
2,31208,30850,32277,58893,20879,-5495,-164,-408,-442,234,-480,216,474,-124,1,0,39,17,200,1,53298,1
2,31192,30848,32257,58894,20902,-4977,-196,149,1061,98,61,215,475,-121,1,0,39,17,240,1,53298,1
2,31172,30847,32242,58895,20924,-4045,-762,266,516,-206,413,197,467,-119,1,0,39,17,280,1,53298,1
2,31190,30851,32252,58896,20946,-4069,-1030,-17,-866,-93,98,207,471,-127,1,0,39,17,320,1,53298,1
2,31203,30851,32267,58897,20969,-5288,-302,-417,-704,168,-428,211,467,-119,1,0,39,17,360,1,53298,1
2,31188,30848,32259,58898,20991,-5158,-156,79,852,121,-56,214,466,-122,1,0,39,17,400,1,53298,1
2,31163,30844,32238,58899,21013,-4123,-663,253,734,-196,398,214,482,-124,1,0,39,17,440,1,53298,1
2,31180,30845,32240,58900,21034,-3973,-1037,62,-661,-146,176,201,471,-115,1,0,39,17,480,1,53298,1
2,31192,30848,32260,58901,21057,-5058,-403,-396,-834,123,-354,211,477,-129,1,0,39,17,520,1,53298,1
2,31200,30850,32260,58902,21079,-5277,-151,-3,610,166,-169,217,471,-131,1,0,39,17,560,1,53298,1
2,31183,30851,32250,58903,21101,-4238,-583,240,871,-125,367,212,474,-116,1,0,39,17,600,1,53298,1
2,31198,30851,32248,58904,21123,-3948,-1030,107,-444,-166,229,209,467,-111,1,0,39,17,640,1,53298,1
2,31199,30855,32274,58905,21145,-4926,-497,-362,-951,112,-299,210,470,-126,1,0,39,17,680,1,53298,1
2,31201,30854,32266,58906,21168,-5364,-146,-66,431,150,-205,215,465,-133,1,0,39,17,720,1,53298,1
2,31189,30852,32250,58907,21190,-4353,-515,250,933,-121,367,201,471,-113,1,0,39,17,760,1,53298,1
2,31181,30851,32255,58908,21213,-3879,-1027,132,-285,-234,305,216,464,-126,1,0,39,17,800,1,53298,1
2,31220,30855,32265,58909,21235,-4490,-819,-281,-977,107,-164,206,468,-112,1,0,39,17,840,1,53298,1
2,31204,30855,32273,58910,21259,-5533,-127,-276,5,298,-477,214,468,-120,1,0,39,17,880,1,53298,1
2,31180,30852,32256,58911,21281,-4748,-301,190,1207,43,150,209,471,-125,1,0,39,17,920,1,53298,1
2,31171,30850,32247,58912,21304,-4048,-815,200,197,-211,317,217,469,-121,1,0,39,17,960,1,53298,1
1,31190,30854,32264,58913,0,-4456,-815,-167,-1018,-15,-47,212,468,-120,1,0,39,18,0,1,53298,1
2,31189,30855,32267,58914,20339,-5456,-169,-309,-276,63,-303,214,470,-116,1,0,39,18,40,1,53298,1
2,31179,30852,32254,58915,20362,-4751,-346,159,909,-58,216,209,475,-121,1,0,39,18,80,1,53298,1
2,31164,30851,32245,58916,20384,-3975,-854,214,243,-246,419,205,477,-111,1,0,39,18,120,1,53298,1
2,31165,30852,32254,58917,20407,-4043,-1119,-64,-864,-42,85,204,478,-114,1,0,39,18,160,1,53298,1
2,31209,30859,32282,58918,20429,-5480,-172,-427,-554,256,-495,210,476,-128,1,0,39,18,200,1,53298,1
2,31198,30856,32273,58919,20452,-5075,-156,139,1031,134,24,210,480,-130,1,0,39,18,240,1,53298,1
2,31159,30855,32251,58920,20475,-4050,-714,259,603,-200,406,222,472,-126,1,0,39,18,280,1,53298,1
2,31185,30856,32268,58921,20499,-3969,-1094,19,-889,-99,120,211,475,-113,1,0,39,18,320,1,53298,1
2,31201,30860,32287,58922,20522,-5347,-240,-468,-833,172,-476,213,473,-117,1,0,39,18,360,1,53298,1
2,31172,30855,32274,58923,20545,-5296,-56,85,910,131,-78,216,476,-126,1,0,39,18,400,1,53298,1
2,31145,30852,32250,58924,20568,-4072,-645,274,896,-209,473,215,465,-113,1,0,39,18,440,1,53298,1
2,31163,30854,32258,58925,20590,-3828,-1123,97,-655,-187,254,209,469,-121,1,0,39,18,480,1,53298,1
2,31190,30857,32276,58926,20613,-5004,-449,-465,-1070,152,-380,218,468,-118,1,0,39,18,520,1,53298,1
2,31189,30857,32278,58927,20636,-5514,-42,-37,580,203,-253,206,470,-120,1,0,39,18,560,1,53298,1
2,31157,30853,32248,58928,20660,-4261,-486,288,1096,-166,439,209,471,-119,1,0,39,18,600,1,53298,1
2,31158,30853,32249,58929,20683,-3787,-1089,165,-402,-297,364,214,474,-120,1,0,39,18,640,1,53298,1
2,31196,30857,32285,58930,20706,-4660,-740,-379,-1248,60,-212,214,472,-110,1,0,39,18,680,1,53298,1
2,31205,30861,32297,58931,20729,-5652,-64,-205,122,237,-406,213,479,-121,1,0,39,18,720,1,53298,1
2,31190,30858,32260,58932,20752,-4537,-406,232,1267,-47,316,207,467,-123,1,0,39,18,760,1,53298,1
2,31179,30856,32259,58933,20776,-3845,-970,236,26,-261,388,216,474,-124,1,0,39,18,800,1,53298,1
2,31206,30860,32276,58934,20800,-4346,-944,-229,-1216,38,-87,203,475,-125,1,0,39,18,840,1,53298,1
2,31217,30860,32282,58935,20824,-5654,-108,-371,-281,250,-511,208,486,-116,1,0,39,18,880,1,53298,1
2,31198,30858,32263,58936,20849,-4863,-255,196,1253,29,162,204,472,-120,1,0,39,18,920,1,53298,1
2,31192,30856,32254,58937,20872,-3939,-846,265,403,-242,413,209,477,-127,1,0,39,18,960,1,53298,1
1,31209,30857,32273,58938,0,-4199,-998,-109,-1099,-41,-4,214,470,-122,1,0,39,19,0,1,53298,1
2,31220,30859,32281,58939,19892,-5542,-142,-384,-509,159,-424,204,472,-130,1,0,39,19,40,1,53298,1
2,31193,30856,32261,58940,19915,-4954,-216,152,1041,23,118,214,470,-122,1,0,39,19,80,1,53298,1
2,31173,30854,32250,58941,19939,-3970,-796,268,474,-243,449,220,476,-132,1,0,39,19,120,1,53298,1
2,31200,30857,32260,58942,19962,-4016,-1125,-26,-918,-98,105,210,476,-130,1,0,39,19,160,1,53298,1
2,31204,30856,32273,58943,19986,-5429,-172,-447,-685,199,-460,213,469,-123,1,0,39,19,200,1,53298,1
2,31193,30856,32266,58944,20011,-5193,-96,121,998,83,20,206,472,-108,1,0,39,19,240,1,53298,1
2,31184,30854,32259,58945,20036,-4046,-706,304,691,-268,506,212,468,-114,1,0,39,19,280,1,53298,1
2,31177,30854,32255,58946,20061,-3843,-1141,64,-835,-207,236,206,476,-116,1,0,39,19,320,1,53298,1
2,31221,30858,32280,58947,20084,-5106,-379,-486,-959,152,-431,218,474,-124,1,0,39,19,360,1,53298,1
2,31101,30817,32145,58948,20109,-5341,-94,21,736,244,-232,216,470,-122,1,0,39,19,400,1,53298,1
2,30965,30775,31988,58949,20133,-4200,-574,282,1025,-100,366,206,472,-126,1,0,39,19,440,1,53298,1
2,30888,30748,31901,58950,20157,-3883,-1059,150,-510,-173,241,207,479,-105,1,0,39,19,480,1,53298,1
2,30839,30721,31796,58951,20181,-4989,-465,-398,-1096,103,-334,209,467,-121,1,0,39,19,520,1,53298,1
2,30777,30702,31759,58952,20206,-5480,-35,-76,480,138,-234,211,473,-123,1,0,39,19,560,1,53298,1
2,30709,30690,31710,58953,20230,-4298,-516,289,1063,-174,435,212,474,-120,1,0,39,19,600,1,53298,1
2,30684,30690,31695,58954,20254,-3802,-1068,174,-349,-290,364,208,468,-128,1,0,39,19,640,1,53298,1
2,30733,30695,31735,58955,20278,-4704,-710,-361,-1133,43,-211,209,473,-123,1,0,39,19,680,1,53298,1
2,31192,30851,32253,58956,20302,-5637,12,-174,207,217,-379,216,472,-124,1,0,39,19,720,1,53298,1
2,31150,30846,32237,58957,20325,-4511,-377,274,1152,-64,336,209,477,-125,1,0,39,19,760,1,53298,1
2,31172,30851,32245,58958,20349,-3860,-978,249,-80,-299,448,211,469,-127,1,0,39,19,800,1,53298,1
2,31193,30854,32267,58959,20373,-4164,-1114,-182,-1220,17,-53,212,472,-118,1,0,39,19,840,1,53298,1
2,31215,30861,32288,58960,20397,-5782,-13,-488,-347,322,-649,220,478,-118,1,0,39,19,880,1,53298,1
2,31198,30854,32260,58961,20422,-5038,-62,259,1607,82,143,205,479,-111,1,0,39,19,920,1,53298,1
2,31156,30848,32235,58962,20447,-3901,-785,340,636,-345,622,210,478,-114,1,0,39,19,960,1,53298,1
1,31171,30851,32239,58963,0,-3901,-1188,-8,-1300,-235,180,212,462,-114,1,0,39,20,0,0,53298,1
2,31197,30854,32257,58964,19446,-5372,-250,-578,-1065,149,-513,216,466,-120,1,0,39,20,40,0,53298,1
2,31174,30851,32248,58965,19470,-5334,-30,116,1261,200,-111,209,471,-127,1,0,39,20,80,0,53298,1
2,31156,30845,32221,58966,19493,-4056,-618,370,1194,-185,523,216,468,-126,1,0,39,20,120,0,53298,1
2,31171,30850,32239,58967,19517,-3779,-1163,162,-834,-230,281,205,473,-119,1,0,39,20,160,0,53298,1
2,31200,30853,32261,58968,19541,-4888,-573,-511,-1439,131,-425,211,469,-109,1,0,39,20,200,0,53298,1
2,31198,30850,32245,58969,19565,-5655,48,-89,601,315,-397,218,474,-120,1,0,39,20,240,0,53298,1
2,31155,30843,32228,58970,19589,-4336,-424,331,1520,-41,429,210,464,-128,1,0,39,20,280,0,53298,1
2,31166,30845,32218,58971,19612,-3766,-1069,215,-260,-257,371,212,470,-124,1,0,39,20,320,0,53298,1
2,31188,30850,32246,58972,19636,-4523,-870,-340,-1549,94,-231,213,471,-135,1,0,39,20,360,0,53298,1
2,31182,30851,32253,58973,19660,-5746,3,-338,-63,287,-543,212,478,-120,1,0,39,20,400,0,53298,1
2,31172,30845,32220,58974,19683,-4685,-277,267,1649,12,282,218,470,-118,1,0,39,20,440,0,53298,1
2,31166,30845,32214,58975,19706,-3822,-903,313,314,-277,461,212,472,-126,1,0,39,20,480,0,53298,1
2,31179,30848,32230,58976,19729,-4188,-1045,-152,-1404,2,-49,213,469,-121,1,0,39,20,520,0,53298,1
2,31192,30852,32251,58977,19752,-5574,-163,-453,-626,279,-562,210,476,-112,1,0,39,20,560,0,53298,1
2,31186,30850,32232,58978,19775,-5065,-124,180,1393,117,62,222,472,-120,1,0,39,20,600,0,53298,1
2,31172,30846,32220,58979,19798,-3969,-752,314,681,-249,490,214,474,-124,1,0,39,20,640,0,53298,1
2,31204,30852,32235,58980,19821,-3999,-1091,21,-1155,-96,97,217,477,-129,1,0,39,20,680,0,53298,1
2,31204,30853,32253,58981,19844,-5370,-258,-496,-942,196,-494,209,467,-115,1,0,39,20,720,0,53298,1
2,31193,30853,32248,58982,19866,-5234,-70,101,1130,117,-52,215,473,-127,1,0,39,20,760,0,53298,1
2,31183,30852,32237,58983,19889,-4047,-648,310,960,-208,489,215,477,-115,1,0,39,20,800,0,53298,1
2,31206,30853,32249,58984,19912,-3833,-1138,113,-832,-158,206,219,463,-121,1,0,39,20,840,0,53298,1
2,31210,30855,32273,58985,19935,-5052,-433,-492,-1183,181,-450,205,471,-121,1,0,39,20,880,0,53298,1
2,31210,30856,32256,58986,19958,-5472,-3,-15,816,216,-254,212,472,-118,1,0,39,20,920,0,53298,1
2,31196,30853,32242,58987,19981,-4223,-522,311,1208,-139,457,210,476,-122,1,0,39,20,960,0,53298,1
1,31201,30853,32252,58988,0,-3789,-1117,141,-541,-227,305,211,473,-119,1,0,39,21,0,1,53298,1
2,31233,30859,32277,58989,18997,-4805,-597,-426,-1380,115,-334,198,476,-118,1,0,39,21,40,1,53298,1
2,31220,30860,32283,58990,19020,-5592,4,-128,460,218,-350,205,473,-125,1,0,39,21,80,1,53298,1
2,31182,30855,32246,58991,19043,-4427,-425,274,1348,-75,389,214,468,-126,1,0,39,21,120,1,53298,1
2,31202,30855,32249,58992,19066,-3796,-1036,231,-231,-252,367,212,472,-124,1,0,39,21,160,1,53298,1
2,31226,30858,32273,58993,19090,-4541,-836,-320,-1382,74,-211,211,465,-119,1,0,39,21,200,1,53298,1
2,31206,30859,32273,58994,19115,-5651,-50,-291,41,240,-472,215,473,-119,1,0,39,21,240,1,53298,1
2,31196,30856,32255,58995,19139,-4678,-286,245,1449,-4,260,204,464,-120,1,0,39,21,280,1,53298,1
2,31178,30854,32246,58996,19163,-3878,-908,265,150,-242,390,208,470,-116,1,0,39,21,320,1,53298,1
2,31209,30857,32274,58997,19186,-4313,-961,-187,-1323,54,-95,216,476,-130,1,0,39,21,360,1,53298,1
2,31192,30858,32272,58998,19210,-5603,-132,-376,-348,210,-488,218,468,-122,1,0,39,21,400,1,53298,1
2,31173,30853,32235,58999,19233,-4896,-221,195,1326,24,188,208,470,-126,1,0,39,21,440,1,53298,1
2,31180,30853,32244,59000,19257,-3922,-818,284,389,-261,467,207,475,-119,1,0,39,21,480,1,53298,1
2,31202,30857,32248,59001,19280,-4104,-1067,-77,-1192,-69,32,206,474,-108,1,0,39,21,520,1,53298,1
2,31205,30857,32272,59002,19302,-5577,-117,-452,-549,156,-474,218,474,-124,1,0,39,21,560,1,53298,1
2,31180,30855,32248,59003,19325,-5071,-104,156,1200,16,116,215,475,-123,1,0,39,21,600,1,53298,1
2,31159,30850,32225,59004,19348,-3938,-770,330,555,-298,544,210,480,-116,1,0,39,21,640,1,53298,1
2,31171,30850,32233,59005,19371,-3842,-1230,41,-1080,-208,179,216,468,-128,1,0,39,21,680,1,53298,1
2,31195,30855,32265,59006,19394,-5275,-266,-516,-912,232,-511,216,470,-130,1,0,39,21,720,1,53298,1
2,31181,30855,32262,59007,19417,-5209,-104,106,1109,257,-148,210,472,-128,1,0,39,21,760,1,53298,1
2,31173,30853,32235,59008,19440,-4110,-635,315,967,-89,393,214,480,-124,1,0,39,21,800,1,53298,1
2,31186,30854,32246,59009,19463,-3887,-1115,84,-778,-86,153,212,476,-108,1,0,39,21,840,1,53298,1
2,31212,30856,32272,59010,19485,-5289,-262,-508,-1051,170,-506,208,476,-124,1,0,39,21,880,1,53298,1
2,31178,30856,32261,59011,19507,-5351,-37,57,838,145,-144,209,475,-115,1,0,39,21,920,1,53298,1
2,31171,30853,32242,59012,19529,-4098,-615,310,948,-201,476,209,465,-125,1,0,39,21,960,1,53298,1
1,31167,30855,32251,59013,0,-3761,-1181,129,-702,-205,264,212,468,-122,1,0,39,22,0,1,53298,1
2,31200,30858,32276,59014,18550,-4963,-469,-465,-1143,201,-440,204,466,-122,1,0,39,22,40,1,53298,1
2,31191,30859,32265,59015,18574,-5606,61,-45,720,267,-341,214,466,-124,1,0,39,22,80,1,53298,1
2,31167,30855,32242,59016,18597,-4300,-466,323,1284,-116,461,207,473,-113,1,0,39,22,120,1,53298,1
2,31166,30854,32241,59017,18620,-3726,-1131,165,-461,-289,386,211,475,-129,1,0,39,22,160,1,53298,1
2,31183,30859,32273,59018,18642,-4583,-791,-389,-1441,98,-269,214,470,-122,1,0,39,22,200,1,53298,1
2,31192,30861,32272,59019,18665,-5735,8,-266,220,309,-516,215,475,-129,1,0,39,22,240,1,53298,1
2,31170,30855,32255,59020,18688,-4646,-278,277,1593,-1,311,217,467,-129,1,0,39,22,280,1,53298,1
2,31161,30853,32248,59021,18711,-3848,-934,279,70,-298,445,219,465,-121,1,0,39,22,320,1,53298,1
2,31181,30857,32269,59022,18735,-4343,-954,-221,-1446,-13,-91,213,461,-123,1,0,39,22,360,1,53298,1
2,31192,30861,32275,59023,18757,-5562,-151,-391,-338,210,-481,211,473,-109,1,0,39,22,400,1,53298,1
2,31174,30857,32258,59024,18780,-4842,-251,200,1335,48,160,208,476,-128,1,0,39,22,440,1,53298,1
2,31160,30854,32243,59025,18803,-3950,-846,293,426,-227,416,212,464,-128,1,0,39,22,480,1,53298,1
2,31180,30855,32260,59026,18826,-4125,-1040,-69,-1123,-4,13,212,480,-122,1,0,39,22,520,1,53298,1
2,31177,30857,32270,59027,18849,-5446,-214,-429,-637,240,-492,209,477,-117,1,0,39,22,560,1,53298,1
2,31165,30854,32255,59028,18872,-5060,-155,125,1178,103,12,200,478,-118,1,0,39,22,600,1,53298,1
2,31150,30850,32244,59029,18896,-4029,-716,269,687,-200,395,213,479,-125,1,0,39,22,640,1,53298,1
2,31155,30850,32240,59030,18919,-4116,-1002,-16,-924,-56,72,207,469,-123,1,0,39,22,680,1,53298,1
2,31180,30856,32270,59031,18943,-5339,-250,-387,-739,136,-407,210,482,-120,1,0,39,22,720,1,53298,1
2,31167,30853,32249,59032,18966,-5099,-170,86,895,55,46,203,469,-115,1,0,39,22,760,1,53298,1
2,31148,30851,32230,59033,18990,-4060,-709,251,639,-183,431,213,463,-131,1,0,39,22,800,1,53298,1
2,31161,30854,32245,59034,19013,-3916,-1107,74,-754,-53,128,211,471,-123,1,0,39,22,840,1,53298,1
2,31195,30858,32274,59035,19037,-5192,-329,-450,-828,252,-469,220,472,-132,1,0,39,22,880,1,53298,1
2,31176,30854,32262,59036,19061,-5370,-36,43,887,184,-162,205,475,-115,1,0,39,22,920,1,53298,1
2,31137,30851,32234,59037,19084,-4153,-580,279,935,-218,461,210,474,-120,1,0,39,22,960,1,53298,1
1,31137,30851,32245,59038,0,-3813,-1139,115,-665,-233,263,211,473,-129,1,0,39,23,0,1,53298,1
2,31165,30855,32259,59039,18103,-4664,-684,-377,-1146,199,-310,215,477,-133,1,0,39,23,40,1,53298,1
2,31166,30856,32270,59040,18126,-5734,105,-202,412,298,-464,209,477,-113,1,0,39,23,80,1,53298,1
2,31129,30855,32249,59041,18150,-4561,-337,269,1443,-90,350,213,469,-123,1,0,39,23,120,1,53298,1
2,31147,30852,32254,59042,18173,-3833,-972,230,-107,-312,402,210,476,-124,1,0,39,23,160,1,53298,1
2,31158,30855,32258,59043,18195,-4361,-937,-249,-1448,70,-128,219,469,-121,1,0,39,23,200,1,53298,1
2,31169,30856,32261,59044,18219,-5755,-37,-388,-239,226,-483,212,472,-118,1,0,39,23,240,1,53298,1
2,31145,30852,32239,59045,18242,-4819,-257,204,1460,-17,254,205,477,-115,1,0,39,23,280,1,53298,1
2,31144,30849,32233,59046,18265,-3840,-876,309,378,-276,475,215,463,-131,1,0,39,23,320,1,53298,1
2,31154,30853,32243,59047,18288,-4031,-1121,-80,-1257,-39,19,203,471,-123,1,0,39,23,360,1,53298,1
2,31167,30856,32268,59048,18311,-5654,-106,-514,-707,229,-557,211,475,-133,1,0,39,23,400,1,53298,1
2,31147,30851,32244,59049,18334,-5214,-55,164,1302,66,64,206,476,-112,1,0,39,23,440,1,53298,1
2,31137,30850,32229,59050,18357,-3915,-732,334,768,-314,580,200,464,-114,1,0,39,23,480,1,53298,1
2,31145,30852,32247,59051,18380,-3757,-1212,100,-1078,-240,218,210,470,-124,1,0,39,23,520,1,53298,1
2,31172,30856,32267,59052,18403,-5141,-371,-563,-1139,180,-481,212,468,-122,1,0,39,23,560,1,53298,1
2,31165,30853,32256,59053,18427,-5541,35,40,1002,254,-232,208,476,-114,1,0,39,23,600,1,53298,1
2,31149,30848,32229,59054,18450,-4140,-539,349,1308,-149,512,210,474,-124,1,0,39,23,640,1,53298,1
2,31156,30852,32239,59055,18474,-3730,-1173,172,-636,-257,319,206,472,-110,1,0,39,23,680,1,53298,1
2,31167,30857,32275,59056,18497,-5016,-512,-498,-1464,64,-391,212,468,-126,1,0,39,23,720,1,53298,1
2,31177,30859,32268,59057,18520,-5698,80,-99,596,162,-276,205,467,-115,1,0,39,23,760,1,53298,1
2,31141,30852,32240,59058,18543,-4216,-476,348,1418,-170,546,209,469,-119,1,0,39,23,800,1,53298,1
2,31142,30853,32236,59059,18565,-3667,-1123,226,-294,-375,467,209,473,-121,1,0,39,23,840,1,53298,1
2,31191,30860,32270,59060,18588,-4212,-1156,-288,-1486,63,-181,212,466,-126,1,0,39,23,880,1,53298,1
2,31207,30862,32288,59061,18611,-6010,160,-521,-167,459,-783,206,470,-106,1,0,39,23,920,1,53298,1
2,31151,30859,32257,59062,18635,-4962,-63,318,1912,136,215,208,468,-126,1,0,39,23,960,1,53298,1
1,31183,30853,32236,59063,0,-3772,-859,377,500,-334,585,203,477,-113,1,0,39,24,0,0,53298,1
2,31177,30860,32261,59064,17656,-3828,-1278,-6,-1686,-119,81,203,463,-113,1,0,39,24,40,0,53298,1
2,31194,30862,32291,59065,17679,-5667,-132,-678,-1160,258,-715,208,472,-128,1,0,39,24,80,0,53298,1
2,31167,30858,32267,59066,17702,-5434,47,157,1628,258,-89,209,477,-119,1,0,39,24,120,0,53298,1
2,31162,30856,32249,59067,17724,-3907,-643,402,1350,-213,602,209,475,-121,1,0,39,24,160,0,53298,1
2,31171,30859,32256,59068,17746,-3690,-1219,159,-1033,-212,245,205,465,-111,1,0,39,24,200,0,53298,1
2,31205,30865,32290,59069,17768,-4994,-507,-543,-1606,195,-510,209,471,-129,1,0,39,24,240,0,53298,1
2,31185,30861,32275,59070,17791,-5724,85,-103,719,289,-379,212,474,-124,1,0,39,24,280,0,53298,1
2,31176,30857,32259,59071,17815,-4280,-456,344,1612,-109,480,209,471,-117,1,0,39,24,320,0,53298,1
2,31184,30858,32259,59072,17838,-3679,-1109,212,-301,-291,375,212,468,-122,1,0,39,24,360,0,53298,1
2,31197,30862,32273,59073,17860,-4580,-779,-350,-1593,107,-288,214,472,-124,1,0,39,24,400,0,53298,1
2,31211,30861,32280,59074,17884,-5906,93,-304,-16,247,-510,208,474,-120,1,0,39,24,440,0,53298,1
2,31181,30855,32249,59075,17907,-4621,-301,260,1588,-75,388,210,474,-122,1,0,39,24,480,0,53298,1
2,31145,30853,32245,59076,17930,-3719,-996,315,206,-354,525,209,471,-127,1,0,39,24,520,0,53298,1
2,31171,30858,32264,59077,17954,-4071,-1187,-181,-1430,-34,-47,211,471,-127,1,0,39,24,560,0,53298,1
2,31188,30860,32265,59078,17977,-5875,-9,-548,-575,313,-666,211,471,-117,1,0,39,24,600,0,53298,1
2,31155,30853,32248,59079,18000,-5150,-32,242,1650,86,127,218,468,-114,1,0,39,24,640,0,53298,1
2,31096,30831,32184,59080,18023,-3809,-803,366,774,-335,627,215,469,-125,1,0,39,24,680,0,53298,1
2,31124,30840,32215,59081,18046,-3808,-1242,49,-1355,-206,148,215,463,-119,1,0,39,24,720,0,53298,1
2,30630,30681,31685,59082,18068,-5633,-100,-622,-1194,178,-583,202,478,-118,1,0,39,24,760,0,53298,1
2,30568,30673,31608,59083,18091,-5393,36,136,1254,132,-6,210,472,-124,1,0,39,24,800,0,53298,1
2,30553,30669,31582,59084,18113,-3893,-700,396,1124,-290,686,211,467,-123,1,0,39,24,840,0,53298,1
2,30549,30668,31581,59085,18136,-3528,-1326,158,-938,-322,336,212,468,-120,1,0,39,24,880,0,53298,1
2,30555,30672,31610,59086,18158,-4618,-804,-569,-1487,267,-494,208,470,-122,1,0,39,24,920,0,53298,1
2,30547,30669,31602,59087,18180,-6170,264,-230,548,584,-772,208,472,-116,1,0,39,24,960,0,53298,1
1,30513,30664,31562,59088,0,-4575,-201,400,2138,44,435,205,477,-113,1,0,39,25,0,0,53298,1
2,30519,30661,31564,59089,17209,-3636,-1034,348,95,-388,544,211,475,-123,1,0,39,25,40,0,53298,1
2,30527,30666,31577,59090,17232,-4101,-1153,-213,-2006,1,-135,216,478,-116,1,0,39,25,80,0,53298,1
2,30539,30665,31583,59091,17255,-5924,-10,-575,-726,305,-741,208,462,-120,1,0,39,25,120,0,53298,1
2,30506,30663,31564,59092,17278,-5094,-87,238,1873,162,152,208,470,-116,1,0,39,25,160,0,53298,1
2,30491,30661,31549,59093,17301,-3809,-789,362,947,-275,610,210,474,-120,1,0,39,25,200,0,53298,1
2,30511,30664,31571,59094,17323,-3977,-1110,-26,-1334,-173,99,208,476,-114,1,0,39,25,240,0,53298,1
2,30520,30664,31576,59095,17346,-5590,-120,-511,-1052,140,-521,212,476,-122,1,0,39,25,280,0,53298,1
2,30497,30662,31561,59096,17369,-5133,-129,124,1047,61,60,213,477,-131,1,0,39,25,320,0,53298,1
2,30467,30660,31546,59097,17392,-3919,-773,292,840,-235,522,212,480,-120,1,0,39,25,360,0,53298,1
2,30483,30661,31561,59098,17415,-3753,-1246,105,-784,-117,154,207,475,-123,1,0,39,25,400,0,53298,1
2,30504,30664,31580,59099,17438,-5209,-319,-531,-1036,347,-589,212,476,-116,1,0,39,25,440,0,53298,1
2,30477,30663,31569,59100,17462,-5517,36,43,919,278,-265,214,468,-120,1,0,39,25,480,0,53298,1
2,30469,30660,31550,59101,17485,-4183,-553,302,1169,-188,499,208,472,-122,1,0,39,25,520,0,53298,1
2,30467,30661,31561,59102,17509,-3813,-1116,111,-606,-253,288,209,475,-121,1,0,39,25,560,0,53298,1
2,30492,30663,31575,59103,17532,-4969,-492,-410,-1246,91,-382,218,482,-122,1,0,39,25,600,0,53298,1
2,30484,30662,31570,59104,17555,-5486,-33,-51,476,163,-253,218,472,-128,1,0,39,25,640,0,53298,1
2,30460,30660,31545,59105,17577,-4272,-509,285,1057,-134,440,214,472,-108,1,0,39,25,680,0,53298,1
2,30463,30658,31552,59106,17599,-3685,-1171,163,-341,-254,370,213,481,-127,1,0,39,25,720,0,53298,1
2,30494,30663,31581,59107,17621,-4451,-884,-352,-1226,195,-266,216,476,-118,1,0,39,25,760,0,53298,1
2,30493,30663,31578,59108,17644,-5839,40,-305,131,396,-639,214,474,-122,1,0,39,25,800,0,53298,1
2,30465,30660,31559,59109,17666,-4754,-214,268,1582,31,239,197,477,-119,1,0,39,25,840,0,53298,1
2,30482,30656,31555,59110,17688,-3843,-912,274,203,-304,438,214,474,-120,1,0,39,25,880,0,53298,1
2,30513,30663,31570,59111,17711,-4210,-1038,-176,-1427,12,-59,218,464,-124,1,0,39,25,920,0,53298,1
2,30511,30664,31570,59112,17734,-5676,-102,-432,-498,195,-524,214,470,-126,1,0,39,25,960,0,53298,1
1,30489,30661,31558,59113,0,-4986,-188,194,1355,12,177,214,474,-128,1,0,39,26,0,0,53298,1
2,30482,30655,31549,59114,16763,-3891,-823,295,586,-306,530,210,472,-122,1,0,39,26,40,0,53298,1
2,30498,30660,31567,59115,16785,-3904,-1183,3,-1091,-96,99,212,472,-120,1,0,39,26,80,0,53298,1
2,30517,30663,31574,59116,16808,-5479,-201,-517,-870,248,-576,217,471,-129,1,0,39,26,120,0,53298,1
2,30489,30661,31562,59117,16831,-5344,-18,117,1153,154,-60,214,470,-112,1,0,39,26,160,0,53298,1
2,30480,30656,31541,59118,16853,-4022,-652,320,962,-226,541,204,476,-114,1,0,39,26,200,0,53298,1
2,30506,30653,31558,59119,16876,-3747,-1197,104,-862,-206,253,210,476,-108,1,0,39,26,240,0,53298,1
2,30520,30663,31575,59120,16898,-5149,-386,-508,-1214,158,-469,221,471,-133,1,0,39,26,280,0,53298,1
2,30503,30661,31563,59121,16921,-5596,37,-27,808,181,-222,209,461,-129,1,0,39,26,320,0,53298,1
2,30486,30657,31552,59122,16944,-4179,-505,339,1260,-201,543,203,477,-117,1,0,39,26,360,0,53298,1
2,30487,30652,31555,59123,16968,-3669,-1189,184,-493,-341,394,214,472,-118,1,0,39,26,400,0,53298,1
2,30527,30662,31582,59124,16991,-4665,-719,-396,-1411,60,-294,211,465,-123,1,0,39,26,440,0,53298,1
2,30524,30659,31574,59125,17015,-5749,37,-218,271,277,-453,212,472,-130,1,0,39,26,480,0,53298,1
2,30500,30654,31549,59126,17039,-4536,-335,287,1470,-6,350,206,472,-124,1,0,39,26,520,0,53298,1
2,30491,30653,31544,59127,17063,-3759,-986,269,-9,-270,416,208,480,-114,1,0,39,26,560,0,53298,1
2,30518,30659,31571,59128,17087,-4278,-1006,-240,-1440,68,-139,214,476,-106,1,0,39,26,600,0,53298,1
2,30519,30660,31579,59129,17111,-5805,-27,-433,-346,294,-619,210,476,-118,1,0,39,26,640,0,53298,1
2,30514,30657,31559,59130,17135,-4915,-166,230,1529,48,207,215,473,-125,1,0,39,26,680,0,53298,1
2,30498,30648,31548,59131,17158,-3843,-871,305,468,-294,508,206,474,-112,1,0,39,26,720,0,53298,1
2,30515,30657,31564,59132,17182,-4035,-1114,-83,-1320,-45,25,209,473,-121,1,0,39,26,760,0,53298,1
2,30514,30660,31576,59133,17206,-5619,-138,-494,-746,221,-569,217,473,-115,1,0,39,26,800,0,53298,1
2,30503,30657,31556,59134,17230,-5169,-95,168,1307,94,62,205,469,-125,1,0,39,26,840,0,53298,1
2,30472,30652,31540,59135,17255,-3941,-755,311,744,-255,529,209,463,-117,1,0,39,26,880,0,53298,1
2,30500,30649,31558,59136,17279,-3816,-1201,51,-1046,-145,154,212,468,-120,1,0,39,26,920,0,53298,1
2,30527,30660,31579,59137,17303,-5255,-330,-506,-1002,247,-514,212,474,-122,1,0,39,26,960,0,53298,1
1,30517,30656,31564,59138,0,-5440,0,32,974,188,-159,212,470,-122,1,0,39,27,0,0,53298,1
2,30494,30653,31542,59139,16318,-4115,-592,313,1089,-194,511,208,468,-118,1,0,39,27,40,0,53298,1
2,30512,30643,31558,59140,16342,-3737,-1163,132,-668,-225,283,219,479,-117,1,0,39,27,80,0,53298,1
2,30533,30660,31572,59141,16366,-4715,-652,-420,-1243,193,-360,203,475,-125,1,0,39,27,120,0,53298,1
2,30516,30657,31574,59142,16390,-5760,38,-156,397,314,-469,210,462,-120,1,0,39,27,160,0,53298,1
2,30498,30652,31548,59143,16413,-4526,-359,272,1426,-66,345,213,477,-129,1,0,39,27,200,0,53298,1
2,30507,30651,31553,59144,16437,-3860,-986,197,-115,-268,380,214,474,-128,1,0,39,27,240,0,53298,1
2,30533,30659,31573,59145,16459,-4570,-772,-259,-1295,40,-177,211,481,-113,1,0,39,27,280,0,53298,1
2,30525,30659,31572,59146,16483,-5598,-54,-253,-64,137,-348,212,476,-116,1,0,39,27,320,0,53298,1
2,30507,30655,31543,59147,16506,-4597,-370,196,1084,-51,295,207,469,-127,1,0,39,27,360,0,53298,1
2,30495,30647,31548,59148,16529,-3847,-957,238,41,-241,405,206,472,-118,1,0,39,27,400,0,53298,1
2,30527,30653,31560,59149,16552,-4130,-1083,-151,-1058,62,-36,209,463,-117,1,0,39,27,440,0,53298,1
2,30529,30657,31574,59150,16575,-5463,-225,-416,-385,374,-557,213,475,-123,1,0,39,27,480,0,53298,1
2,30514,30656,31559,59151,16598,-5066,-167,124,1202,186,-65,204,480,-118,1,0,39,27,520,0,53298,1
2,30502,30648,31556,59152,16621,-4157,-666,260,699,-171,321,213,467,-121,1,0,39,27,560,0,53298,1
2,30516,30650,31562,59153,16644,-4365,-784,-51,-822,-126,40,216,466,-122,1,0,39,27,600,0,53298,1
2,30534,30659,31577,59154,16667,-5342,-240,-303,-561,-44,-250,215,473,-119,1,0,39,27,640,0,53298,1
2,30518,30656,31560,59155,16691,-4881,-322,87,636,-81,157,208,470,-108,1,0,39,27,680,0,53298,1
2,30511,30656,31555,59156,16714,-4044,-792,211,382,-207,407,212,474,-122,1,0,39,27,720,0,53298,1
2,30530,30662,31558,59157,16735,-4578,-646,-166,-866,-92,25,212,474,-126,1,0,39,27,760,0,53298,1
2,30528,30653,31563,59158,16757,-5198,-261,-117,-343,-5,-79,210,474,-116,1,0,39,27,800,0,53298,1
2,30504,30653,31544,59159,16779,-4430,-565,160,477,-135,351,209,475,-111,1,0,39,27,840,0,53298,1
2,30472,30657,31536,59160,16802,-3705,-1157,174,-94,-201,381,209,469,-119,1,0,39,27,880,0,53298,1
2,30502,30662,31563,59161,16825,-3977,-1254,-233,-782,156,-179,220,474,-124,1,0,39,27,920,0,53298,1
2,30516,30663,31574,59162,16847,-6238,294,-541,-80,587,-1018,219,473,-123,1,0,39,27,960,0,53298,1
1,30483,30655,31542,59163,0,-5134,66,383,2033,168,165,206,472,-122,1,0,39,28,0,0,53298,1
2,30454,30652,31526,59164,15871,-3722,-857,426,636,-441,720,213,463,-121,1,0,39,28,40,0,53298,1
2,30474,30661,31542,59165,15893,-3585,-1442,24,-1808,-319,211,216,478,-122,1,0,39,28,80,0,53298,1
2,30518,30662,31574,59166,15915,-5622,-223,-811,-1443,253,-766,215,475,-123,1,0,39,28,120,0,53298,1
2,30485,30658,31553,59167,15937,-5651,124,157,1667,439,-247,212,472,-124,1,0,39,28,160,0,53298,1
2,30448,30651,31535,59168,15959,-3935,-549,458,1777,-158,656,208,474,-122,1,0,39,28,200,0,53298,1
2,30454,30658,31548,59169,15981,-3531,-1288,211,-868,-339,376,206,476,-120,1,0,39,28,240,0,53298,1
2,30504,30660,31567,59170,16003,-4832,-657,-616,-1936,125,-494,217,471,-121,1,0,39,28,280,0,53298,1
2,30495,30657,31570,59171,16024,-6039,181,-204,296,381,-570,213,473,-123,1,0,39,28,320,0,53298,1
2,30466,30654,31536,59172,16046,-4385,-365,355,1933,-35,521,211,471,-121,1,0,39,28,360,0,53298,1
2,30455,30656,31539,59173,16068,-3547,-1098,325,121,-387,552,216,476,-130,1,0,39,28,400,0,53298,1
2,30490,30662,31566,59174,16089,-4042,-1253,-241,-1680,38,-125,202,468,-114,1,0,39,28,440,0,53298,1
2,30482,30660,31572,59175,16111,-6186,137,-683,-688,405,-860,213,475,-125,1,0,39,28,480,0,53298,1
2,30443,30655,31540,59176,16133,-5182,-36,278,1845,138,179,215,461,-121,1,0,39,28,520,0,53298,1
2,30439,30651,31534,59177,16154,-3678,-832,409,1014,-399,724,207,473,-121,1,0,39,28,560,0,53298,1
2,30470,30659,31560,59178,16175,-3679,-1311,60,-1358,-216,167,214,474,-120,1,0,39,28,600,0,53298,1
2,30470,30661,31569,59179,16197,-5619,-144,-665,-1364,228,-694,207,479,-113,1,0,39,28,640,0,53298,1
2,30451,30657,31548,59180,16219,-5573,71,100,1170,248,-141,212,474,-128,1,0,39,28,680,0,53298,1
2,30451,30654,31541,59181,16242,-3942,-644,370,1365,-227,662,215,475,-119,1,0,39,28,720,0,53298,1
2,30465,30656,31545,59182,16264,-3618,-1277,110,-751,-326,341,216,472,-126,1,0,39,28,760,0,53298,1
2,30485,30656,31568,59183,16286,-5379,-223,-574,-1448,53,-492,212,474,-124,1,0,39,28,800,0,53298,1
2,30471,30652,31551,59184,16308,-5537,34,40,587,130,-124,209,467,-123,1,0,39,28,840,0,53298,1
2,30442,30646,31532,59185,16331,-4005,-634,327,1134,-205,616,201,475,-107,1,0,39,28,880,0,53298,1
2,30467,30639,31544,59186,16354,-3507,-1363,172,-437,-311,414,212,478,-132,1,0,39,28,920,0,53298,1
2,30483,30659,31565,59187,16377,-4957,-462,-551,-1293,204,-492,210,468,-118,1,0,39,28,960,0,53298,1
1,30476,30656,31555,59188,0,-5803,149,-31,639,359,-435,211,473,-129,1,0,39,29,0,1,53298,1
2,30447,30652,31534,59189,15426,-4275,-439,323,1351,-115,500,208,478,-114,1,0,39,29,40,1,53298,1
2,30466,30639,31545,59190,15449,-3536,-1275,206,-350,-411,465,206,470,-120,1,0,39,29,80,1,53298,1
2,30487,30655,31580,59191,15472,-4396,-940,-402,-1589,72,-306,204,476,-122,1,0,39,29,120,1,53298,1
2,30459,30656,31566,59192,15494,-5981,125,-368,66,403,-690,202,476,-108,1,0,39,29,160,1,53298,1
2,30449,30651,31540,59193,15516,-4774,-155,313,1786,75,311,215,479,-121,1,0,39,29,200,1,53298,1
2,30449,30644,31546,59194,15539,-3753,-945,322,251,-352,552,204,470,-116,1,0,39,29,240,1,53298,1
2,30481,30657,31559,59195,15561,-4218,-991,-176,-1540,-66,-54,206,474,-128,1,0,39,29,280,1,53298,1
2,30488,30656,31570,59196,15584,-5575,-119,-404,-518,190,-469,214,466,-124,1,0,39,29,320,1,53298,1
2,30451,30652,31547,59197,15606,-4897,-245,167,1247,79,156,208,472,-130,1,0,39,29,360,1,53298,1
2,30445,30652,31550,59198,15628,-4032,-759,242,505,-195,377,203,471,-117,1,0,39,29,400,1,53298,1
2,30464,30652,31565,59199,15650,-4534,-715,-124,-865,-100,-22,208,488,-110,1,0,39,29,440,1,53298,1
2,30464,30655,31558,59200,15673,-5139,-273,-154,-284,19,-127,209,473,-111,1,0,39,29,480,1,53298,1
2,30451,30653,31548,59201,15696,-4545,-523,92,374,-86,243,214,478,-126,1,0,39,29,520,1,53298,1
2,30464,30653,31548,59202,15718,-4319,-776,6,-130,-174,217,203,469,-129,1,0,39,29,560,1,53298,1
2,30457,30651,31554,59203,15740,-4880,-392,-70,-338,-47,-34,213,463,-119,1,0,39,29,600,1,53298,1
2,30452,30650,31542,59204,15762,-4578,-506,76,119,-47,131,210,466,-116,1,0,39,29,640,1,53298,1
2,30446,30646,31551,59205,15785,-3959,-993,144,-22,-44,207,216,470,-132,1,0,39,29,680,1,53298,1
2,30470,30656,31562,59206,15807,-4591,-708,-387,-551,192,-277,212,474,-120,1,0,39,29,720,1,53298,1
2,30466,30654,31557,59207,15829,-5728,125,-109,391,348,-555,203,469,-125,1,0,39,29,760,1,53298,1
2,30442,30651,31544,59208,15851,-4570,-284,332,1236,-23,319,206,468,-128,1,0,39,29,800,1,53298,1
2,30444,30643,31545,59209,15874,-3752,-1022,261,-293,-340,467,215,477,-105,1,0,39,29,840,1,53298,1
2,30477,30657,31562,59210,15896,-4304,-1070,-396,-1586,-21,-123,212,470,-122,1,0,39,29,880,1,53298,1
2,30498,30654,31576,59211,15918,-6030,142,-357,1,286,-664,214,476,-122,1,0,39,29,920,1,53298,1
2,30453,30650,31542,59212,15941,-4758,-154,355,1972,3,320,216,474,-128,1,0,39,29,960,1,53298,1
1,30438,30637,31546,59213,0,-3672,-971,389,370,-426,636,212,464,-120,1,0,39,30,0,0,53298,1
2,30453,30658,31557,59214,14980,-3622,-1526,-61,-1610,-209,134,217,475,-117,1,0,39,30,40,0,53298,1
2,30507,30663,31593,59215,15002,-5934,91,-831,-1160,530,-859,198,468,-114,1,0,39,30,80,0,53298,1
2,30464,30655,31578,59216,15024,-5462,112,255,1951,415,-108,215,469,-121,1,0,39,30,120,0,53298,1
2,30489,30645,31557,59217,15047,-3807,-649,435,1458,-227,647,207,469,-117,1,0,39,30,160,0,53298,1
2,30547,30651,31570,59218,15069,-3398,-1418,216,-1138,-308,293,209,467,-115,1,0,39,30,200,0,53298,1
2,30535,30663,31593,59219,15092,-5318,-290,-830,-1973,276,-737,217,475,-121,1,0,39,30,240,0,53298,1
2,30519,30656,31571,59220,15115,-6189,305,18,934,334,-467,203,473,-117,1,0,39,30,280,0,53298,1
2,30440,30647,31556,59221,15138,-4017,-425,456,2108,-244,771,214,470,-124,1,0,39,30,320,0,53298,1
2,30519,30640,31552,59222,15160,-3362,-1301,341,-248,-582,605,208,474,-118,1,0,39,30,360,0,53298,1
2,30505,30660,31589,59223,15182,-3967,-1312,-270,-2003,30,-203,206,470,-120,1,0,39,30,400,0,53298,1
2,30561,30661,31594,59224,15205,-6613,382,-724,-702,580,-1067,196,474,-112,1,0,39,30,440,0,53298,1
2,30536,30654,31562,59225,15228,-5136,3,386,2338,235,270,206,474,-118,1,0,39,30,480,0,53298,1
2,30512,30641,31554,59226,15250,-3494,-917,472,1200,-385,811,215,477,-123,1,0,39,30,520,0,53298,1
2,30484,30662,31576,59227,15272,-3379,-1595,115,-1540,-159,165,216,470,-114,1,0,39,30,560,0,53298,1
2,30503,30659,31597,59228,15294,-6047,164,-916,-1926,430,-1013,211,469,-129,1,0,39,30,600,0,53298,1
2,30481,30655,31566,59229,15316,-5765,148,169,1405,368,-173,211,477,-121,1,0,39,30,640,0,53298,1
2,30418,30637,31550,59230,15338,-3729,-672,435,1809,-207,794,207,469,-119,1,0,39,30,680,0,53298,1
2,30449,30645,31565,59231,15359,-3214,-1490,252,-519,-285,441,207,469,-123,1,0,39,30,720,0,53298,1
2,30482,30660,31591,59232,15382,-4826,-590,-733,-1741,439,-700,216,478,-118,1,0,39,30,760,0,53298,1
2,30491,30655,31586,59233,15405,-6402,221,-232,82,658,-937,209,477,-127,1,0,39,30,800,0,53298,1
2,30494,30645,31560,59234,15428,-4527,-233,361,2098,53,281,211,473,-127,1,0,39,30,840,0,53298,1
2,30534,30641,31556,59235,15450,-3502,-1072,362,465,-581,561,212,466,-110,1,0,39,30,880,0,53298,1
2,30496,30656,31593,59236,15473,-4072,-1212,-245,-2025,-245,81,211,473,-121,1,0,39,30,920,0,53298,1
2,30528,30653,31585,59237,15496,-6021,-51,-623,-1174,103,-519,214,478,-122,1,0,39,30,960,0,53298,1
1,30505,30650,31560,59238,0,-5021,-197,198,1660,113,321,205,483,-117,1,0,39,31,0,1,53298,1
2,30480,30645,31555,59239,14534,-3765,-782,388,1492,-174,592,217,469,-131,1,0,39,31,40,1,53298,1
2,30550,30650,31586,59240,14557,-4058,-970,-50,-844,93,-92,211,471,-117,1,0,39,31,80,1,53298,1
2,30562,30649,31585,59241,14580,-5869,54,-376,-1407,300,-762,202,478,-126,1,0,39,31,120,1,53298,1
2,30548,30647,31561,59242,14602,-4885,-371,73,429,42,156,210,472,-120,1,0,39,31,160,1,53298,1
2,30525,30635,31554,59243,14625,-3715,-1010,217,604,-280,595,215,475,-119,1,0,39,31,200,1,53298,1
2,30498,30651,31574,59244,14648,-3485,-1607,-46,-457,-73,222,221,473,-125,1,0,39,31,240,1,53298,1
2,30570,30653,31592,59245,14670,-6179,296,-799,-956,476,-921,218,466,-124,1,0,39,31,280,1,53298,1
2,30558,30647,31562,59246,14693,-5632,180,268,1416,176,6,211,481,-119,1,0,39,31,320,1,53298,1
2,30505,30629,31542,59247,14715,-3715,-677,421,1317,-516,886,207,473,-117,1,0,39,31,360,1,53298,1
2,30498,30625,31551,59248,14737,-3227,-1489,223,-914,-560,475,215,471,-117,1,0,39,31,400,1,53298,1
2,30500,30655,31586,59249,14759,-5154,-380,-852,-1890,204,-737,212,470,-126,1,0,39,31,440,1,53298,1
2,30451,30652,31573,59250,14781,-6199,197,-34,540,557,-656,216,476,-124,1,0,39,31,480,1,53298,1
2,30441,30638,31545,59251,14803,-4156,-366,413,2190,-7,589,212,470,-118,1,0,39,31,520,1,53298,1
2,30438,30638,31549,59252,14825,-3305,-1271,342,213,-452,598,214,478,-124,1,0,39,31,560,1,53298,1
2,30491,30654,31583,59253,14847,-4369,-1027,-536,-2007,80,-337,201,473,-127,1,0,39,31,600,1,53298,1
2,30500,30652,31580,59254,14869,-6343,125,-410,-772,440,-799,204,478,-116,1,0,39,31,640,1,53298,1
2,30496,30647,31547,59255,14891,-4630,-272,279,1853,61,473,208,474,-122,1,0,39,31,680,1,53298,1
2,30430,30625,31543,59256,14913,-3470,-1084,370,860,-483,740,212,474,-120,1,0,39,31,720,1,53298,1
2,30450,30652,31569,59257,14935,-3816,-1365,-174,-1396,-74,-6,211,473,-127,1,0,39,31,760,1,53298,1
2,30471,30654,31582,59258,14957,-6247,164,-653,-1192,409,-971,211,469,-125,1,0,39,31,800,1,53298,1
2,30416,30648,31553,59259,14980,-5206,-59,260,1448,146,147,210,476,-128,1,0,39,31,840,1,53298,1
2,30405,30630,31543,59260,15002,-3671,-868,332,1013,-434,732,211,469,-117,1,0,39,31,880,1,53298,1
2,30464,30646,31567,59261,15024,-3631,-1369,-11,-1110,-221,179,213,471,-119,1,0,39,31,920,1,53298,1
2,30462,30650,31578,59262,15046,-5951,58,-649,-1304,292,-821,211,471,-117,1,0,39,31,960,1,53298,1
1,30485,30648,31556,59263,0,-5414,13,205,1090,211,-1,212,474,-120,1,0,39,32,0,0,53298,1
2,30432,30639,31540,59264,14089,-3813,-760,341,1038,-294,682,208,474,-126,1,0,39,32,40,0,53298,1
2,30462,30646,31555,59265,14111,-3470,-1397,100,-770,-274,310,207,487,-109,1,0,39,32,80,0,53298,1
2,30498,30654,31589,59266,14134,-5472,-125,-636,-1330,309,-725,203,473,-111,1,0,39,32,120,0,53298,1
2,30459,30648,31562,59267,14157,-5657,81,115,797,348,-279,211,475,-123,1,0,39,32,160,0,53298,1
2,30447,30640,31545,59268,14179,-4041,-573,318,1230,-201,593,210,472,-120,1,0,39,32,200,0,53298,1
2,30464,30619,31549,59269,14201,-3510,-1337,158,-467,-361,412,216,466,-118,1,0,39,32,240,0,53298,1
2,30505,30652,31578,59270,14224,-5037,-510,-617,-1425,153,-524,214,472,-122,1,0,39,32,280,0,53298,1
2,30474,30650,31563,59271,14247,-5905,107,-49,359,314,-435,207,469,-127,1,0,39,32,320,0,53298,1
2,30454,30640,31545,59272,14270,-4224,-449,317,1435,-145,569,211,469,-119,1,0,39,32,360,0,53298,1
2,30460,30635,31547,59273,14292,-3477,-1226,218,-96,-424,521,210,472,-116,1,0,39,32,400,0,53298,1
2,30485,30651,31571,59274,14315,-4415,-960,-422,-1494,111,-290,203,467,-111,1,0,39,32,440,0,53298,1
2,30477,30646,31570,59275,14338,-6028,74,-355,-251,421,-730,207,471,-121,1,0,39,32,480,0,53298,1
2,30463,30642,31557,59276,14361,-4730,-231,252,1605,67,330,208,478,-124,1,0,39,32,520,0,53298,1
2,30432,30623,31543,59277,14383,-3684,-972,287,469,-371,579,213,465,-127,1,0,39,32,560,0,53298,1
2,30480,30645,31571,59278,14405,-4093,-1123,-188,-1326,-41,-39,218,478,-116,1,0,39,32,600,0,53298,1
2,30497,30651,31570,59279,14428,-5833,-48,-483,-725,274,-658,207,481,-129,1,0,39,32,640,0,53298,1
2,30465,30646,31555,59280,14450,-4998,-170,195,1271,73,143,203,475,-123,1,0,39,32,680,0,53298,1
2,30453,30631,31550,59281,14472,-3858,-826,280,705,-312,531,217,469,-129,1,0,39,32,720,0,53298,1
2,30470,30643,31564,59282,14494,-3888,-1173,-38,-958,-81,99,209,465,-117,1,0,39,32,760,0,53298,1
2,30500,30653,31570,59283,14517,-5733,-42,-513,-888,250,-628,203,471,-113,1,0,39,32,800,0,53298,1
2,30498,30650,31555,59284,14538,-5240,-64,149,974,100,50,214,476,-110,1,0,39,32,840,0,53298,1
2,30471,30646,31544,59285,14560,-3926,-763,272,746,-294,581,208,474,-126,1,0,39,32,880,0,53298,1
2,30485,30640,31556,59286,14582,-3707,-1274,60,-819,-181,220,206,476,-116,1,0,39,32,920,0,53298,1
2,30516,30651,31573,59287,14605,-5524,-137,-564,-1050,235,-609,219,483,-125,1,0,39,32,960,0,53298,1
1,30500,30645,31558,59288,0,-5466,9,125,914,194,-102,209,463,-119,1,0,39,33,0,1,53298,1
2,30482,30642,31551,59289,13643,-3986,-648,291,1002,-237,588,211,471,-129,1,0,39,33,40,1,53298,1
2,30492,30630,31555,59290,13666,-3569,-1313,141,-642,-290,334,220,466,-126,1,0,39,33,80,1,53298,1
2,30499,30645,31570,59291,13688,-4769,-641,-537,-1226,220,-472,209,477,-113,1,0,39,33,120,1,53298,1
2,30485,30647,31571,59292,13711,-5969,126,-138,427,412,-578,215,475,-121,1,0,39,33,160,1,53298,1
2,30496,30642,31546,59293,13734,-4482,-332,320,1635,-55,434,215,471,-119,1,0,39,33,200,1,53298,1
2,30493,30624,31545,59294,13757,-3689,-1038,244,-22,-386,474,208,472,-122,1,0,39,33,240,1,53298,1
2,30516,30649,31572,59295,13779,-4228,-1049,-262,-1544,50,-120,212,476,-114,1,0,39,33,280,1,53298,1
2,30507,30650,31570,59296,13802,-5979,32,-499,-514,280,-670,209,475,-125,1,0,39,33,320,1,53298,1
2,30462,30645,31553,59297,13825,-4915,-213,226,1567,33,269,210,474,-108,1,0,39,33,360,1,53298,1
2,30472,30638,31547,59298,13847,-3761,-890,327,667,-325,576,212,476,-132,1,0,39,33,400,1,53298,1
2,30515,30647,31561,59299,13870,-3852,-1230,-26,-1221,-90,61,210,474,-124,1,0,39,33,440,1,53298,1
2,30537,30650,31571,59300,13893,-5820,-16,-601,-1020,279,-677,210,478,-126,1,0,39,33,480,1,53298,1
2,30493,30647,31550,59301,13916,-5296,-58,153,1205,155,38,206,476,-116,1,0,39,33,520,1,53298,1
2,30463,30639,31539,59302,13939,-3868,-732,327,960,-272,591,213,467,-121,1,0,39,33,560,1,53298,1
2,30493,30640,31550,59303,13961,-3682,-1300,116,-906,-214,216,212,472,-122,1,0,39,33,600,1,53298,1
2,30516,30649,31570,59304,13984,-5369,-231,-598,-1217,207,-599,208,472,-114,1,0,39,33,640,1,53298,1
2,30499,30646,31554,59305,14007,-5560,48,62,825,228,-180,206,476,-120,1,0,39,33,680,1,53298,1
2,30502,30638,31543,59306,14030,-4043,-582,319,1193,-229,588,215,471,-119,1,0,39,33,720,1,53298,1
2,30485,30625,31553,59307,14052,-3583,-1281,130,-543,-322,367,212,474,-130,1,0,39,33,760,1,53298,1
2,30506,30650,31567,59308,14075,-4844,-608,-545,-1332,166,-453,211,475,-113,1,0,39,33,800,1,53298,1
2,30504,30647,31557,59309,14098,-5906,88,-125,318,323,-487,210,468,-124,1,0,39,33,840,1,53298,1
2,30469,30643,31542,59310,14121,-4373,-390,300,1498,-114,496,213,471,-117,1,0,39,33,880,1,53298,1
2,30476,30626,31536,59311,14143,-3597,-1101,238,-62,-400,497,206,474,-128,1,0,39,33,920,1,53298,1
2,30505,30640,31562,59312,14166,-4112,-1145,-264,-1377,55,-124,210,472,-122,1,0,39,33,960,1,53298,1
1,30524,30646,31572,59313,0,-6020,66,-554,-472,430,-786,208,476,-122,1,0,39,34,0,1,53298,1
2,30476,30643,31550,59314,13198,-5053,-63,288,1626,164,159,211,473,-121,1,0,39,34,40,1,53298,1
2,30471,30630,31544,59315,13220,-3814,-829,334,606,-359,566,208,468,-120,1,0,39,34,80,1,53298,1
2,30509,30646,31554,59316,13243,-3754,-1281,6,-1357,-176,112,217,469,-123,1,0,39,34,120,1,53298,1
2,30541,30648,31574,59317,13265,-5687,-105,-633,-1218,220,-683,210,468,-118,1,0,39,34,160,1,53298,1
2,30488,30641,31553,59318,13288,-5427,-20,120,1253,181,-43,204,480,-124,1,0,39,34,200,1,53298,1
2,30488,30638,31538,59319,13311,-3936,-652,337,1314,-207,598,213,461,-125,1,0,39,34,240,1,53298,1
2,30503,30640,31552,59320,13334,-3597,-1247,162,-628,-185,272,206,476,-110,1,0,39,34,280,1,53298,1
2,30516,30651,31574,59321,13356,-4896,-541,-569,-1316,323,-511,217,475,-129,1,0,39,34,320,1,53298,1
2,30502,30650,31559,59322,13379,-5959,95,-109,384,403,-535,207,473,-129,1,0,39,34,360,1,53298,1
2,30468,30643,31545,59323,13402,-4401,-385,281,1560,-68,470,213,477,-125,1,0,39,34,400,1,53298,1
2,30462,30635,31541,59324,13425,-3653,-1082,235,-49,-407,453,197,477,-119,1,0,39,34,440,1,53298,1
2,30506,30650,31570,59325,13448,-4355,-955,-331,-1531,31,-182,204,464,-122,1,0,39,34,480,1,53298,1
2,30499,30650,31562,59326,13471,-6019,35,-366,-403,220,-601,212,466,-128,1,0,39,34,520,1,53298,1
2,30474,30644,31546,59327,13494,-4741,-290,231,1533,-49,389,214,472,-120,1,0,39,34,560,1,53298,1
2,30462,30634,31544,59328,13517,-3681,-967,320,505,-366,597,212,470,-132,1,0,39,34,600,1,53298,1
2,30496,30643,31564,59329,13540,-3960,-1210,-108,-1245,-48,27,214,464,-118,1,0,39,34,640,1,53298,1
2,30501,30648,31562,59330,13563,-5972,31,-579,-847,269,-691,209,467,-133,1,0,39,34,680,1,53298,1
2,30489,30639,31551,59331,13586,-5090,-135,195,1337,102,192,211,473,-125,1,0,39,34,720,1,53298,1
2,30476,30632,31540,59332,13609,-3772,-830,315,787,-324,625,206,470,-122,1,0,39,34,760,1,53298,1
2,30503,30640,31564,59333,13632,-3645,-1356,40,-994,-165,172,207,473,-121,1,0,39,34,800,1,53298,1
2,30517,30652,31570,59334,13654,-5609,-70,-650,-1100,315,-742,211,477,-131,1,0,39,34,840,1,53298,1
2,30494,30643,31552,59335,13677,-5600,72,150,1154,255,-161,206,474,-118,1,0,39,34,880,1,53298,1
2,30490,30641,31540,59336,13700,-3951,-635,339,1215,-267,637,218,470,-118,1,0,39,34,920,1,53298,1
2,30505,30622,31555,59337,13723,-3511,-1346,153,-665,-334,354,200,472,-110,1,0,39,34,960,1,53298,1
1,30524,30649,31577,59338,0,-4923,-531,-592,-1414,196,-499,202,474,-120,1,0,39,35,0,1,53298,1
2,30516,30643,31557,59339,12754,-5970,134,-102,430,341,-505,209,473,-113,1,0,39,35,40,1,53298,1
2,30468,30638,31543,59340,12776,-4330,-390,323,1619,-90,555,211,469,-129,1,0,39,35,80,1,53298,1
2,30510,30621,31543,59341,12799,-3541,-1139,268,-87,-406,521,210,464,-114,1,0,39,35,120,1,53298,1
2,30517,30643,31573,59342,12822,-4221,-1097,-311,-1508,77,-180,213,475,-119,1,0,39,35,160,1,53298,1
2,30524,30647,31571,59343,12845,-6172,92,-492,-451,377,-777,209,471,-119,1,0,39,35,200,1,53298,1
2,30510,30642,31544,59344,12868,-4911,-161,266,1708,81,295,207,473,-125,1,0,39,35,240,1,53298,1
2,30516,30626,31537,59345,12890,-3683,-899,321,627,-378,606,211,485,-121,1,0,39,35,280,1,53298,1
2,30530,30632,31558,59346,12912,-3835,-1272,-52,-1335,-107,52,197,473,-119,1,0,39,35,320,1,53298,1
2,30537,30646,31573,59347,12935,-5945,17,-635,-1064,252,-769,215,471,-127,1,0,39,35,360,1,53298,1
2,30523,30640,31555,59348,12957,-5267,-45,198,1328,130,86,205,475,-129,1,0,39,35,400,1,53298,1
2,30501,30634,31537,59349,12978,-3804,-786,316,955,-289,662,204,474,-116,1,0,39,35,440,1,53298,1
2,30566,30635,31555,59350,13000,-3595,-1355,119,-946,-211,231,213,467,-123,1,0,39,35,480,1,53298,1
2,30533,30649,31570,59351,13023,-5509,-141,-633,-1245,267,-687,214,472,-120,1,0,39,35,520,1,53298,1
2,30520,30645,31558,59352,13046,-5633,78,101,945,253,-218,212,468,-126,1,0,39,35,560,1,53298,1
2,30475,30639,31537,59353,13069,-3999,-609,300,1214,-216,607,207,473,-123,1,0,39,35,600,1,53298,1
2,30527,30609,31548,59354,13091,-3485,-1346,136,-580,-327,377,207,475,-127,1,0,39,35,640,1,53298,1
2,30533,30649,31570,59355,13114,-4818,-628,-535,-1366,215,-462,207,473,-119,1,0,39,35,680,1,53298,1
2,30530,30649,31567,59356,13137,-6067,178,-121,357,358,-551,202,474,-126,1,0,39,35,720,1,53298,1
2,30502,30633,31538,59357,13159,-4432,-347,325,1501,-81,509,211,467,-119,1,0,39,35,760,1,53298,1
2,30495,30629,31542,59358,13183,-3574,-1108,252,-114,-417,538,209,467,-121,1,0,39,35,800,1,53298,1
2,30530,30636,31569,59359,13206,-4071,-1210,-294,-1492,33,-117,216,470,-112,1,0,39,35,840,1,53298,1
2,30512,30639,31563,59360,13229,-6170,119,-580,-485,382,-801,205,467,-125,1,0,39,35,880,1,53298,1
2,30512,30637,31547,59361,13252,-5077,-63,290,1751,98,251,205,473,-119,1,0,39,35,920,1,53298,1
2,30503,30635,31533,59362,13275,-3693,-876,344,747,-391,693,202,472,-122,1,0,39,35,960,1,53298,1
1,30522,30640,31560,59363,0,-3636,-1357,45,-1328,-204,139,205,477,-111,1,0,39,36,0,0,53298,1
2,30525,30651,31570,59364,12309,-5648,-94,-688,-1273,295,-744,199,473,-113,1,0,39,36,40,0,53298,1
2,30504,30645,31552,59365,12331,-5630,62,132,1233,257,-149,218,472,-120,1,0,39,36,80,0,53298,1
2,30502,30629,31531,59366,12353,-3911,-631,349,1345,-235,665,198,474,-102,1,0,39,36,120,0,53298,1
2,30505,30625,31540,59367,12376,-3484,-1351,159,-689,-309,364,214,464,-126,1,0,39,36,160,0,53298,1
2,30525,30650,31580,59368,12399,-4678,-703,-536,-1432,258,-465,209,479,-125,1,0,39,36,200,0,53298,1
2,30517,30647,31570,59369,12423,-6244,251,-210,282,422,-656,218,476,-118,1,0,39,36,240,0,53298,1
2,30466,30636,31548,59370,12446,-4566,-257,312,1733,-67,483,211,467,-121,1,0,39,36,280,0,53298,1
2,30485,30632,31543,59371,12469,-3600,-1072,282,117,-442,552,212,470,-120,1,0,39,36,320,0,53298,1
2,30530,30650,31567,59372,12492,-3988,-1236,-171,-1570,9,-59,210,472,-122,1,0,39,36,360,0,53298,1
2,30539,30652,31575,59373,12514,-6229,100,-609,-776,323,-821,205,481,-113,1,0,39,36,400,0,53298,1
2,30517,30642,31538,59374,12537,-5106,-116,255,1648,72,250,214,480,-126,1,0,39,36,440,0,53298,1
2,30486,30621,31531,59375,12560,-3649,-892,344,828,-369,681,207,465,-121,1,0,39,36,480,0,53298,1
2,30542,30634,31560,59376,12582,-3595,-1392,45,-1197,-181,166,204,466,-122,1,0,39,36,520,0,53298,1
2,30549,30650,31570,59377,12605,-5748,-25,-708,-1269,314,-776,210,478,-120,1,0,39,36,560,0,53298,1
2,30524,30644,31552,59378,12628,-5513,31,138,1240,259,-87,210,474,-118,1,0,39,36,600,0,53298,1
2,30487,30625,31536,59379,12651,-3908,-659,322,1221,-241,630,209,477,-121,1,0,39,36,640,0,53298,1
2,30532,30631,31550,59380,12674,-3659,-1297,81,-809,-261,270,206,474,-124,1,0,39,36,680,0,53298,1
2,30548,30645,31565,59381,12697,-5529,-109,-555,-1297,120,-551,205,469,-127,1,0,39,36,720,0,53298,1
2,30525,30638,31546,59382,12721,-5492,-3,60,613,112,-73,207,479,-119,1,0,39,36,760,0,53298,1
2,30502,30630,31536,59383,12745,-3961,-678,284,907,-230,608,215,475,-123,1,0,39,36,800,0,53298,1
2,30515,30628,31547,59384,12768,-3472,-1396,156,-499,-280,367,212,472,-124,1,0,39,36,840,0,53298,1
2,30552,30644,31569,59385,12791,-4921,-534,-628,-1100,264,-540,221,475,-129,1,0,39,36,880,0,53298,1
2,30542,30641,31561,59386,12815,-6020,197,-29,582,418,-520,203,473,-123,1,0,39,36,920,0,53298,1
2,30508,30636,31529,59387,12838,-4297,-394,343,1417,-123,553,206,472,-118,1,0,39,36,960,0,53298,1
1,30503,30613,31534,59388,0,-3477,-1213,248,-309,-454,509,207,471,-115,1,0,39,37,0,0,53298,1
2,30533,30645,31576,59389,11864,-4065,-1261,-341,-1547,63,-169,216,468,-122,1,0,39,37,40,0,53298,1
2,30545,30647,31561,59390,11886,-6525,273,-595,-373,453,-957,212,472,-130,1,0,39,37,80,0,53298,1
2,30500,30634,31545,59391,11908,-5038,-10,353,2047,72,333,200,472,-116,1,0,39,37,120,0,53298,1
2,30476,30625,31530,59392,11932,-3518,-964,410,797,-524,811,216,472,-118,1,0,39,37,160,0,53298,1
2,30481,30623,31546,59393,11954,-3441,-1492,63,-1560,-338,196,206,464,-122,1,0,39,37,200,0,53298,1
2,30506,30646,31573,59394,11976,-5593,-161,-892,-1486,421,-856,211,471,-121,1,0,39,37,240,0,53298,1
2,30475,30640,31543,59395,11999,-5967,251,163,1415,494,-368,209,475,-123,1,0,39,37,280,0,53298,1
2,30435,30637,31534,59396,12022,-3915,-509,433,1969,-235,776,202,476,-110,1,0,39,37,320,0,53298,1
2,30442,30619,31537,59397,12045,-3293,-1379,258,-513,-496,505,207,473,-129,1,0,39,37,360,0,53298,1
2,30518,30645,31568,59398,12067,-4565,-853,-637,-2085,130,-445,211,475,-119,1,0,39,37,400,0,53298,1
2,30466,30645,31560,59399,12090,-6382,185,-319,-372,523,-852,216,470,-120,1,0,39,37,440,0,53298,1
2,30452,30639,31533,59400,12113,-4562,-249,357,2117,37,489,209,477,-125,1,0,39,37,480,0,53298,1
2,30416,30600,31525,59401,12136,-3437,-1062,389,722,-485,709,208,470,-120,1,0,39,37,520,0,53298,1
2,30473,30645,31564,59402,12158,-3857,-1357,-165,-1608,-30,-4,204,468,-116,1,0,39,37,560,0,53298,1
2,30487,30647,31566,59403,12181,-6454,190,-688,-1328,452,-1030,214,470,-124,1,0,39,37,600,0,53298,1
2,30434,30636,31541,59404,12204,-5180,-67,265,1620,139,216,208,468,-128,1,0,39,37,640,0,53298,1
2,30406,30596,31525,59405,12227,-3576,-907,382,1161,-439,797,203,473,-115,1,0,39,37,680,0,53298,1
2,30483,30637,31555,59406,12249,-3440,-1510,42,-1183,-241,221,205,469,-115,1,0,39,37,720,0,53298,1
2,30504,30646,31573,59407,12272,-6063,186,-809,-1544,394,-953,213,475,-119,1,0,39,37,760,0,53298,1
2,30481,30640,31547,59408,12295,-5665,161,234,1156,303,-111,210,476,-122,1,0,39,37,800,0,53298,1
2,30438,30632,31527,59409,12316,-3753,-699,344,1316,-338,804,204,468,-114,1,0,39,37,840,0,53298,1
2,30490,30619,31545,59410,12338,-3315,-1480,144,-754,-399,429,212,476,-126,1,0,39,37,880,0,53298,1
2,30530,30643,31574,59411,12360,-5153,-352,-704,-1600,284,-668,211,481,-109,1,0,39,37,920,0,53298,1
2,30517,30640,31555,59412,12383,-6004,196,41,513,428,-504,217,471,-125,1,0,39,37,960,0,53298,1
1,30490,30634,31533,59413,0,-4160,-468,354,1586,-157,630,204,476,-128,1,0,39,38,0,1,53298,1
2,30479,30598,31536,59414,11419,-3346,-1333,227,-119,-469,561,212,470,-112,1,0,39,38,40,1,53298,1
2,30536,30637,31574,59415,11441,-4379,-1002,-525,-1596,109,-345,209,469,-125,1,0,39,38,80,1,53298,1
2,30530,30640,31569,59416,11465,-6409,222,-300,-330,480,-861,200,478,-110,1,0,39,38,120,1,53298,1
2,30487,30637,31538,59417,11487,-4679,-220,332,1773,-7,448,210,470,-124,1,0,39,38,160,1,53298,1
2,30479,30608,31526,59418,11509,-3486,-1085,356,544,-514,727,211,471,-121,1,0,39,38,200,1,53298,1
2,30545,30646,31568,59419,11531,-3963,-1298,-242,-1615,-68,-32,211,477,-115,1,0,39,38,240,1,53298,1
2,30567,30648,31573,59420,11554,-6254,131,-570,-990,382,-840,215,481,-125,1,0,39,38,280,1,53298,1
2,30512,30641,31550,59421,11576,-5032,-149,241,1442,109,227,210,468,-124,1,0,39,38,320,1,53298,1
2,30507,30609,31538,59422,11599,-3640,-959,346,865,-402,721,210,474,-120,1,0,39,38,360,1,53298,1
2,30526,30613,31563,59423,11621,-3445,-1516,23,-1030,-168,189,210,468,-120,1,0,39,38,400,1,53298,1
2,30544,30649,31576,59424,11644,-6095,250,-816,-1250,470,-957,207,483,-113,1,0,39,38,440,1,53298,1
2,30514,30635,31551,59425,11666,-5738,211,237,1286,290,-162,204,476,-124,1,0,39,38,480,1,53298,1
2,30489,30630,31535,59426,11688,-3749,-689,372,1389,-400,810,208,474,-126,1,0,39,38,520,1,53298,1
2,30480,30593,31558,59427,11709,-3289,-1514,154,-778,-461,439,213,469,-119,1,0,39,38,560,1,53298,1
2,30527,30642,31579,59428,11731,-4962,-509,-688,-1713,273,-604,212,472,-128,1,0,39,38,600,1,53298,1
2,30518,30643,31570,59429,11753,-6187,205,-93,410,471,-602,211,475,-123,1,0,39,38,640,1,53298,1
2,30481,30630,31544,59430,11776,-4312,-385,358,1797,-91,589,212,468,-122,1,0,39,38,680,1,53298,1
2,30498,30618,31545,59431,11797,-3410,-1201,283,106,-492,596,205,469,-111,1,0,39,38,720,1,53298,1
2,30521,30642,31573,59432,11820,-4263,-1079,-412,-1706,93,-243,207,473,-115,1,0,39,38,760,1,53298,1
2,30522,30639,31572,59433,11843,-6397,189,-452,-639,408,-837,212,472,-116,1,0,39,38,800,1,53298,1
2,30475,30638,31546,59434,11866,-4811,-230,282,1678,17,379,209,475,-119,1,0,39,38,840,1,53298,1
2,30483,30608,31540,59435,11889,-3528,-1042,348,708,-465,730,203,473,-117,1,0,39,38,880,1,53298,1
2,30527,30633,31569,59436,11912,-3756,-1425,-138,-1389,-87,52,199,475,-109,1,0,39,38,920,1,53298,1
2,30564,30646,31584,59437,11934,-6171,141,-677,-1118,430,-877,207,465,-115,1,0,39,38,960,1,53298,1
1,30530,30641,31555,59438,0,-5325,-2,250,1408,187,68,208,464,-128,1,0,39,39,0,1,53298,1
2,30487,30630,31541,59439,10975,-3693,-834,346,1057,-387,713,201,471,-113,1,0,39,39,40,1,53298,1
2,30545,30634,31567,59440,10998,-3465,-1455,86,-997,-257,270,206,478,-124,1,0,39,39,80,1,53298,1
2,30547,30642,31583,59441,11020,-5685,15,-688,-1319,338,-778,209,479,-115,1,0,39,39,120,1,53298,1
2,30527,30640,31564,59442,11043,-5679,118,159,973,299,-213,211,469,-117,1,0,39,39,160,1,53298,1
2,30522,30637,31549,59443,11064,-3925,-643,347,1235,-267,654,216,468,-120,1,0,39,39,200,1,53298,1
2,30549,30634,31561,59444,11087,-3452,-1402,125,-613,-351,398,206,476,-118,1,0,39,39,240,1,53298,1
2,30558,30644,31575,59445,11109,-5133,-374,-582,-1442,220,-540,211,483,-121,1,0,39,39,280,1,53298,1
2,30523,30642,31561,59446,11132,-5831,98,-15,462,298,-389,202,474,-122,1,0,39,39,320,1,53298,1
2,30505,30641,31548,59447,11154,-4181,-523,299,1301,-178,559,206,468,-124,1,0,39,39,360,1,53298,1
2,30506,30636,31550,59448,11176,-3467,-1303,178,-176,-395,479,215,469,-113,1,0,39,39,400,1,53298,1
2,30526,30648,31573,59449,11199,-4637,-755,-453,-1384,143,-357,207,473,-125,1,0,39,39,440,1,53298,1
2,30534,30645,31573,59450,11222,-6040,133,-186,-9,351,-578,210,478,-112,1,0,39,39,480,1,53298,1
2,30506,30641,31555,59451,11245,-4529,-366,268,1340,-65,413,223,477,-121,1,0,39,39,520,1,53298,1
2,30511,30609,31555,59452,11267,-3594,-1091,260,138,-395,545,206,470,-124,1,0,39,39,560,1,53298,1
2,30556,30637,31583,59453,11290,-4167,-1125,-300,-1296,44,-124,212,470,-126,1,0,39,39,600,1,53298,1
2,30548,30642,31576,59454,11313,-6127,139,-442,-421,381,-731,213,469,-121,1,0,39,39,640,1,53298,1
2,30519,30640,31559,59455,11335,-4933,-180,265,1473,31,264,214,470,-116,1,0,39,39,680,1,53298,1
2,30518,30627,31550,59456,11358,-3691,-944,316,528,-402,633,211,479,-115,1,0,39,39,720,1,53298,1
2,30538,30621,31580,59457,11381,-3691,-1369,-52,-1199,-112,91,219,471,-121,1,0,39,39,760,1,53298,1
2,30548,30650,31584,59458,11403,-5790,-5,-660,-933,398,-763,209,471,-125,1,0,39,39,800,1,53298,1
2,30534,30645,31575,59459,11425,-5491,51,189,1315,252,-95,208,476,-132,1,0,39,39,840,1,53298,1
2,30502,30629,31553,59460,11449,-3876,-687,344,1136,-295,626,209,475,-117,1,0,39,39,880,1,53298,1
2,30539,30614,31569,59461,11472,-3626,-1295,93,-861,-268,274,214,464,-124,1,0,39,39,920,1,53298,1
2,30551,30647,31587,59462,11496,-5227,-331,-547,-1353,231,-558,209,473,-119,1,0,39,39,960,1,53298,1
1,30529,30640,31575,59463,0,-5670,42,-1,636,264,-291,207,475,-121,1,0,39,40,0,1,53298,1
2,30504,30629,31551,59464,10531,-4165,-557,300,1262,-170,519,205,465,-111,1,0,39,40,40,1,53298,1
2,30533,30629,31570,59465,10554,-3568,-1256,136,-282,-315,386,216,468,-116,1,0,39,40,80,1,53298,1
2,30554,30644,31586,59466,10577,-4673,-725,-426,-1271,180,-357,202,482,-126,1,0,39,40,120,1,53298,1
2,30545,30643,31574,59467,10600,-5963,85,-160,80,315,-512,208,474,-116,1,0,39,40,160,1,53298,1
2,30507,30639,31558,59468,10623,-4515,-381,241,1314,-91,419,209,471,-113,1,0,39,40,200,1,53298,1
2,30549,30632,31559,59469,10645,-3641,-1069,240,65,-365,487,204,476,-126,1,0,39,40,240,1,53298,1
2,30549,30646,31585,59470,10668,-4296,-1017,-309,-1264,58,-139,212,474,-114,1,0,39,40,280,1,53298,1
2,30541,30647,31576,59471,10691,-5960,49,-398,-319,312,-603,209,465,-115,1,0,39,40,320,1,53298,1
2,30515,30643,31555,59472,10714,-4841,-222,229,1340,-1,271,213,477,-131,1,0,39,40,360,1,53298,1
2,30520,30628,31553,59473,10736,-3768,-935,273,399,-363,545,210,468,-120,1,0,39,40,400,1,53298,1
2,30550,30633,31570,59474,10758,-3763,-1301,-43,-1062,-61,63,211,477,-121,1,0,39,40,440,1,53298,1
2,30552,30650,31589,59475,10781,-5617,-122,-598,-805,417,-710,207,473,-115,1,0,39,40,480,1,53298,1
2,30533,30645,31570,59476,10804,-5524,45,148,1258,295,-177,210,474,-118,1,0,39,40,520,1,53298,1
2,30517,30638,31560,59477,10826,-3980,-616,324,1175,-264,570,205,469,-121,1,0,39,40,560,1,53298,1
2,30552,30635,31568,59478,10849,-3711,-1216,114,-801,-270,284,214,466,-122,1,0,39,40,600,1,53298,1
2,30569,30651,31586,59479,10871,-5215,-344,-538,-1438,138,-478,222,474,-130,1,0,39,40,640,1,53298,1
2,30544,30645,31575,59480,10893,-5617,23,-9,544,172,-218,212,478,-128,1,0,39,40,680,1,53298,1
2,30533,30639,31552,59481,10916,-4105,-574,292,1220,-200,547,216,470,-118,1,0,39,40,720,1,53298,1
2,30525,30617,31556,59482,10938,-3529,-1266,147,-264,-332,413,219,471,-123,1,0,39,40,760,1,53298,1
2,30552,30647,31586,59483,10960,-4517,-838,-430,-1291,206,-306,205,461,-129,1,0,39,40,800,1,53298,1
2,30553,30649,31573,59484,10982,-6119,143,-273,-1,405,-668,205,481,-115,1,0,39,40,840,1,53298,1
2,30503,30641,31553,59485,11004,-4649,-279,283,1590,-52,390,210,464,-116,1,0,39,40,880,1,53298,1
2,30520,30628,31550,59486,11026,-3643,-1009,297,236,-430,541,205,471,-115,1,0,39,40,920,1,53298,1
2,30555,30646,31582,59487,11048,-4066,-1163,-205,-1468,-17,-63,211,471,-121,1,0,39,40,960,1,53298,1
1,30555,30646,31576,59488,0,-6081,67,-544,-693,332,-708,208,470,-120,1,0,39,41,0,0,53298,1
2,30545,30642,31553,59489,10086,-5052,-118,225,1486,65,209,203,473,-133,1,0,39,41,40,0,53298,1
2,30528,30640,31552,59490,10108,-3745,-878,309,763,-354,635,210,470,-124,1,0,39,41,80,0,53298,1
2,30556,30642,31568,59491,10130,-3797,-1272,-8,-1163,-165,115,217,471,-119,1,0,39,41,120,0,53298,1
2,30555,30645,31572,59492,10152,-5685,-74,-603,-986,241,-630,198,484,-118,1,0,39,41,160,0,53298,1
2,30531,30635,31558,59493,10174,-5313,-40,153,1055,160,-21,211,469,-123,1,0,39,41,200,0,53298,1
2,30519,30621,31542,59494,10196,-3897,-735,289,881,-267,579,213,471,-119,1,0,39,41,240,0,53298,1
2,30549,30616,31563,59495,10219,-3598,-1324,111,-724,-216,245,206,466,-122,1,0,39,41,280,0,53298,1
2,30565,30646,31583,59496,10241,-4904,-534,-554,-1019,339,-535,211,471,-115,1,0,39,41,320,0,53298,1
2,30544,30630,31573,59497,10264,-5901,93,-75,636,446,-539,204,478,-114,1,0,39,41,360,0,53298,1
2,30519,30634,31555,59498,10286,-4474,-352,286,1510,-80,404,208,470,-122,1,0,39,41,400,0,53298,1
2,30534,30628,31562,59499,10309,-3817,-991,188,-157,-345,387,216,474,-126,1,0,39,41,440,0,53298,1
2,30560,30647,31577,59500,10331,-4593,-786,-309,-1379,17,-165,220,474,-122,1,0,39,41,480,0,53298,1
2,30553,30646,31571,59501,10353,-5548,-126,-219,-80,106,-320,203,471,-111,1,0,39,41,520,0,53298,1
2,30540,30637,31562,59502,10376,-4577,-453,169,1039,-67,284,208,466,-110,1,0,39,41,560,0,53298,1
2,30541,30637,31562,59503,10398,-3878,-942,186,167,-220,350,207,463,-123,1,0,39,41,600,0,53298,1
2,30565,30646,31581,59504,10420,-4282,-958,-192,-901,142,-73,208,470,-122,1,0,39,41,640,0,53298,1
2,30554,30645,31583,59505,10442,-5780,-22,-373,-345,282,-525,216,470,-122,1,0,39,41,680,0,53298,1
2,30540,30642,31562,59506,10464,-4885,-274,171,1023,-60,212,204,476,-120,1,0,39,41,720,0,53298,1
2,30542,30639,31560,59507,10486,-3885,-882,231,284,-310,447,212,478,-120,1,0,39,41,760,0,53298,1
2,30553,30649,31579,59508,10507,-3968,-1163,-81,-977,-38,61,213,477,-117,1,0,39,41,800,0,53298,1
2,30569,30651,31583,59509,10528,-5707,-81,-488,-612,269,-553,212,474,-122,1,0,39,41,840,0,53298,1
2,30539,30643,31562,59510,10550,-5205,-73,176,1039,70,74,211,473,-119,1,0,39,41,880,0,53298,1
2,30529,30641,31554,59511,10572,-3930,-746,288,580,-300,544,206,476,-112,1,0,39,41,920,0,53298,1
2,30546,30633,31569,59512,10594,-3731,-1253,46,-902,-184,220,219,473,-127,1,0,39,41,960,0,53298,1
1,30565,30645,31580,59513,0,-5146,-384,-563,-910,273,-513,205,473,-119,1,0,39,42,0,0,53298,1
2,30542,30644,31569,59514,9642,-5672,70,11,815,286,-305,213,469,-123,1,0,39,42,40,0,53298,1
2,30523,30632,31551,59515,9664,-4187,-500,304,1183,-194,514,199,473,-111,1,0,39,42,80,0,53298,1
2,30544,30641,31564,59516,9686,-3638,-1170,163,-535,-348,400,213,467,-117,1,0,39,42,120,0,53298,1
2,30567,30648,31578,59517,9708,-4454,-934,-392,-1344,128,-217,214,466,-130,1,0,39,42,160,0,53298,1
2,30569,30645,31582,59518,9730,-6058,73,-363,43,342,-607,209,479,-113,1,0,39,42,200,0,53298,1
2,30539,30638,31555,59519,9753,-4748,-210,287,1577,-31,313,212,468,-108,1,0,39,42,240,0,53298,1
2,30545,30643,31550,59520,9774,-3759,-954,291,254,-386,516,210,466,-120,1,0,39,42,280,0,53298,1
2,30565,30643,31572,59521,9796,-3967,-1207,-105,-1382,-70,29,218,464,-120,1,0,39,42,320,0,53298,1
2,30580,30648,31584,59522,9818,-5836,-42,-599,-713,267,-615,204,474,-114,1,0,39,42,360,0,53298,1
2,30535,30641,31563,59523,9840,-5202,-72,185,1309,128,80,214,470,-122,1,0,39,42,400,0,53298,1
2,30548,30637,31545,59524,9863,-3855,-777,315,832,-270,570,208,472,-118,1,0,39,42,440,0,53298,1
2,30560,30623,31570,59525,9886,-3658,-1273,104,-947,-169,202,216,468,-126,1,0,39,42,480,0,53298,1
2,30576,30652,31587,59526,9908,-5120,-419,-587,-1044,284,-519,213,477,-127,1,0,39,42,520,0,53298,1
2,30571,30644,31577,59527,9932,-5841,111,-21,763,294,-376,209,469,-119,1,0,39,42,560,0,53298,1
2,30550,30636,31542,59528,9954,-4207,-463,329,1391,-218,535,213,475,-123,1,0,39,42,600,0,53298,1
2,30540,30631,31545,59529,9977,-3567,-1174,215,-391,-379,414,212,478,-128,1,0,39,42,640,0,53298,1
2,30583,30648,31585,59530,9999,-4295,-1036,-347,-1449,135,-202,214,474,-126,1,0,39,42,680,0,53298,1
2,30578,30649,31580,59531,10022,-6198,148,-484,-139,387,-703,202,466,-102,1,0,39,42,720,0,53298,1
2,30542,30646,31546,59532,10044,-4901,-155,271,1688,58,270,214,474,-124,1,0,39,42,760,0,53298,1
2,30546,30636,31543,59533,10066,-3690,-932,326,500,-368,583,215,479,-123,1,0,39,42,800,0,53298,1
2,30572,30642,31568,59534,10087,-3824,-1261,-51,-1399,-109,72,217,481,-119,1,0,39,42,840,0,53298,1
2,30566,30640,31581,59535,10110,-5762,-65,-636,-947,278,-651,214,478,-118,1,0,39,42,880,0,53298,1
2,30541,30637,31562,59536,10132,-5380,2,150,1261,169,-13,215,469,-129,1,0,39,42,920,0,53298,1
2,30535,30634,31545,59537,10154,-3855,-705,328,1055,-306,606,208,480,-114,1,0,39,42,960,0,53298,1
1,30559,30633,31568,59538,0,-3608,-1298,127,-857,-248,255,213,475,-121,1,0,39,43,0,1,53298,1
2,30585,30646,31590,59539,9199,-5140,-396,-561,-1283,236,-517,207,483,-121,1,0,39,43,40,1,53298,1
2,30565,30638,31567,59540,9222,-5812,86,-45,589,265,-353,210,472,-126,1,0,39,43,80,1,53298,1
2,30531,30633,31549,59541,9244,-4189,-503,314,1306,-196,546,209,477,-127,1,0,39,43,120,1,53298,1
2,30548,30634,31555,59542,9267,-3549,-1175,213,-316,-362,431,210,474,-124,1,0,39,43,160,1,53298,1
2,30564,30648,31587,59543,9290,-4230,-1092,-325,-1318,151,-190,208,472,-122,1,0,39,43,200,1,53298,1
2,30560,30646,31585,59544,9313,-6271,185,-521,-177,409,-746,203,463,-121,1,0,39,43,240,1,53298,1
2,30535,30642,31553,59545,9335,-4972,-107,287,1677,15,270,208,474,-120,1,0,39,43,280,1,53298,1
2,30530,30635,31554,59546,9357,-3669,-922,338,570,-434,616,210,478,-118,1,0,39,43,320,1,53298,1
2,30565,30643,31576,59547,9379,-3612,-1380,18,-1320,-151,128,212,478,-120,1,0,39,43,360,1,53298,1
2,30584,30645,31592,59548,9401,-5724,-51,-727,-1080,370,-726,212,470,-122,1,0,39,43,400,1,53298,1
2,30556,30644,31566,59549,9423,-5713,132,147,1261,283,-189,212,478,-128,1,0,39,43,440,1,53298,1
2,30536,30643,31545,59550,9445,-3883,-626,357,1374,-289,661,208,478,-124,1,0,39,43,480,1,53298,1
2,30527,30642,31567,59551,9467,-3471,-1332,142,-720,-348,342,206,468,-120,1,0,39,43,520,1,53298,1
2,30553,30649,31587,59552,9488,-4915,-584,-552,-1534,169,-404,214,480,-118,1,0,39,43,560,1,53298,1
2,30522,30640,31573,59553,9510,-5917,48,-158,246,282,-445,200,470,-118,1,0,39,43,600,1,53298,1
2,30515,30643,31553,59554,9533,-4315,-458,288,1460,-112,489,209,469,-125,1,0,39,43,640,1,53298,1
2,30528,30628,31556,59555,9555,-3545,-1133,258,35,-356,464,217,463,-127,1,0,39,43,680,1,53298,1
2,30549,30644,31587,59556,9577,-4204,-1035,-247,-1257,125,-151,202,474,-116,1,0,39,43,720,1,53298,1
2,30543,30646,31582,59557,9600,-6246,167,-509,-468,378,-746,214,466,-124,1,0,39,43,760,1,53298,1
2,30534,30640,31552,59558,9622,-4919,-191,222,1417,-14,276,213,479,-127,1,0,39,43,800,1,53298,1
2,30540,30627,31550,59559,9645,-3641,-966,302,603,-397,602,211,475,-121,1,0,39,43,840,1,53298,1
2,30577,30642,31584,59560,9667,-3798,-1273,-46,-1150,-76,86,211,477,-127,1,0,39,43,880,1,53298,1
2,30569,30647,31587,59561,9690,-5973,99,-605,-929,322,-708,213,473,-121,1,0,39,43,920,1,53298,1
2,30548,30641,31555,59562,9711,-5293,-36,176,1172,93,58,219,477,-121,1,0,39,43,960,1,53298,1
1,30546,30635,31545,59563,0,-3771,-803,314,896,-324,602,206,478,-114,1,0,39,44,0,0,53298,1
2,30572,30643,31569,59564,8755,-3537,-1359,116,-815,-193,215,217,469,-117,1,0,39,44,40,0,53298,1
2,30573,30645,31585,59565,8777,-5425,-156,-600,-1132,352,-629,205,479,-125,1,0,39,44,80,0,53298,1
2,30545,30635,31568,59566,8799,-5738,94,73,811,275,-267,206,466,-120,1,0,39,44,120,0,53298,1
2,30544,30636,31539,59567,8821,-4009,-593,321,1175,-234,581,217,469,-121,1,0,39,44,160,0,53298,1
2,30565,30631,31556,59568,8843,-3472,-1342,139,-512,-351,400,208,470,-128,1,0,39,44,200,0,53298,1
2,30584,30644,31580,59569,8865,-4800,-630,-523,-1411,225,-367,210,476,-118,1,0,39,44,240,0,53298,1
2,30555,30639,31563,59570,8887,-6023,95,-140,247,295,-481,208,482,-128,1,0,39,44,280,0,53298,1
2,30536,30635,31544,59571,8910,-4385,-422,265,1451,-131,488,201,469,-113,1,0,39,44,320,0,53298,1
2,30539,30630,31543,59572,8933,-3550,-1130,251,34,-385,470,205,473,-123,1,0,39,44,360,0,53298,1
2,30570,30642,31581,59573,8956,-4089,-1136,-191,-1272,138,-148,208,474,-110,1,0,39,44,400,0,53298,1
