sensorStatus,cap1,cap2,cap3,counter,microseconds_since_last_tick,accX,accY,accZ,gyroX,gyroY,gyroZ,magnetX,magnetY,magnetZ,day,hour,min,sec,msec,sync,battery_fuel,crc_good
1,27788,30699,31882,52489,19592,-4388,-1185,-971,119,98,-56,228,446,-192,1,0,35,1,40,0,53298,1
2,27788,30700,31885,52490,19594,-4380,-1188,-961,125,105,-58,213,447,-205,1,0,35,1,80,0,53298,1
2,27791,30700,31885,52491,19597,-4375,-1201,-978,60,34,-29,222,440,-202,1,0,35,1,120,0,53298,1
2,27817,30700,31883,52492,19599,-4381,-1190,-952,-37,-42,14,223,445,-205,1,0,35,1,160,0,53298,1
2,27842,30700,31887,52493,19602,-4383,-1194,-953,-80,-77,55,218,446,-196,1,0,35,1,200,0,53298,1
2,27832,30700,31879,52494,19605,-4388,-1191,-951,-81,-67,47,214,452,-198,1,0,35,1,240,0,53298,1
2,27813,30700,31886,52495,19607,-4383,-1181,-946,-22,-47,33,212,452,-194,1,0,35,1,280,0,53298,1
2,27813,30700,31882,52496,19608,-4390,-1198,-960,-9,-14,22,226,450,-192,1,0,35,1,320,0,53298,1
2,27821,30700,31878,52497,19611,-4385,-1196,-947,3,-5,17,217,443,-193,1,0,35,1,360,0,53298,1
2,27806,30700,31881,52498,19613,-4386,-1192,-949,4,-4,16,220,450,-200,1,0,35,1,400,0,53298,1
2,27804,30700,31880,52499,19616,-4390,-1191,-967,-2,2,2,218,450,-200,1,0,35,1,440,0,53298,1
2,27785,30700,31882,52500,19619,-4388,-1201,-956,-13,-14,13,218,438,-198,1,0,35,1,480,0,53298,1
2,27783,30700,31890,52501,19621,-4380,-1189,-946,-9,-21,13,222,440,-194,1,0,35,1,520,0,53298,1
2,27791,30700,31883,52502,19624,-4366,-1183,-953,-11,-28,17,217,445,-193,1,0,35,1,560,0,53298,1
2,27760,30700,31880,52503,19626,-4393,-1205,-942,-17,-19,20,215,441,-191,1,0,35,1,600,0,53298,1
2,27764,30700,31886,52504,19628,-4388,-1194,-950,-15,-18,19,218,452,-198,1,0,35,1,640,0,53298,1
2,27770,30700,31883,52505,19630,-4378,-1196,-961,-1,-16,12,218,444,-204,1,0,35,1,680,0,53298,1
2,27759,30701,31887,52506,19631,-4382,-1187,-960,6,-3,5,222,450,-204,1,0,35,1,720,0,53298,1
2,27743,30699,31883,52507,19632,-4391,-1195,-957,5,1,-3,217,449,-199,1,0,35,1,760,0,53298,1
2,27740,30700,31881,52508,19634,-4374,-1177,-949,-17,-17,8,225,437,-199,1,0,35,1,800,0,53298,1
2,27800,30700,31886,52509,19636,-4377,-1187,-953,-16,-15,19,212,444,-188,1,0,35,1,840,0,53298,1
2,27772,30700,31880,52510,19637,-4392,-1200,-958,-5,-20,26,218,446,-188,1,0,35,1,880,0,53298,1
2,27786,30700,31883,52511,19638,-4382,-1188,-971,8,-14,6,218,454,-196,1,0,35,1,920,0,53298,1
2,27790,30699,31879,52512,19640,-4373,-1196,-956,2,-24,4,223,447,-195,1,0,35,1,960,0,53298,1
1,27810,30700,31880,52513,0,-4387,-1192,-962,-5,-14,4,227,445,-191,1,0,35,2,0,1,53298,1
2,27771,30699,31881,52514,19078,-4371,-1192,-949,-17,-14,4,221,445,-193,1,0,35,2,40,1,53298,1
2,27762,30700,31876,52515,19079,-4377,-1199,-952,1,-6,16,216,440,-208,1,0,35,2,80,1,53298,1
2,27730,30700,31878,52516,19082,-4377,-1184,-958,1,2,23,218,452,-204,1,0,35,2,120,1,53298,1
2,27805,30700,31882,52517,19083,-4377,-1187,-951,-4,-9,17,214,444,-200,1,0,35,2,160,1,53298,1
2,27794,30700,31880,52518,19085,-4369,-1185,-980,-9,-18,12,216,438,-198,1,0,35,2,200,1,53298,1
2,27784,30699,31886,52519,19086,-4373,-1190,-965,-13,-25,5,219,447,-195,1,0,35,2,240,1,53298,1
2,27791,30699,31884,52520,19088,-4384,-1185,-943,31,6,-28,221,439,-191,1,0,35,2,280,1,53298,1
2,27825,30699,31883,52521,19089,-4378,-1201,-964,77,45,-42,221,443,-201,1,0,35,2,320,1,53298,1
2,27806,30700,31881,52522,19090,-4385,-1185,-962,155,107,-100,225,451,-199,1,0,35,2,360,1,53298,1
2,27792,30700,31882,52523,19092,-4373,-1194,-975,219,178,-170,216,444,-196,1,0,35,2,400,1,53298,1
2,27790,30700,31882,52524,19093,-4387,-1215,-974,229,184,-151,218,450,-192,1,0,35,2,440,1,53298,1
2,27786,30699,31885,52525,19095,-4365,-1210,-974,112,93,-61,219,441,-197,1,0,35,2,480,1,53298,1
2,27775,30699,31881,52526,19097,-4383,-1207,-967,-30,-32,18,220,440,-190,1,0,35,2,520,1,53298,1
2,27772,30700,31880,52527,19098,-4369,-1214,-976,-152,-118,88,228,448,-196,1,0,35,2,560,1,53298,1
2,27746,30699,31884,52528,19100,-4374,-1206,-953,-141,-121,110,223,445,-193,1,0,35,2,600,1,53298,1
2,27791,30699,31885,52529,19101,-4384,-1204,-964,-97,-84,74,215,447,-203,1,0,35,2,640,1,53298,1
2,27825,30699,31883,52530,19103,-4391,-1207,-966,-12,-26,32,213,455,-193,1,0,35,2,680,1,53298,1
2,27853,30698,31880,52531,19104,-4391,-1217,-977,-1,-10,12,214,450,-198,1,0,35,2,720,1,53298,1
2,27863,30698,31881,52532,19106,-4367,-1193,-965,-2,-21,7,224,444,-202,1,0,35,2,760,1,53298,1
2,27853,30699,31884,52533,19108,-4382,-1199,-944,-16,-14,14,225,449,-199,1,0,35,2,800,1,53298,1
2,27882,30698,31884,52534,19110,-4381,-1211,-968,-6,-8,22,216,444,-202,1,0,35,2,840,1,53298,1
2,27930,30698,31880,52535,19111,-4363,-1190,-953,5,-5,20,218,444,-204,1,0,35,2,880,1,53298,1
2,27911,30698,31881,52536,19113,-4368,-1194,-975,4,3,10,215,435,-195,1,0,35,2,920,1,53298,1
2,27876,30697,31880,52537,19114,-4381,-1211,-967,-4,-10,16,219,449,-185,1,0,35,2,960,1,53298,1
1,27929,30697,31879,52538,0,-4364,-1197,-969,-23,-33,24,208,444,-190,1,0,35,3,0,1,53298,1
2,27879,30698,31879,52539,18561,-4380,-1189,-966,-21,-33,12,215,457,-189,1,0,35,3,40,1,53298,1
2,27898,30698,31885,52540,18563,-4376,-1200,-960,-26,-34,13,223,451,-201,1,0,35,3,80,1,53298,1
2,27896,30697,31878,52541,18564,-4370,-1201,-959,-7,-16,12,221,447,-193,1,0,35,3,120,1,53298,1
2,27899,30697,31876,52542,18566,-4374,-1194,-975,15,12,15,215,447,-201,1,0,35,3,160,1,53298,1
2,27896,30698,31885,52543,18568,-4281,-1352,-1325,135,122,-134,219,445,-197,1,0,35,3,200,1,53298,1
2,27879,30697,31888,52544,18569,-4761,-1361,-961,3728,1502,-1285,223,445,-207,1,0,35,3,240,1,53298,1
2,27920,30697,31887,52545,18571,-3266,-2590,-4494,7368,6062,-3806,225,449,-223,1,0,35,3,280,1,53298,1
2,27942,30700,31897,52546,18573,-4176,-1683,-1997,19507,12267,-5007,227,463,-231,1,0,35,3,320,1,53298,1
2,27927,30701,31913,52547,18576,-4426,-755,-27,20789,12132,-4110,231,453,-245,1,0,35,3,360,1,53298,1
2,27886,30704,31908,52548,18580,-6009,259,1398,10998,5757,-1495,229,457,-255,1,0,35,3,400,1,53298,1
2,27949,30698,31870,52549,18583,-5693,-220,636,-8026,-4577,4831,219,453,-231,1,0,35,3,440,1,53298,1
2,27861,30694,31829,52550,18585,-4813,-489,-1001,-22480,-13100,10387,208,442,-218,1,0,35,3,480,1,53298,1
2,27826,30694,31783,52551,18586,-4976,1297,-1626,-29769,-19628,12973,197,449,-179,1,0,35,3,520,1,53298,1
2,27849,30691,31729,52552,18587,-4829,471,-2113,-32768,-22730,15222,206,430,-148,1,0,35,3,560,1,53298,1
2,27855,30688,31663,52553,18589,-3692,-647,-1567,-25184,-20124,14495,201,417,-129,1,0,35,3,600,1,53298,1
2,27907,30689,31652,52554,18591,-3302,-2686,-821,-10574,-11119,8980,189,415,-117,1,0,35,3,640,1,53298,1
2,27926,30692,31659,52555,18593,-3283,-2868,-289,1888,-1469,1851,191,429,-133,1,0,35,3,680,1,53298,1
2,27887,30698,31731,52556,18597,-3448,-2133,-1712,6319,5968,-6407,194,420,-134,1,0,35,3,720,1,53298,1
2,27761,30704,31747,52557,18601,-8787,4789,2197,9088,8589,-9175,200,430,-148,1,0,35,3,760,1,53298,1
2,27992,30696,31712,52558,18605,-3654,-1865,-1307,3554,9969,-7065,204,434,-170,1,0,35,3,800,1,53298,1
2,28289,30693,31725,52559,18608,-3458,-3127,-3578,11452,16960,-7381,209,445,-195,1,0,35,3,840,1,53298,1
2,28335,30691,31775,52560,18610,-3698,-1698,-2856,23315,22449,-9191,214,446,-218,1,0,35,3,880,1,53298,1
2,28371,30695,31852,52561,18611,-4209,-1106,-2551,29505,22663,-10537,218,466,-252,1,0,35,3,920,1,53298,1
2,28422,30702,31881,52562,18613,-5416,1474,-494,30041,17526,-8873,231,457,-263,1,0,35,3,960,1,53298,1
1,28441,30703,31892,52563,0,-5343,-724,89,10775,6689,-1861,227,457,-273,1,0,35,4,0,1,53298,1
2,28445,30703,31887,52564,18047,-4469,-1290,250,1659,-1245,2410,227,443,-261,1,0,35,4,40,1,53298,1
2,28454,30702,31875,52565,18050,-4057,-1190,-1006,-6976,-5481,4457,216,456,-248,1,0,35,4,80,1,53298,1
2,28441,30698,31855,52566,18051,-5189,-1526,-2855,-12062,-7178,5976,202,450,-246,1,0,35,4,120,1,53298,1
2,28477,30695,31810,52567,18053,-5132,540,234,-11373,-9691,7840,198,446,-224,1,0,35,4,160,1,53298,1
2,28443,30690,31758,52568,18055,-5573,1032,301,-22193,-14053,10480,195,447,-203,1,0,35,4,200,1,53298,1
2,28406,30687,31702,52569,18057,-5154,1040,-635,-29648,-18700,11045,187,437,-165,1,0,35,4,240,1,53298,1
2,28485,30690,31663,52570,18057,-4280,-480,-2783,-31264,-19639,10676,190,426,-130,1,0,35,4,280,1,53298,1
2,28455,30690,31648,52571,18058,-3356,-1984,-3494,-18138,-13939,7770,193,421,-135,1,0,35,4,320,1,53298,1
2,28494,30689,31663,52572,18059,-3315,-3037,-1582,-2473,-4706,3806,185,415,-135,1,0,35,4,360,1,53298,1
2,28527,30692,31711,52573,18061,-3841,-1748,-697,7691,3500,-2490,188,420,-136,1,0,35,4,400,1,53298,1
2,28348,30694,31735,52574,18062,-6453,4092,3072,8948,4486,-4624,191,435,-143,1,0,35,4,440,1,53298,1
2,28374,30694,31713,52575,18064,-4502,-542,-1004,3476,3764,-2494,199,427,-147,1,0,35,4,480,1,53298,1
2,28404,30693,31713,52576,18066,-4451,-789,-510,-29,5665,-4252,199,433,-155,1,0,35,4,520,1,53298,1
2,28432,30691,31719,52577,18068,-4024,-1278,-1388,4522,8765,-4303,201,443,-179,1,0,35,4,560,1,53298,1
2,28546,30690,31732,52578,18069,-4494,-1336,-2166,7916,10841,-5439,207,447,-187,1,0,35,4,600,1,53298,1
2,28571,30691,31759,52579,18070,-4211,-2575,-3109,14763,14315,-6604,205,455,-211,1,0,35,4,640,1,53298,1
2,28709,30690,31802,52580,18070,-4587,-860,-2865,28445,16685,-8315,208,458,-234,1,0,35,4,680,1,53298,1
2,28740,30690,31823,52581,18071,-4292,-271,-2128,28218,15809,-9481,220,450,-254,1,0,35,4,720,1,53298,1
2,28761,30692,31847,52582,18073,-3935,72,-730,19986,12955,-8110,223,459,-265,1,0,35,4,760,1,53298,1
2,28772,30695,31870,52583,18075,-3884,-109,316,12341,7774,-4738,225,449,-267,1,0,35,4,800,1,53298,1
2,28753,30699,31902,52584,18077,-4281,-223,1159,3129,1895,-697,233,455,-273,1,0,35,4,840,1,53298,1
2,28954,30706,31919,52585,18079,-4818,-1438,-112,-11664,-5355,1949,219,449,-271,1,0,35,4,880,1,53298,1
2,29011,30704,31890,52586,18081,-6507,-2229,-6375,-17090,-5311,2662,219,451,-259,1,0,35,4,920,1,53298,1
2,28964,30698,31853,52587,18083,-6106,2237,2263,533,-5494,5173,212,444,-254,1,0,35,4,960,1,53298,1
1,29032,30688,31761,52588,0,-5412,1006,373,-17996,-12251,10763,206,450,-222,1,0,35,5,0,0,53298,1
2,28998,30679,31694,52589,17532,-4833,244,-1934,-32627,-18183,11918,193,447,-195,1,0,35,5,40,0,53298,1
2,29069,30684,31629,52590,17532,-4150,553,-2561,-29158,-20087,12859,195,437,-171,1,0,35,5,80,0,53298,1
2,29137,30683,31604,52591,17533,-3495,-1271,-3665,-22981,-17501,11879,187,421,-155,1,0,35,5,120,0,53298,1
2,29133,30683,31608,52592,17534,-3310,-2767,-2406,-11360,-10724,9010,182,416,-134,1,0,35,5,160,0,53298,1
2,29145,30686,31627,52593,17536,-3556,-3340,-1198,-1580,-4406,4064,178,424,-136,1,0,35,5,200,0,53298,1
2,29075,30690,31693,52594,17539,-4107,-2341,-1199,5302,1218,-2759,176,426,-144,1,0,35,5,240,0,53298,1
2,28959,30692,31708,52595,17540,-8062,6830,2562,7448,2422,-5007,169,431,-137,1,0,35,5,280,0,53298,1
2,29008,30688,31667,52596,17542,-4018,-1551,-1288,-900,3904,-3169,182,426,-152,1,0,35,5,320,0,53298,1
2,29088,30686,31684,52597,17544,-3574,-3703,-2753,5722,11681,-5532,185,441,-177,1,0,35,5,360,0,53298,1
2,29223,30685,31734,52598,17545,-4209,-1745,-3261,27924,18426,-9273,191,453,-229,1,0,35,5,400,0,53298,1
2,29369,30687,31810,52599,17547,-4620,31,-2894,32767,21601,-13619,200,448,-236,1,0,35,5,440,0,53298,1
2,29396,30687,31854,52600,17549,-4952,700,-2456,32696,20668,-14265,218,456,-256,1,0,35,5,480,0,53298,1
2,29434,30696,31882,52601,17551,-4816,1229,-727,27618,16346,-11056,236,450,-288,1,0,35,5,520,0,53298,1
2,29388,30700,31886,52602,17553,-4824,105,752,13846,9064,-5414,227,455,-275,1,0,35,5,560,0,53298,1
2,29423,30699,31882,52603,17556,-4833,-404,1023,-606,-36,622,232,454,-284,1,0,35,5,600,0,53298,1
2,29429,30699,31863,52604,17559,-4855,-243,120,-15036,-8011,5163,219,453,-267,1,0,35,5,640,0,53298,1
2,29435,30692,31816,52605,17561,-5853,-2183,-5478,-26992,-13446,7654,221,457,-257,1,0,35,5,680,0,53298,1
2,29367,30685,31760,52606,17562,-4736,1491,-1263,-21467,-12809,8294,197,445,-233,1,0,35,5,720,0,53298,1
2,29439,30681,31680,52607,17564,-4638,1490,137,-20011,-15634,12576,184,450,-206,1,0,35,5,760,0,53298,1
2,29485,30683,31645,52608,17564,-4352,-33,-1721,-29151,-19044,13258,180,436,-180,1,0,35,5,800,0,53298,1
2,29616,30686,31630,52609,17567,-3763,-1535,-3552,-26053,-16491,9660,181,427,-165,1,0,35,5,840,0,53298,1
2,30247,30687,31632,52610,17569,-3709,-2816,-3140,-13137,-9601,5744,188,438,-152,1,0,35,5,880,0,53298,1
2,30283,30689,31665,52611,17570,-4811,-2523,-1463,454,-1940,633,181,435,-151,1,0,35,5,920,0,53298,1
2,30365,30694,31690,52612,17572,-5246,1897,469,5883,2114,-2691,175,433,-151,1,0,35,5,960,0,53298,1
1,30305,30693,31680,52613,0,-4319,-215,-1724,7945,4383,-3592,179,435,-175,1,0,35,6,0,1,53298,1
2,30240,30690,31699,52614,17018,-4101,-1888,-2165,10455,10535,-5831,191,445,-187,1,0,35,6,40,1,53298,1
2,29945,30690,31751,52615,17019,-3912,-1264,-2018,21282,15439,-8029,192,458,-214,1,0,35,6,80,1,53298,1
2,30121,30694,31813,52616,17020,-4410,-94,-1840,29002,16629,-9860,193,453,-241,1,0,35,6,120,1,53298,1
2,30072,30699,31862,52617,17022,-4636,-229,-2457,28041,15724,-9667,210,460,-256,1,0,35,6,160,1,53298,1
2,30141,30700,31891,52618,17024,-4772,-88,-2124,26648,13967,-8729,209,457,-265,1,0,35,6,200,1,53298,1
2,30107,30701,31893,52619,17027,-5004,200,-241,19021,10273,-5831,218,460,-280,1,0,35,6,240,1,53298,1
2,30113,30699,31879,52620,17029,-4737,-159,1024,4969,3343,-1037,222,452,-276,1,0,35,6,280,1,53298,1
2,30091,30701,31857,52621,17031,-4668,-33,673,-9218,-5066,3419,211,451,-273,1,0,35,6,320,1,53298,1
2,30073,30695,31816,52622,17032,-5578,-2076,-4332,-22308,-9669,5345,214,456,-258,1,0,35,6,360,1,53298,1
2,29922,30688,31758,52623,17033,-4735,610,-1073,-19808,-11051,6091,192,452,-238,1,0,35,6,400,1,53298,1
2,29897,30687,31704,52624,17033,-5141,1534,-373,-22282,-14993,9584,182,448,-212,1,0,35,6,440,1,53298,1
2,29872,30686,31655,52625,17034,-4849,844,-1061,-30018,-19213,12171,177,441,-167,1,0,35,6,480,1,53298,1
2,30197,30688,31629,52626,17034,-3971,-443,-3271,-29474,-19400,11234,174,432,-150,1,0,35,6,520,1,53298,1
2,30135,30687,31625,52627,17035,-3316,-2061,-3106,-18613,-13755,8543,176,418,-132,1,0,35,6,560,1,53298,1
2,30216,30685,31642,52628,17037,-3443,-2696,-2155,-4805,-5333,4119,169,421,-147,1,0,35,6,600,1,53298,1
2,30378,30696,31689,52629,17039,-4738,-2163,-2284,2379,3098,-3057,184,432,-150,1,0,35,6,640,1,53298,1
2,30261,30692,31682,52630,17040,-6478,1482,-958,8584,7470,-6726,177,443,-155,1,0,35,6,680,1,53298,1
2,29957,30684,31711,52631,17041,-3799,-2776,-3366,17439,14973,-7640,184,442,-194,1,0,35,6,720,1,53298,1
2,29707,30687,31781,52632,17042,-3953,-1355,-3294,32767,22107,-11044,183,459,-227,1,0,35,6,760,1,53298,1
2,29753,30694,31844,52633,17043,-4487,976,-1875,32767,21772,-13436,191,457,-257,1,0,35,6,800,1,53298,1
2,29772,30698,31885,52634,17043,-4680,1890,-646,28746,16999,-11964,208,464,-278,1,0,35,6,840,1,53298,1
2,29961,30703,31925,52635,17045,-5102,745,-4,15793,9525,-5907,225,453,-279,1,0,35,6,880,1,53298,1
2,30042,30702,31931,52636,17047,-5607,-1427,243,1961,1922,-501,214,464,-278,1,0,35,6,920,1,53298,1
2,30048,30701,31894,52637,17049,-4669,-1654,-2459,-11164,-3512,1093,209,443,-277,1,0,35,6,960,1,53298,1
1,29975,30696,31863,52638,0,-4023,-1145,-2190,-11634,-5886,2799,213,455,-271,1,0,35,7,0,0,53298,1
2,29980,30693,31824,52639,16503,-3973,-1029,-1726,-11650,-6977,4150,198,446,-254,1,0,35,7,40,0,53298,1
2,30017,30691,31786,52640,16503,-4258,-793,-1605,-13441,-6861,4414,200,454,-252,1,0,35,7,80,0,53298,1
2,30003,30689,31744,52641,16503,-4412,-302,-1566,-15041,-7009,4501,188,448,-246,1,0,35,7,120,0,53298,1
2,29997,30688,31692,52642,16502,-5036,237,-482,-16553,-8890,5397,186,454,-212,1,0,35,7,160,0,53298,1
2,30055,30689,31660,52643,16502,-5364,783,-397,-21066,-12814,6905,186,446,-188,1,0,35,7,200,0,53298,1
2,30206,30691,31633,52644,16502,-4180,-751,-1841,-23925,-15516,7664,180,444,-172,1,0,35,7,240,0,53298,1
2,30260,30692,31629,52645,16503,-3366,-1613,-3136,-17942,-12787,6166,189,435,-159,1,0,35,7,280,0,53298,1
2,30253,30691,31642,52646,16505,-3371,-2003,-2919,-6264,-6134,2923,184,430,-156,1,0,35,7,320,0,53298,1
2,30404,30696,31699,52647,16506,-4027,-1877,-2941,-456,2493,-2581,192,434,-172,1,0,35,7,360,0,53298,1
2,30302,30694,31706,52648,16508,-6000,-362,-1869,11702,8554,-5909,190,444,-186,1,0,35,7,400,0,53298,1
2,30112,30687,31749,52649,16509,-3492,-2727,-4382,27938,19285,-9022,194,462,-226,1,0,35,7,440,0,53298,1
2,30059,30691,31845,52650,16509,-4340,-692,-3703,32767,25751,-14090,199,455,-247,1,0,35,7,480,0,53298,1
2,30101,30697,31878,52651,16511,-5335,3057,-879,32767,23731,-14288,230,452,-284,1,0,35,7,520,0,53298,1
2,30132,30701,31915,52652,16512,-5024,1549,463,23691,14942,-9034,240,456,-288,1,0,35,7,560,0,53298,1
2,30184,30701,31914,52653,16515,-5582,-599,1419,5671,4380,-921,228,450,-300,1,0,35,7,600,0,53298,1
2,30219,30698,31882,52654,16517,-5348,-849,453,-14447,-6264,2539,221,455,-281,1,0,35,7,640,0,53298,1
2,30217,30694,31821,52655,16519,-5020,-1877,-5558,-28826,-12420,3896,221,453,-271,1,0,35,7,680,0,53298,1
2,30160,30689,31778,52656,16520,-4073,-160,-2186,-21783,-11309,4559,211,459,-251,1,0,35,7,720,0,53298,1
2,30147,30688,31730,52657,16521,-4652,819,-32,-13311,-12596,7827,199,459,-237,1,0,35,7,760,0,53298,1
2,30173,30686,31677,52658,16522,-4928,355,-1079,-20178,-14350,9606,184,450,-210,1,0,35,7,800,0,53298,1
2,30223,30686,31645,52659,16523,-4371,-103,-1948,-22406,-15393,9224,185,443,-191,1,0,35,7,840,0,53298,1
2,30283,30685,31625,52660,16524,-3703,-348,-2546,-19088,-13396,8094,187,437,-169,1,0,35,7,880,0,53298,1
2,30229,30684,31626,52661,16526,-3599,-2058,-2598,-12517,-9029,6161,183,431,-161,1,0,35,7,920,0,53298,1
2,30247,30685,31647,52662,16529,-4091,-3757,-2853,-2055,-2215,1740,178,442,-160,1,0,35,7,960,0,53298,1
1,30261,30690,31684,52663,0,-4917,586,-910,7076,3787,-3172,179,439,-169,1,0,35,8,0,0,53298,1
2,30058,30688,31670,52664,15989,-4799,792,-1053,14107,5907,-3960,176,440,-176,1,0,35,8,40,0,53298,1
2,30109,30688,31686,52665,15991,-3470,-2110,-3256,14230,12667,-5348,180,452,-202,1,0,35,8,80,0,53298,1
2,30157,30697,31768,52666,15993,-3854,128,-1461,28413,16896,-5801,186,452,-252,1,0,35,8,120,0,53298,1
2,30204,30704,31791,52667,15996,-5177,592,-1352,32180,14669,-5595,186,450,-266,1,0,35,8,160,0,53298,1
2,30225,30697,31815,52668,15999,-4403,-2481,-3458,16576,12132,-5722,192,458,-284,1,0,35,8,200,0,53298,1
2,30091,30703,31841,52669,16005,-4142,-1722,-2201,27124,10107,-3462,211,455,-295,1,0,35,8,240,0,53298,1
2,28851,30696,31832,52670,16012,-4508,-1008,-156,20667,5542,-2975,204,456,-296,1,0,35,8,280,0,53298,1
2,29986,30702,31850,52671,16019,-4167,-566,509,3341,-433,-1975,201,459,-285,1,0,35,8,320,0,53298,1
2,30632,30700,31851,52672,16026,-3855,955,-203,-8705,-6042,613,206,456,-278,1,0,35,8,360,0,53298,1
2,30811,30670,31854,52673,16030,-4289,-771,-4902,-20436,-8403,3856,201,453,-265,1,0,35,8,400,0,53298,1
2,30694,30679,31822,52674,16034,-5365,-69,-779,-17602,-4102,3297,196,456,-266,1,0,35,8,440,0,53298,1
2,30580,30697,31757,52675,16036,-4459,1096,-858,-17904,-7562,5288,178,448,-252,1,0,35,8,480,0,53298,1
2,30555,30695,31717,52676,16037,-4821,-920,-1251,-27849,-9739,6267,187,455,-219,1,0,35,8,520,0,53298,1
2,30503,30693,31674,52677,16038,-4848,881,-394,-18784,-12167,6936,174,450,-202,1,0,35,8,560,0,53298,1
2,30571,30695,31631,52678,16039,-4630,692,-1054,-21117,-13974,7353,177,445,-181,1,0,35,8,600,0,53298,1
2,30549,30695,31622,52679,16041,-3829,-546,-2427,-19539,-12447,6864,179,433,-165,1,0,35,8,640,0,53298,1
2,30588,30696,31632,52680,16044,-3524,-2073,-2265,-10283,-7922,4497,175,431,-153,1,0,35,8,680,0,53298,1
2,30612,30697,31655,52681,16048,-3817,-1707,-3107,2216,-2241,1231,166,440,-156,1,0,35,8,720,0,53298,1
2,30658,30698,31701,52682,16050,-4970,-2120,-3978,6676,5125,-2805,172,442,-174,1,0,35,8,760,0,53298,1
2,30473,30694,31719,52683,16053,-5295,-727,-1786,23912,9478,-5119,165,443,-203,1,0,35,8,800,0,53298,1
2,30431,30697,31798,52684,16054,-3838,-1413,-1499,30382,13224,-8757,171,449,-221,1,0,35,8,840,0,53298,1
2,30387,30701,31855,52685,16056,-4467,603,-1060,30778,11456,-11699,188,450,-244,1,0,35,8,880,0,53298,1
2,30425,30705,31883,52686,16059,-4519,-335,-2253,17322,9770,-12402,200,464,-256,1,0,35,8,920,0,53298,1
2,30442,30705,31908,52687,16062,-4420,693,-1806,18853,8012,-9716,208,458,-272,1,0,35,8,960,0,53298,1
1,30472,30699,31914,52688,0,-4410,851,-861,10122,5449,-5579,205,455,-275,1,0,35,9,0,0,53298,1
2,30486,30691,31911,52689,15476,-4493,218,751,503,1425,-870,210,462,-260,1,0,35,9,40,0,53298,1
2,30476,30701,31890,52690,15479,-5048,-1937,-1663,-11622,-3710,1879,206,454,-256,1,0,35,9,80,0,53298,1
2,30357,30700,31841,52691,15481,-4872,-768,-2037,-15534,-5384,2495,204,448,-252,1,0,35,9,120,0,53298,1
2,30352,30693,31790,52692,15483,-4865,641,-457,-14118,-8671,5559,194,454,-234,1,0,35,9,160,0,53298,1
2,30459,30694,31712,52693,15485,-4915,238,-713,-23549,-12671,8574,193,445,-207,1,0,35,9,200,0,53298,1
2,30475,30694,31665,52694,15487,-4829,753,-1008,-25644,-16224,9686,184,434,-188,1,0,35,9,240,0,53298,1
2,30501,30695,31645,52695,15489,-3961,-324,-2606,-22643,-15757,9393,177,437,-149,1,0,35,9,280,0,53298,1
2,30584,30696,31646,52696,15492,-3188,-1962,-3166,-16718,-11097,7347,176,432,-148,1,0,35,9,320,0,53298,1
2,30755,30699,31667,52697,15495,-3603,-3527,-2701,-4270,-3566,3432,178,436,-150,1,0,35,9,360,0,53298,1
2,30671,30700,31720,52698,15497,-5247,-729,-1761,4352,3751,-3349,180,444,-162,1,0,35,9,400,0,53298,1
2,30704,30696,31694,52699,15500,-4994,756,-1497,13588,6606,-4820,179,447,-171,1,0,35,9,440,0,53298,1
2,30676,30695,31725,52700,15502,-3353,-2375,-3718,18792,14559,-6084,185,449,-209,1,0,35,9,480,0,53298,1
2,30587,30698,31823,52701,15504,-3503,-1173,-2953,28857,19802,-8947,186,446,-242,1,0,35,9,520,0,53298,1
2,30579,30702,31871,52702,15505,-4891,160,-1720,32767,19668,-10265,197,461,-267,1,0,35,9,560,0,53298,1
2,30550,30708,31914,52703,15508,-4914,615,-905,27112,14090,-9188,206,450,-280,1,0,35,9,600,0,53298,1
2,30533,30709,31933,52704,15511,-5240,842,-479,13924,7394,-5454,207,451,-287,1,0,35,9,640,0,53298,1
2,30610,30707,31914,52705,15515,-5610,-120,527,-266,641,40,225,459,-279,1,0,35,9,680,0,53298,1
2,30426,30704,31865,52706,15519,-4763,-1116,-1320,-11466,-4964,2616,211,455,-271,1,0,35,9,720,0,53298,1
2,30385,30699,31809,52707,15521,-4309,-483,-2687,-21940,-7564,2847,195,451,-255,1,0,35,9,760,0,53298,1
2,30375,30695,31751,52708,15522,-4527,67,-1407,-25366,-9272,3690,196,462,-254,1,0,35,9,800,0,53298,1
2,30348,30691,31677,52709,15524,-5068,657,-604,-24084,-12870,6726,190,458,-220,1,0,35,9,840,0,53298,1
2,30380,30691,31646,52710,15525,-5127,-621,-1308,-25122,-15866,8289,184,450,-192,1,0,35,9,880,0,53298,1
2,30435,30694,31629,52711,15526,-3780,-387,-2362,-22668,-16536,7259,187,443,-183,1,0,35,9,920,0,53298,1
2,30331,30694,31636,52712,15529,-3554,-1726,-2809,-16964,-12192,4497,184,436,-158,1,0,35,9,960,0,53298,1
1,30295,30695,31649,52713,0,-3697,-1651,-2379,-5275,-6352,1944,189,445,-155,1,0,35,10,0,0,53298,1
2,30286,30695,31694,52714,14962,-3871,-1748,-3209,1471,1005,-1433,188,442,-170,1,0,35,10,40,0,53298,1
2,30297,30693,31725,52715,14965,-5481,39,-534,12063,7004,-4924,187,443,-181,1,0,35,10,80,0,53298,1
2,30207,30695,31762,52716,14966,-4038,-1470,-2537,23192,13023,-7213,191,451,-213,1,0,35,10,120,0,53298,1
2,30171,30698,31833,52717,14968,-4165,-1296,-2582,31188,16845,-9459,191,453,-235,1,0,35,10,160,0,53298,1
2,30218,30702,31874,52718,14971,-4425,355,-1782,32767,17103,-10745,201,455,-257,1,0,35,10,200,0,53298,1
2,30346,30708,31905,52719,14975,-4678,946,-1794,27303,13746,-10162,207,461,-263,1,0,35,10,240,0,53298,1
2,30326,30710,31922,52720,14980,-5025,1124,-273,16434,9407,-5354,222,444,-286,1,0,35,10,280,0,53298,1
2,30310,30708,31909,52721,14985,-5223,-511,1281,947,2581,-548,218,450,-280,1,0,35,10,320,0,53298,1
2,30293,30706,31870,52722,14989,-5220,-1585,-1225,-14226,-4910,1606,210,456,-264,1,0,35,10,360,0,53298,1
2,30240,30701,31839,52723,14991,-4793,-867,-2585,-19964,-7691,2715,196,460,-254,1,0,35,10,400,0,53298,1
2,30289,30697,31790,52724,14993,-4840,722,-678,-16792,-10514,5325,193,451,-249,1,0,35,10,440,0,53298,1
2,30336,30692,31717,52725,14995,-5026,767,-167,-20427,-14005,9325,189,443,-213,1,0,35,10,480,0,53298,1
2,30417,30693,31671,52726,14998,-5003,775,-855,-25115,-17984,11254,183,441,-189,1,0,35,10,520,0,53298,1
2,30398,30693,31645,52727,15000,-3929,35,-2762,-24217,-18379,11379,178,426,-156,1,0,35,10,560,0,53298,1
2,30378,30693,31639,52728,15003,-3238,-1734,-3164,-16307,-13698,9447,175,437,-139,1,0,35,10,600,0,53298,1
2,30441,30697,31639,52729,15006,-3490,-1670,-2096,-2923,-6468,6398,168,436,-140,1,0,35,10,640,0,53298,1
2,30984,30701,31698,52730,15009,-6104,-3668,-2218,2365,981,-524,172,432,-150,1,0,35,10,680,0,53298,1
2,30980,30695,31700,52731,15012,-5737,2068,468,9159,4758,-3956,165,433,-149,1,0,35,10,720,0,53298,1
2,30885,30693,31701,52732,15014,-3546,-1157,-2036,13319,7318,-4690,169,439,-171,1,0,35,10,760,0,53298,1
2,30865,30694,31773,52733,15015,-3802,-2073,-2103,14555,11739,-6710,172,454,-208,1,0,35,10,800,0,53298,1
2,30973,30698,31829,52734,15016,-4773,-407,-1183,22430,13158,-8909,182,446,-210,1,0,35,10,840,0,53298,1
2,31036,30703,31875,52735,15017,-4733,-1196,-2144,19080,11467,-10124,195,457,-241,1,0,35,10,880,0,53298,1
2,31028,30707,31914,52736,15019,-4359,-1519,-2755,19531,10672,-11139,204,454,-250,1,0,35,10,920,0,53298,1
2,30982,30707,31931,52737,15021,-4271,-542,-1811,19200,10090,-11930,224,456,-272,1,0,35,10,960,0,53298,1
1,30976,30710,31938,52738,0,-4269,-211,-1124,11783,7596,-10249,228,450,-272,1,0,35,11,0,1,53298,1
2,30953,30710,31930,52739,14447,-4313,969,-46,2487,3788,-6396,233,457,-277,1,0,35,11,40,1,53298,1
2,30937,30711,31925,52740,14449,-5376,1278,865,-9011,-2103,54,231,453,-271,1,0,35,11,80,1,53298,1
2,30969,30705,31891,52741,14452,-6112,-2329,-2207,-15647,-8585,6001,223,461,-253,1,0,35,11,120,1,53298,1
2,30820,30703,31827,52742,14454,-5144,446,-1291,-18903,-10316,6524,217,451,-243,1,0,35,11,160,1,53298,1
2,30839,30697,31757,52743,14457,-4801,1606,-340,-19181,-14485,10295,204,452,-212,1,0,35,11,200,1,53298,1
2,30884,30697,31691,52744,14459,-4947,862,-920,-26334,-18116,13489,186,446,-178,1,0,35,11,240,1,53298,1
2,30844,30697,31644,52745,14461,-4108,584,-2095,-22949,-19072,13787,178,434,-154,1,0,35,11,280,1,53298,1
2,30886,30696,31642,52746,14463,-3583,-2539,-3780,-19602,-14029,10562,182,434,-152,1,0,35,11,320,1,53298,1
2,30890,30697,31647,52747,14466,-3559,-3025,-2583,-6504,-6343,6172,187,429,-143,1,0,35,11,360,1,53298,1
2,30861,30700,31687,52748,14470,-5505,-3035,-1700,3653,1521,-959,175,429,-149,1,0,35,11,400,1,53298,1
2,30842,30698,31696,52749,14472,-6282,2300,695,9744,4553,-4700,175,431,-161,1,0,35,11,440,1,53298,1
2,30805,30695,31708,52750,14474,-3598,-1987,-2404,13700,7696,-5339,175,433,-165,1,0,35,11,480,1,53298,1
2,30760,30698,31760,52751,14476,-3992,-2524,-2089,16912,12305,-7497,180,452,-196,1,0,35,11,520,1,53298,1
2,30719,30701,31843,52752,14477,-4457,-607,-1032,24114,13893,-10713,179,445,-225,1,0,35,11,560,1,53298,1
2,30772,30705,31881,52753,14478,-4656,-485,-2207,18751,11156,-11901,199,455,-233,1,0,35,11,600,1,53298,1
2,30782,30709,31922,52754,14479,-4431,-454,-3143,17501,9926,-11320,218,454,-250,1,0,35,11,640,1,53298,1
2,30840,30710,31938,52755,14481,-4208,-153,-2449,17885,10683,-9466,224,454,-262,1,0,35,11,680,1,53298,1
2,30836,30711,31944,52756,14484,-4280,81,-895,15533,9565,-5841,232,446,-278,1,0,35,11,720,1,53298,1
2,30772,30708,31939,52757,14486,-4326,227,464,4982,5392,-2296,223,453,-269,1,0,35,11,760,1,53298,1
2,30798,30709,31924,52758,14489,-4718,-242,571,-10007,-1145,1822,225,453,-267,1,0,35,11,800,1,53298,1
2,30811,30708,31906,52759,14491,-5974,-3288,-3108,-15301,-6504,4649,218,456,-264,1,0,35,11,840,1,53298,1
2,30828,30702,31835,52760,14493,-5080,1158,-496,-12746,-7325,4936,221,447,-253,1,0,35,11,880,1,53298,1
2,30682,30695,31770,52761,14495,-5356,1146,331,-16341,-12056,8423,193,447,-223,1,0,35,11,920,1,53298,1
2,30725,30694,31707,52762,14496,-5469,1141,48,-26368,-17213,11870,189,447,-195,1,0,35,11,960,1,53298,1
1,30754,30700,31655,52763,0,-5093,819,-517,-29212,-21515,12599,181,443,-155,1,0,35,12,0,0,53298,1
2,30795,30701,31645,52764,13933,-3671,-1274,-3481,-25496,-20873,11183,183,425,-133,1,0,35,12,40,0,53298,1
2,30785,30701,31660,52765,13934,-3345,-2885,-2070,-10132,-13877,6891,178,420,-118,1,0,35,12,80,0,53298,1
2,30788,30703,31682,52766,13937,-3378,-2037,-1413,6035,-6713,3008,172,418,-132,1,0,35,12,120,0,53298,1
2,30889,30704,31726,52767,13938,-5032,-464,-1922,12369,1025,-1714,166,420,-138,1,0,35,12,160,0,53298,1
2,30714,30702,31737,52768,13940,-6299,156,-1085,2666,5532,-4645,173,425,-135,1,0,35,12,200,0,53298,1
2,30697,30700,31730,52769,13941,-4340,-1339,-893,5908,6668,-5174,172,430,-158,1,0,35,12,240,0,53298,1
2,30695,30697,31748,52770,13942,-3870,-2582,-1777,8935,11469,-7396,182,432,-162,1,0,35,12,280,0,53298,1
2,30715,30699,31773,52771,13942,-4059,-1293,-1586,13363,13391,-10845,191,457,-189,1,0,35,12,320,0,53298,1
2,30720,30701,31794,52772,13944,-4186,-1060,-2503,7666,14547,-13728,208,450,-208,1,0,35,12,360,0,53298,1
2,30730,30704,31816,52773,13945,-4564,-169,-2249,7792,15639,-14311,226,444,-222,1,0,35,12,400,0,53298,1
2,30786,30705,31821,52774,13947,-4360,-10,-2019,8512,15047,-12422,245,449,-259,1,0,35,12,440,0,53298,1
2,30915,30706,31841,52775,13949,-4555,156,-1505,10805,13431,-8447,248,446,-274,1,0,35,12,480,0,53298,1
2,30874,30709,31885,52776,13950,-4821,471,-509,11913,9339,-3151,246,446,-276,1,0,35,12,520,0,53298,1
2,30981,30710,31886,52777,13952,-6045,-439,1304,7028,372,3334,239,447,-261,1,0,35,12,560,0,53298,1
2,31002,30709,31856,52778,13954,-5719,-1652,-447,-12483,-7098,6080,241,459,-263,1,0,35,12,600,0,53298,1
2,30909,30701,31790,52779,13955,-5511,-34,-1723,-18497,-11047,6230,229,453,-247,1,0,35,12,640,0,53298,1
2,30870,30698,31730,52780,13957,-5107,1425,-223,-17700,-15152,8828,204,444,-226,1,0,35,12,680,0,53298,1
2,30875,30697,31668,52781,13959,-4875,1247,-312,-18749,-18475,13074,201,441,-187,1,0,35,12,720,0,53298,1
2,30903,30697,31647,52782,13961,-3886,-651,-2512,-20062,-18409,13401,199,439,-169,1,0,35,12,760,0,53298,1
2,30874,30697,31651,52783,13963,-3488,-1636,-1836,-10736,-12981,9872,188,424,-154,1,0,35,12,800,0,53298,1
2,30850,30698,31667,52784,13965,-3681,-923,-200,3438,-8718,7509,163,425,-149,1,0,35,12,840,0,53298,1
2,30741,30697,31665,52785,13966,-4903,-1421,-2235,7818,-4486,3675,156,430,-140,1,0,35,12,880,0,53298,1
2,30727,30698,31680,52786,13968,-6394,-1059,-3196,3835,2913,-1620,175,431,-141,1,0,35,12,920,0,53298,1
2,30740,30697,31687,52787,13969,-4532,363,273,5026,3073,-3136,170,424,-166,1,0,35,12,960,0,53298,1
1,30729,30696,31694,52788,0,-3979,-946,-822,4752,3771,-3193,172,436,-152,1,0,35,13,0,1,53298,1
2,30714,30697,31731,52789,13419,-3799,-1079,-1339,2338,6215,-4913,173,447,-177,1,0,35,13,40,1,53298,1
2,30774,30698,31760,52790,13419,-5000,-56,-1098,12159,8046,-5132,174,438,-190,1,0,35,13,80,1,53298,1
2,30707,30698,31784,52791,13419,-4302,-611,-1953,14233,8391,-5829,181,439,-205,1,0,35,13,120,1,53298,1
2,30719,30695,31833,52792,13420,-3917,-1769,-2885,14267,10020,-7176,182,456,-224,1,0,35,13,160,1,53298,1
2,30616,30696,31868,52793,13420,-4025,-1680,-2686,18616,12567,-9007,193,457,-241,1,0,35,13,200,1,53298,1
2,30621,30699,31890,52794,13422,-4142,-1335,-2067,18742,13048,-10595,216,450,-268,1,0,35,13,240,1,53298,1
2,30630,30706,31911,52795,13423,-4334,-32,-1103,16012,10416,-9747,217,457,-267,1,0,35,13,280,1,53298,1
2,30643,30708,31920,52796,13425,-4489,261,-482,5673,5964,-6727,235,445,-271,1,0,35,13,320,1,53298,1
2,30640,30708,31899,52797,13426,-4869,1049,618,-3213,324,-1801,229,451,-275,1,0,35,13,360,1,53298,1
2,30712,30708,31871,52798,13428,-6151,-1565,-1188,-13392,-5473,3572,215,447,-263,1,0,35,13,400,1,53298,1
2,30697,30698,31794,52799,13430,-5329,185,-1331,-13141,-7296,4775,218,454,-262,1,0,35,13,440,1,53298,1
2,30719,30696,31703,52800,13431,-4528,1055,-1975,-23230,-10770,6525,212,460,-230,1,0,35,13,480,1,53298,1
2,30719,30694,31675,52801,13432,-4662,-279,-553,-26388,-13945,8860,191,449,-211,1,0,35,13,520,1,53298,1
2,30719,30695,31639,52802,13434,-4515,780,-993,-16429,-15196,10773,186,442,-188,1,0,35,13,560,1,53298,1
2,30727,30694,31627,52803,13436,-3920,-1400,-2645,-22209,-14783,10334,183,439,-173,1,0,35,13,600,1,53298,1
2,30730,30694,31640,52804,13438,-4040,-1905,-1495,-10631,-10991,7961,178,432,-154,1,0,35,13,640,1,53298,1
2,30720,30695,31660,52805,13441,-3692,-1906,-437,21,-8376,4789,165,435,-151,1,0,35,13,680,1,53298,1
2,30769,30696,31660,52806,13443,-4930,-40,-1117,8832,-4457,1252,164,428,-156,1,0,35,13,720,1,53298,1
2,30743,30696,31663,52807,13444,-5010,738,-2243,5424,241,-1253,158,430,-152,1,0,35,13,760,1,53298,1
2,30753,30695,31668,52808,13446,-4543,40,-13,1797,2438,-2319,166,434,-162,1,0,35,13,800,1,53298,1
2,30753,30695,31682,52809,13447,-4061,-1282,-618,1364,3336,-2399,170,438,-160,1,0,35,13,840,1,53298,1
2,30716,30698,31748,52810,13449,-3339,-2308,-3053,4604,6202,-3910,165,443,-177,1,0,35,13,880,1,53298,1
2,30728,30699,31831,52811,13452,-5537,814,-725,27810,10116,-5351,165,449,-199,1,0,35,13,920,1,53298,1
2,30734,30699,31852,52812,13454,-4559,552,-1390,27330,8889,-5628,168,454,-210,1,0,35,13,960,1,53298,1
1,30722,30701,31873,52813,0,-3898,-2643,-3336,13160,10688,-7463,176,452,-250,1,0,35,14,0,1,53298,1
2,30734,30703,31899,52814,12907,-3931,-1943,-2646,21293,13383,-9278,189,461,-263,1,0,35,14,40,1,53298,1
2,30730,30708,31923,52815,12910,-4172,-550,-1330,21677,12618,-10795,199,451,-283,1,0,35,14,80,1,53298,1
2,30746,30710,31941,52816,12913,-4391,191,-638,12851,8237,-9337,221,451,-287,1,0,35,14,120,1,53298,1
2,30746,30711,31947,52817,12915,-4270,-324,-994,-575,3312,-5644,214,448,-286,1,0,35,14,160,1,53298,1
2,30718,30712,31958,52818,12917,-5042,260,-392,-5259,-275,-558,222,448,-280,1,0,35,14,200,1,53298,1
2,30682,30708,31920,52819,12918,-5589,-1599,-2500,-6729,-3708,3236,218,456,-266,1,0,35,14,240,1,53298,1
2,30696,30703,31873,52820,12920,-4338,-184,-1029,-10851,-5307,3407,197,457,-249,1,0,35,14,280,1,53298,1
2,30648,30699,31811,52821,12921,-3887,-968,-1758,-17317,-7240,4670,199,449,-257,1,0,35,14,320,1,53298,1
2,30695,30696,31788,52822,12922,-4424,-1677,-1768,-18610,-7895,4942,189,449,-245,1,0,35,14,360,1,53298,1
2,30700,30694,31746,52823,12924,-4686,648,-1004,-11120,-8651,5228,184,454,-226,1,0,35,14,400,1,53298,1
2,30661,30694,31705,52824,12926,-4683,229,-836,-17000,-10065,5976,184,438,-206,1,0,35,14,440,1,53298,1
2,30704,30684,31672,52825,12927,-4754,649,-356,-16744,-11886,6505,174,440,-178,1,0,35,14,480,1,53298,1
2,30749,30679,31649,52826,12929,-4593,574,-446,-17448,-13143,6832,173,439,-163,1,0,35,14,520,1,53298,1
2,30797,30686,31647,52827,12931,-4100,-834,-1558,-15286,-12433,6553,165,435,-143,1,0,35,14,560,1,53298,1
2,30747,30690,31656,52828,12934,-3919,-1076,-494,-5144,-9986,4743,168,426,-136,1,0,35,14,600,1,53298,1
2,30783,30693,31664,52829,12937,-3837,-203,-399,4479,-7313,3247,161,421,-139,1,0,35,14,640,1,53298,1
2,30822,30695,31661,52830,12941,-4408,-410,-3022,6201,-2222,1166,156,428,-146,1,0,35,14,680,1,53298,1
2,30900,30698,31680,52831,12943,-5157,-955,-1847,8611,4970,-2285,162,438,-154,1,0,35,14,720,1,53298,1
2,31107,30701,31719,52832,12946,-4953,610,555,9969,8542,-5195,162,430,-160,1,0,35,14,760,1,53298,1
2,31040,30696,31748,52833,12949,-3808,518,87,21267,8130,-2628,137,435,-187,1,0,35,14,800,1,53298,1
2,31061,30697,31789,52834,12951,-4164,745,47,32767,6728,179,133,441,-205,1,0,35,14,840,1,53298,1
2,31045,30684,31801,52835,12953,-5536,-857,-3021,19668,5288,-2745,130,438,-210,1,0,35,14,880,1,53298,1
2,31003,30686,31819,52836,12953,-4140,-1856,-1864,-4033,4656,-5555,143,445,-221,1,0,35,14,920,1,53298,1
2,29326,30686,31826,52837,12954,-3907,-2552,-2281,5195,6586,-5700,155,451,-233,1,0,35,14,960,1,53298,1
1,28143,30689,31855,52838,0,-4129,-2155,-2103,8346,6516,-8013,157,455,-249,1,0,35,15,0,1,53298,1
2,28162,30688,31862,52839,12393,-4177,-1382,-1660,7250,6041,-10091,177,447,-245,1,0,35,15,40,1,53298,1
2,28048,30687,31870,52840,12395,-4052,-1491,-1571,-767,5282,-11144,193,453,-265,1,0,35,15,80,1,53298,1
2,28126,30680,31861,52841,12396,-4212,-668,-1330,-3575,4214,-11063,212,456,-262,1,0,35,15,120,1,53298,1
2,28139,30688,31864,52842,12398,-4362,113,-1036,-3524,2616,-8869,220,450,-276,1,0,35,15,160,1,53298,1
2,28188,30690,31869,52843,12398,-4905,1621,-302,-4156,384,-4524,220,454,-274,1,0,35,15,200,1,53298,1
2,28350,30692,31861,52844,12400,-5697,593,279,-7143,-4295,1857,209,449,-251,1,0,35,15,240,1,53298,1
2,28417,30688,31830,52845,12400,-5365,-1239,-1632,-13472,-7182,4690,204,452,-244,1,0,35,15,280,1,53298,1
2,28361,30684,31767,52846,12402,-4773,44,-597,-14457,-10037,5657,201,449,-229,1,0,35,15,320,1,53298,1
2,28437,30644,31718,52847,12403,-4876,774,-433,-15921,-13445,8193,199,443,-205,1,0,35,15,360,1,53298,1
2,28546,30637,31667,52848,12404,-4779,917,-740,-19195,-15803,9464,185,437,-177,1,0,35,15,400,1,53298,1
2,28655,30636,31638,52849,12404,-4311,632,-1447,-19024,-16228,9891,187,445,-161,1,0,35,15,440,1,53298,1
2,28774,30671,31629,52850,12406,-3705,-1530,-2416,-14574,-13265,9006,182,426,-134,1,0,35,15,480,1,53298,1
2,28770,30663,31641,52851,12409,-3497,-1892,-1217,-4009,-7848,6120,174,428,-134,1,0,35,15,520,1,53298,1
2,28768,30657,31655,52852,12411,-4372,-1914,-1484,4163,-2666,2171,168,426,-138,1,0,35,15,560,1,53298,1
2,28923,30679,31670,52853,12413,-5448,-52,-1291,6823,1981,-1618,173,439,-139,1,0,35,15,600,1,53298,1
2,28930,30665,31671,52854,12415,-4983,883,92,7880,3806,-2938,170,430,-154,1,0,35,15,640,1,53298,1
2,28897,30652,31680,52855,12416,-4099,-1301,-1725,7445,6526,-4247,173,433,-161,1,0,35,15,680,1,53298,1
2,28988,30669,31717,52856,12418,-3903,-819,-1740,10552,11650,-7124,173,453,-189,1,0,35,15,720,1,53298,1
2,28933,30654,31756,52857,12419,-4141,318,-1129,18496,14276,-7572,172,452,-202,1,0,35,15,760,1,53298,1
2,28911,30661,31797,52858,12420,-4365,-642,-2319,18519,14384,-7036,189,451,-243,1,0,35,15,800,1,53298,1
2,29001,30658,31839,52859,12422,-4243,-1229,-3192,21635,14954,-6333,191,465,-267,1,0,35,15,840,1,53298,1
2,28931,30683,31866,52860,12423,-4239,-380,-2900,28060,14427,-5775,192,458,-278,1,0,35,15,880,1,53298,1
2,28967,30694,31890,52861,12425,-4336,-630,-1605,23037,10704,-3988,196,458,-296,1,0,35,15,920,1,53298,1
2,28997,30695,31887,52862,12426,-4321,-841,-298,12640,6422,-2079,205,455,-301,1,0,35,15,960,1,53298,1
1,29008,30697,31894,52863,0,-4143,-1317,-618,935,1941,-1367,214,456,-300,1,0,35,16,0,1,53298,1
2,29000,30697,31912,52864,11881,-4251,-773,-688,-4447,-832,-558,201,463,-293,1,0,35,16,40,1,53298,1
2,29012,30699,31912,52865,11883,-4513,-643,-1961,-6460,-2462,1284,196,456,-288,1,0,35,16,80,1,53298,1
2,28996,30695,31887,52866,11886,-4934,-1361,-2761,-8423,-2475,1993,193,449,-279,1,0,35,16,120,1,53298,1
2,28969,30688,31840,52867,11888,-4199,-357,-1448,-9682,-3014,1823,185,457,-285,1,0,35,16,160,1,53298,1
2,28975,30687,31799,52868,11889,-4166,-572,-1521,-16869,-4558,1972,190,454,-276,1,0,35,16,200,1,53298,1
2,29073,30675,31777,52869,11890,-4614,-872,-1341,-17215,-5738,2599,190,454,-258,1,0,35,16,240,1,53298,1
2,29204,30670,31724,52870,11890,-5005,254,-993,-14317,-8278,3353,184,452,-238,1,0,35,16,280,1,53298,1
2,29147,30664,31682,52871,11890,-4724,168,-788,-20467,-12162,4730,180,452,-212,1,0,35,16,320,1,53298,1
2,29187,30660,31657,52872,11890,-4976,285,-307,-21597,-14795,5985,180,448,-194,1,0,35,16,360,1,53298,1
2,29169,30666,31639,52873,11892,-4172,-410,-1755,-19994,-17091,5677,180,442,-166,1,0,35,16,400,1,53298,1
2,29221,30676,31658,52874,11895,-4092,-1642,-1435,-12168,-14869,3783,174,430,-148,1,0,35,16,440,1,53298,1
2,29324,30680,31666,52875,11896,-3757,-122,-744,2200,-12601,3207,163,421,-135,1,0,35,16,480,1,53298,1
2,29306,30674,31675,52876,11897,-4056,-102,-2424,3352,-7742,2188,161,423,-129,1,0,35,16,520,1,53298,1
2,29331,30669,31695,52877,11898,-4707,-883,-3354,3147,127,-338,167,429,-135,1,0,35,16,560,1,53298,1
2,29208,30660,31743,52878,11899,-4639,-623,-923,5319,4639,-2633,159,425,-153,1,0,35,16,600,1,53298,1
2,29166,30665,31792,52879,11901,-5213,-1160,-1143,12154,7179,-4203,160,428,-162,1,0,35,16,640,1,53298,1
2,29238,30685,31829,52880,11902,-4369,-341,-356,24165,9642,-5423,161,439,-181,1,0,35,16,680,1,53298,1
2,29285,30681,31853,52881,11903,-4110,-898,-1672,11857,8734,-8721,173,445,-201,1,0,35,16,720,1,53298,1
2,29288,30676,31866,52882,11905,-4348,-1256,-1739,4938,10425,-10682,186,452,-222,1,0,35,16,760,1,53298,1
2,29335,30678,31886,52883,11906,-4303,-852,-2008,8794,11250,-11340,195,449,-239,1,0,35,16,800,1,53298,1
2,29365,30680,31896,52884,11906,-4118,-1179,-2567,10146,11830,-11599,212,458,-258,1,0,35,16,840,1,53298,1
2,29427,30681,31903,52885,11907,-4418,69,-1510,11844,12168,-10889,226,454,-264,1,0,35,16,880,1,53298,1
2,29418,30673,31908,52886,11909,-4403,70,-963,7514,9656,-7798,228,454,-280,1,0,35,16,920,1,53298,1
2,29484,30669,31910,52887,11909,-4993,748,303,2350,4600,-3147,224,456,-270,1,0,35,16,960,1,53298,1
1,29388,30670,31894,52888,0,-6162,-850,791,-3075,-2560,1905,222,444,-260,1,0,35,17,0,1,53298,1
2,29385,30667,31849,52889,11367,-5194,-1086,-1983,-13049,-7684,4011,221,459,-253,1,0,35,17,40,1,53298,1
2,29384,30645,31804,52890,11369,-4535,-127,-1599,-16256,-10736,5196,214,456,-238,1,0,35,17,80,1,53298,1
2,29382,30657,31739,52891,11370,-4602,179,-859,-16753,-12885,7663,203,461,-221,1,0,35,17,120,1,53298,1
2,29436,30654,31688,52892,11371,-5250,1198,-72,-18007,-15231,9901,190,446,-188,1,0,35,17,160,1,53298,1
2,29350,30658,31644,52893,11372,-4719,684,-1058,-20817,-17874,11434,186,442,-168,1,0,35,17,200,1,53298,1
2,29142,30656,31629,52894,11374,-3552,-1231,-2989,-18543,-15656,10413,182,430,-140,1,0,35,17,240,1,53298,1
2,29117,30645,31636,52895,11378,-3378,-1233,-1822,-6554,-9613,8003,172,430,-138,1,0,35,17,280,1,53298,1
2,29017,30648,31640,52896,11381,-3766,-1819,-1345,4052,-3387,4515,161,435,-135,1,0,35,17,320,1,53298,1
2,29240,30636,31667,52897,11384,-6704,-1244,-2051,10590,2387,-939,178,424,-160,1,0,35,17,360,1,53298,1
2,29194,30653,31677,52898,11386,-5063,889,-254,3858,5112,-4202,181,437,-165,1,0,35,17,400,1,53298,1
2,29285,30622,31691,52899,11388,-4221,-1264,-1251,8790,6504,-4437,177,433,-177,1,0,35,17,440,1,53298,1
2,29233,30609,31746,52900,11389,-3883,-1643,-1218,12857,9551,-5568,171,441,-189,1,0,35,17,480,1,53298,1
2,29162,30647,31785,52901,11389,-4496,307,-432,18389,9374,-7045,177,445,-215,1,0,35,17,520,1,53298,1
2,29173,30643,31815,52902,11388,-4649,537,-1548,12710,7036,-6000,187,447,-225,1,0,35,17,560,1,53298,1
2,29181,30631,31845,52903,11389,-4288,-2214,-2665,6724,6743,-6046,183,451,-223,1,0,35,17,600,1,53298,1
2,29256,30621,31863,52904,11390,-3853,-2385,-2551,11442,9162,-8703,199,459,-243,1,0,35,17,640,1,53298,1
2,29263,30621,31891,52905,11391,-3951,-1875,-2156,13649,10022,-10822,216,456,-258,1,0,35,17,680,1,53298,1
2,29297,30635,31901,52906,11393,-4109,-1082,-1862,11385,9009,-11445,233,449,-269,1,0,35,17,720,1,53298,1
2,29277,30598,31901,52907,11394,-4577,658,-467,7398,6769,-9794,245,439,-275,1,0,35,17,760,1,53298,1
2,29230,30625,31894,52908,11396,-4853,1601,192,-4508,1116,-5356,242,456,-268,1,0,35,17,800,1,53298,1
2,29317,30625,31880,52909,11398,-6280,-929,130,-14708,-4981,1424,234,450,-258,1,0,35,17,840,1,53298,1
2,29220,30630,31829,52910,11400,-5493,-1779,-2253,-14331,-8362,5206,235,449,-253,1,0,35,17,880,1,53298,1
2,29232,30622,31767,52911,11401,-4982,602,-70,-14343,-11821,6939,224,450,-230,1,0,35,17,920,1,53298,1
2,29330,30623,31698,52912,11403,-5292,1435,412,-17987,-16421,10364,203,453,-201,1,0,35,17,960,1,53298,1
1,29738,30626,31629,52913,0,-5567,2204,-836,-21545,-20420,13257,199,437,-181,1,0,35,18,0,0,53298,1
2,29655,30613,31636,52914,10856,-4143,-3257,-3443,-23308,-18280,11634,181,433,-147,1,0,35,18,40,0,53298,1
2,29658,30618,31665,52915,10858,-3305,12,468,4273,-16231,12112,172,420,-132,1,0,35,18,80,0,53298,1
2,29686,30627,31673,52916,10860,-3912,-768,83,8642,-14311,10837,147,417,-117,1,0,35,18,120,0,53298,1
2,29718,30659,31688,52917,10861,-4034,-1682,-1295,2748,-10116,6461,144,398,-108,1,0,35,18,160,0,53298,1
2,29796,30656,31702,52918,10863,-4050,-1568,-2750,1434,-3892,979,157,413,-117,1,0,35,18,200,0,53298,1
2,29827,30649,31709,52919,10866,-7646,486,-2077,3430,3340,-2193,146,410,-126,1,0,35,18,240,0,53298,1
2,29847,30670,31699,52920,10869,-5076,31,183,8006,4193,-2733,139,413,-121,1,0,35,18,280,0,53298,1
2,29870,30695,31692,52921,10871,-3463,-1046,-879,8550,5215,-3315,150,434,-134,1,0,35,18,320,0,53298,1
2,29918,30687,31695,52922,10873,-4096,-249,-563,1344,7001,-6283,152,424,-146,1,0,35,18,360,0,53298,1
2,29942,30695,31699,52923,10875,-4673,-109,-676,-7304,7181,-6692,169,431,-171,1,0,35,18,400,0,53298,1
2,29962,30693,31701,52924,10877,-4507,-345,-1150,-735,7410,-6212,180,440,-160,1,0,35,18,440,0,53298,1
2,29978,30683,31705,52925,10879,-4313,-527,-1322,3507,8572,-6835,181,443,-187,1,0,35,18,480,0,53298,1
2,29966,30687,31720,52926,10881,-4038,-1469,-2174,2004,11372,-8571,204,458,-202,1,0,35,18,520,0,53298,1
2,29912,30687,31737,52927,10882,-3889,-1551,-2411,3310,14244,-10145,210,448,-220,1,0,35,18,560,0,53298,1
2,29926,30684,31773,52928,10884,-4062,-862,-2038,8447,16106,-10833,230,458,-256,1,0,35,18,600,0,53298,1
2,29824,30693,31855,52929,10885,-4294,-400,-1951,14556,15870,-9803,231,451,-273,1,0,35,18,640,0,53298,1
2,29827,30700,31897,52930,10886,-5013,1314,-1109,20810,13656,-6122,237,451,-281,1,0,35,18,680,0,53298,1
2,29951,30708,31939,52931,10887,-5965,977,288,19223,7787,266,238,452,-276,1,0,35,18,720,0,53298,1
2,29966,30701,31900,52932,10890,-6576,-1620,936,4450,-233,3621,229,449,-267,1,0,35,18,760,0,53298,1
2,29993,30696,31850,52933,10892,-4809,-323,-1288,-10358,-6443,4269,225,449,-261,1,0,35,18,800,0,53298,1
2,29929,30698,31781,52934,10893,-4880,322,-843,-15589,-10718,5931,208,446,-238,1,0,35,18,840,0,53298,1
2,29921,30694,31728,52935,10895,-4658,89,-1155,-20406,-13300,7433,199,451,-229,1,0,35,18,880,0,53298,1
2,29956,30688,31683,52936,10896,-4633,497,-784,-18700,-14300,9427,191,445,-201,1,0,35,18,920,0,53298,1
2,30016,30689,31639,52937,10898,-5083,816,-798,-16906,-16174,10711,176,438,-178,1,0,35,18,960,0,53298,1
1,30059,30691,31637,52938,0,-3905,-1911,-3017,-19414,-15465,10034,180,430,-154,1,0,35,19,0,0,53298,1
2,30058,30687,31640,52939,10343,-3986,-756,-666,-6540,-12578,8607,163,431,-141,1,0,35,19,40,0,53298,1
2,30028,30688,31654,52940,10346,-4213,43,261,2704,-11777,7872,166,412,-124,1,0,35,19,80,0,53298,1
2,29991,30685,31660,52941,10348,-4300,-587,-862,1343,-9627,5626,156,416,-112,1,0,35,19,120,0,53298,1
2,30060,30689,31669,52942,10350,-4118,-434,-1804,1832,-5364,2152,149,421,-121,1,0,35,19,160,0,53298,1
2,30096,30687,31679,52943,10353,-5437,-886,-2495,351,1021,-1058,149,413,-129,1,0,35,19,200,0,53298,1
2,30075,30691,31699,52944,10356,-5132,-490,-662,2905,4388,-3263,157,419,-133,1,0,35,19,240,0,53298,1
2,30154,30692,31695,52945,10358,-4889,856,504,11461,4801,-3909,144,420,-138,1,0,35,19,280,0,53298,1
2,29975,30687,31708,52946,10359,-3990,-997,-1063,8661,6569,-4595,151,433,-153,1,0,35,19,320,0,53298,1
2,29846,30690,31725,52947,10361,-4266,-179,-488,8826,7864,-5740,154,434,-166,1,0,35,19,360,0,53298,1
2,29789,30688,31747,52948,10364,-4858,61,-842,7179,7665,-6847,164,442,-188,1,0,35,19,400,0,53298,1
2,29566,30687,31787,52949,10367,-4154,-1554,-2453,8542,8558,-7702,179,447,-203,1,0,35,19,440,0,53298,1
2,29490,30691,31846,52950,10370,-4127,-1842,-2545,12858,11838,-10627,188,452,-222,1,0,35,19,480,0,53298,1
2,29486,30694,31880,52951,10373,-4078,-1079,-2219,17741,14309,-12987,191,445,-251,1,0,35,19,520,0,53298,1
2,29522,30704,31907,52952,10375,-4645,-356,-1825,19800,13482,-12444,210,456,-258,1,0,35,19,560,0,53298,1
2,29584,30700,31931,52953,10377,-4838,1149,-774,18435,9904,-8996,220,462,-262,1,0,35,19,600,0,53298,1
2,29600,30691,31939,52954,10381,-5097,1320,161,8220,5036,-2921,223,453,-267,1,0,35,19,640,0,53298,1
2,29610,30706,31912,52955,10384,-5787,-41,1382,-2821,-1898,4323,213,453,-253,1,0,35,19,680,0,53298,1
2,29536,30695,31854,52956,10387,-6043,-517,-1395,-15745,-8352,7474,206,456,-240,1,0,35,19,720,0,53298,1
2,29424,30694,31788,52957,10390,-4922,1373,-754,-23435,-13296,9653,186,452,-216,1,0,35,19,760,0,53298,1
2,29441,30683,31709,52958,10392,-4876,1020,-873,-32768,-17680,11082,181,445,-187,1,0,35,19,800,0,53298,1
2,29560,30688,31667,52959,10393,-4928,514,-1106,-31870,-20137,11542,184,440,-156,1,0,35,19,840,0,53298,1
2,29631,30682,31645,52960,10396,-3871,-727,-2830,-23223,-17691,10287,184,422,-134,1,0,35,19,880,0,53298,1
2,29652,30686,31645,52961,10399,-3501,-2012,-2678,-10910,-10809,7124,174,424,-118,1,0,35,19,920,0,53298,1
2,29705,30685,31656,52962,10401,-3655,-1968,-1343,1225,-2421,3111,169,419,-131,1,0,35,19,960,0,53298,1
1,29682,30689,31690,52963,0,-4777,-1178,-146,8635,3229,-1247,173,429,-135,1,0,35,20,0,0,53298,1
2,29792,30686,31694,52964,9831,-5821,2225,263,6113,4082,-3408,172,434,-152,1,0,35,20,40,0,53298,1
2,29836,30686,31692,52965,9834,-4647,-54,-475,3329,4681,-3172,176,430,-150,1,0,35,20,80,0,53298,1
2,29825,30684,31698,52966,9837,-3924,-1371,-1393,2685,6771,-3625,177,435,-163,1,0,35,20,120,0,53298,1
2,29832,30683,31719,52967,9840,-4105,-686,-956,6231,9227,-4240,187,445,-185,1,0,35,20,160,0,53298,1
2,29815,30685,31735,52968,9842,-4696,-66,-1043,8493,9912,-4795,185,433,-199,1,0,35,20,200,0,53298,1
2,29804,30689,31784,52969,9843,-4274,-1427,-2725,11078,10246,-5069,192,454,-204,1,0,35,20,240,0,53298,1
2,29774,30689,31832,52970,9845,-3853,-1996,-3191,17444,12784,-7027,190,448,-238,1,0,35,20,280,0,53298,1
2,29717,30694,31865,52971,9846,-4065,-1161,-2453,23326,14468,-9126,206,446,-262,1,0,35,20,320,0,53298,1
2,29716,30697,31893,52972,9849,-4103,-807,-1918,20298,13010,-9881,215,451,-271,1,0,35,20,360,0,53298,1
2,29771,30699,31908,52973,9852,-4383,-451,-1533,14052,10219,-8999,227,455,-277,1,0,35,20,400,0,53298,1
2,29766,30698,31904,52974,9853,-4770,163,-882,7536,6604,-5871,229,457,-277,1,0,35,20,440,0,53298,1
2,29766,30695,31884,52975,9856,-5116,1211,388,753,1566,-1012,232,454,-290,1,0,35,20,480,0,53298,1
2,29775,30697,31862,52976,9859,-5800,-115,161,-15999,-5342,3514,215,455,-275,1,0,35,20,520,0,53298,1
2,29716,30691,31779,52977,9862,-6342,-437,-1835,-20438,-11190,7239,211,449,-255,1,0,35,20,560,0,53298,1
2,29692,30685,31716,52978,9864,-5442,1242,-805,-25371,-15332,8557,204,452,-232,1,0,35,20,600,0,53298,1
2,29742,30677,31658,52979,9866,-5470,1702,160,-26819,-20591,11869,188,446,-188,1,0,35,20,640,0,53298,1
2,29832,30682,31622,52980,9869,-4275,-449,-2228,-25400,-24258,13539,178,436,-154,1,0,35,20,680,0,53298,1
2,29785,30684,31635,52981,9872,-3658,-2381,-2331,-14687,-19792,10006,168,418,-140,1,0,35,20,720,0,53298,1
2,29737,30680,31665,52982,9875,-3221,-1210,-921,3089,-15117,7401,154,414,-124,1,0,35,20,760,0,53298,1
2,29734,30687,31717,52983,9878,-3694,-1410,-671,10164,-9427,3604,139,405,-117,1,0,35,20,800,0,53298,1
2,29794,30687,31743,52984,9880,-4467,-685,-772,13659,-4471,-1073,145,415,-117,1,0,35,20,840,0,53298,1
2,29822,30694,31745,52985,9882,-5881,1782,-3341,6714,596,-2817,147,411,-121,1,0,35,20,880,0,53298,1
2,29814,30686,31734,52986,9884,-5740,-161,9,940,3191,-1911,146,420,-134,1,0,35,20,920,0,53298,1
2,29821,30688,31712,52987,9887,-4531,-349,25,4708,3540,-2026,143,411,-131,1,0,35,20,960,0,53298,1
1,29841,30689,31701,52988,0,-3695,-1512,-1764,-312,6060,-4156,159,431,-161,1,0,35,21,0,0,53298,1
2,29820,30693,31716,52989,9318,-3899,-1467,-2193,-2589,10724,-8504,171,443,-173,1,0,35,21,40,0,53298,1
2,29818,30694,31726,52990,9321,-4753,-384,-1780,590,14338,-10354,188,438,-200,1,0,35,21,80,0,53298,1
2,29599,30683,31760,52991,9324,-4327,-1175,-2721,6699,18020,-11625,200,452,-230,1,0,35,21,120,0,53298,1
2,29369,30697,31816,52992,9326,-4141,-1477,-2975,15897,21820,-13586,206,452,-260,1,0,35,21,160,0,53298,1
2,29475,30693,31862,52993,9328,-4684,-242,-1799,24319,20723,-13237,230,454,-280,1,0,35,21,200,0,53298,1
2,29515,30697,31886,52994,9330,-4844,524,-970,21653,15537,-10804,247,449,-281,1,0,35,21,240,0,53298,1
2,29543,30695,31906,52995,9332,-4867,572,-615,13073,8825,-5839,244,452,-298,1,0,35,21,280,0,53298,1
2,29592,30700,31908,52996,9335,-5588,1144,996,4648,1380,1140,235,447,-275,1,0,35,21,320,0,53298,1
2,29617,30696,31895,52997,9338,-4815,-1837,-502,-5732,-4360,5655,234,448,-270,1,0,35,21,360,0,53298,1
2,29612,30695,31881,52998,9340,-4600,-1086,-1869,-14887,-8731,5782,222,454,-272,1,0,35,21,400,0,53298,1
2,29576,30694,31852,52999,9341,-4756,-529,-3243,-15875,-8632,5877,209,455,-257,1,0,35,21,440,0,53298,1
2,29550,30691,31809,53000,9343,-4620,554,-655,-12169,-8547,7285,205,451,-243,1,0,35,21,480,0,53298,1
2,29502,30687,31737,53001,9344,-4856,310,-227,-13934,-10773,9206,185,451,-225,1,0,35,21,520,0,53298,1
2,29482,30688,31685,53002,9346,-5202,312,-112,-17192,-13686,9784,183,437,-195,1,0,35,21,560,0,53298,1
2,29508,30690,31658,53003,9347,-4829,163,-319,-19413,-16279,9307,178,438,-174,1,0,35,21,600,0,53298,1
2,29566,30691,31646,53004,9350,-4337,-890,-1876,-17494,-16985,7649,169,435,-153,1,0,35,21,640,0,53298,1
2,29561,30687,31665,53005,9354,-4177,-1519,-986,-5998,-13441,4764,164,422,-138,1,0,35,21,680,0,53298,1
2,29572,30685,31692,53006,9356,-4030,-115,-19,10877,-11352,4142,164,416,-130,1,0,35,21,720,0,53298,1
2,29569,30686,31714,53007,9358,-3981,-458,-690,8554,-8386,2197,154,410,-120,1,0,35,21,760,0,53298,1
2,29604,30689,31716,53008,9359,-4556,-243,-1713,5877,-4868,146,153,411,-125,1,0,35,21,800,0,53298,1
2,29599,30690,31728,53009,9360,-5092,-31,-3577,-688,592,-1345,157,409,-127,1,0,35,21,840,0,53298,1
2,29610,30688,31718,53010,9362,-5705,143,231,2938,2978,-1973,158,422,-126,1,0,35,21,880,0,53298,1
2,29570,30688,31699,53011,9365,-4259,-362,-415,4353,3762,-2130,161,421,-139,1,0,35,21,920,0,53298,1
2,29604,30690,31707,53012,9366,-3650,-1780,-1710,-1159,7256,-5652,159,423,-153,1,0,35,21,960,0,53298,1
1,29609,30690,31732,53013,0,-4121,-1680,-2163,-1636,12313,-10245,177,445,-171,1,0,35,22,0,0,53298,1
2,29555,30689,31767,53014,8807,-4753,-1292,-2211,4441,16342,-12512,197,451,-197,1,0,35,22,40,0,53298,1
2,29514,30691,31832,53015,8809,-4423,-1483,-2762,14027,20397,-14492,213,455,-227,1,0,35,22,80,0,53298,1
2,29550,30693,31863,53016,8812,-4822,-351,-1650,21285,21255,-15453,229,451,-269,1,0,35,22,120,0,53298,1
2,29551,30694,31871,53017,8815,-4845,536,-782,18948,17444,-13439,248,448,-264,1,0,35,22,160,0,53298,1
2,29611,30695,31882,53018,8818,-4582,679,-690,10471,10849,-8174,247,449,-277,1,0,35,22,200,0,53298,1
2,29597,30698,31898,53019,8820,-4828,354,-6,3706,3898,-289,246,444,-278,1,0,35,22,240,0,53298,1
2,29642,30696,31879,53020,8823,-5434,-1122,587,-1823,-4112,6497,230,456,-264,1,0,35,22,280,0,53298,1
2,29647,30698,31848,53021,8827,-5599,-1386,-1941,-15983,-10905,7771,222,450,-254,1,0,35,22,320,0,53298,1
2,29600,30693,31813,53022,8830,-4926,-431,-2773,-17885,-11812,7318,215,455,-239,1,0,35,22,360,0,53298,1
2,29584,30689,31748,53023,8833,-4438,1354,-55,-12552,-12910,8805,203,455,-223,1,0,35,22,400,0,53298,1
2,29551,30687,31692,53024,8835,-4727,647,33,-16800,-14210,10910,181,445,-203,1,0,35,22,440,0,53298,1
2,29598,30689,31653,53025,8837,-5227,272,228,-16836,-15585,11294,191,439,-171,1,0,35,22,480,0,53298,1
2,29587,30689,31646,53026,8841,-4410,-1242,-1804,-16577,-16271,9604,178,422,-156,1,0,35,22,520,0,53298,1
2,29611,30686,31672,53027,8845,-4099,-1629,-739,-6708,-12646,5742,170,424,-132,1,0,35,22,560,0,53298,1
2,29584,30685,31695,53028,8848,-4334,145,658,13130,-11033,4714,159,419,-129,1,0,35,22,600,0,53298,1
2,29546,30685,31707,53029,8850,-4152,-242,-182,10355,-9200,3443,148,410,-116,1,0,35,22,640,0,53298,1
2,29569,30685,31725,53030,8853,-3841,-679,-1262,4608,-6197,1887,146,402,-112,1,0,35,22,680,0,53298,1
2,29620,30688,31734,53031,8855,-4383,-650,-2123,3671,-2006,219,145,409,-119,1,0,35,22,720,0,53298,1
2,29632,30689,31745,53032,8857,-5796,-430,-2235,3442,2674,-1847,139,411,-125,1,0,35,22,760,0,53298,1
2,29611,30689,31739,53033,8859,-5757,837,702,6327,3552,-2357,152,408,-142,1,0,35,22,800,0,53298,1
2,29603,30687,31717,53034,8862,-4157,-966,-1190,2857,4914,-3344,157,415,-147,1,0,35,22,840,0,53298,1
2,29679,30690,31717,53035,8865,-3499,-2435,-2536,-1070,9063,-6852,163,437,-163,1,0,35,22,880,0,53298,1
2,29583,30689,31739,53036,8867,-4684,-1456,-1595,5084,13539,-9429,178,436,-180,1,0,35,22,920,0,53298,1
2,29455,30691,31769,53037,8870,-4808,-864,-1597,11574,14605,-11161,182,450,-202,1,0,35,22,960,0,53298,1
1,29237,30694,31825,53038,0,-4328,-1309,-2580,13026,15911,-13189,202,452,-234,1,0,35,23,0,0,53298,1
2,29292,30696,31869,53039,8295,-4553,-228,-1519,15081,16538,-14320,213,455,-249,1,0,35,23,40,0,53298,1
2,29300,30695,31869,53040,8297,-4748,-19,-671,10378,14102,-12894,235,447,-267,1,0,35,23,80,0,53298,1
2,29273,30696,31856,53041,8298,-4536,-61,-632,2531,10192,-9590,232,448,-272,1,0,35,23,120,0,53298,1
2,29370,30694,31843,53042,8300,-4651,-280,-505,-3560,5370,-5217,243,449,-275,1,0,35,23,160,0,53298,1
2,29368,30693,31849,53043,8303,-5252,-98,109,-6410,-581,241,238,456,-270,1,0,35,23,200,0,53298,1
2,29400,30693,31817,53044,8305,-5552,-132,68,-9436,-7902,4902,229,451,-257,1,0,35,23,240,0,53298,1
2,29448,30697,31770,53045,8307,-5195,-625,-1963,-18345,-12469,6479,214,456,-246,1,0,35,23,280,0,53298,1
2,29458,30693,31723,53046,8309,-4784,-274,-2265,-18386,-12651,6646,207,453,-221,1,0,35,23,320,0,53298,1
2,29426,30692,31676,53047,8311,-4931,966,86,-13667,-14445,8444,197,447,-191,1,0,35,23,360,0,53298,1
2,29269,30691,31645,53048,8313,-4748,501,-296,-12700,-16026,10309,189,437,-177,1,0,35,23,400,0,53298,1
2,29283,30687,31659,53049,8316,-4276,-1832,-1392,-12942,-14508,8858,174,432,-152,1,0,35,23,440,0,53298,1
2,29257,30680,31675,53050,8319,-4108,-130,546,842,-13959,7979,176,424,-138,1,0,35,23,480,0,53298,1
2,29235,30681,31683,53051,8323,-3971,-302,227,4871,-13121,6777,152,418,-120,1,0,35,23,520,0,53298,1
2,29253,30685,31705,53052,8325,-4224,-595,-474,4279,-10644,4391,156,410,-114,1,0,35,23,560,0,53298,1
2,29302,30690,31714,53053,8326,-4247,-390,-1360,3838,-7523,2333,153,405,-109,1,0,35,23,600,0,53298,1
2,29330,30694,31718,53054,8328,-4285,-748,-2559,736,-2362,9,155,409,-117,1,0,35,23,640,0,53298,1
2,29336,30691,31718,53055,8330,-6296,-161,-1791,2837,3727,-2567,148,410,-128,1,0,35,23,680,0,53298,1
2,29311,30688,31699,53056,8334,-5261,816,446,10332,4123,-2478,153,415,-135,1,0,35,23,720,0,53298,1
2,29316,30683,31690,53057,8339,-3720,-923,-1338,4890,7057,-4382,153,427,-153,1,0,35,23,760,0,53298,1
2,29361,30693,31693,53058,8343,-4156,-1008,-1277,2725,10781,-7667,170,428,-162,1,0,35,23,800,0,53298,1
2,29366,30693,31703,53059,8347,-4550,-693,-1345,4407,12358,-8603,170,438,-182,1,0,35,23,840,0,53298,1
2,29388,30692,31725,53060,8350,-4505,-267,-1374,9439,12526,-8202,192,452,-194,1,0,35,23,880,0,53298,1
2,29409,30693,31769,53061,8353,-4235,-1150,-1945,8189,12840,-8813,199,449,-219,1,0,35,23,920,0,53298,1
2,29422,30695,31813,53062,8355,-3970,-1434,-2013,5776,13043,-10071,208,448,-248,1,0,35,23,960,0,53298,1
1,29436,30698,31866,53063,0,-4244,-1081,-1631,7759,11899,-9779,222,462,-256,1,0,35,24,0,0,53298,1
2,29458,30699,31882,53064,7783,-4645,-671,-1328,7424,9756,-8560,221,455,-269,1,0,35,24,40,0,53298,1
2,29427,30695,31870,53065,7786,-4793,-457,-993,4808,6878,-6442,246,454,-268,1,0,35,24,80,0,53298,1
2,29429,30689,31829,53066,7788,-4804,-172,-863,-468,3883,-4175,238,464,-280,1,0,35,24,120,0,53298,1
2,29426,30686,31805,53067,7789,-4873,201,-660,-5678,527,-856,234,450,-276,1,0,35,24,160,0,53298,1
2,29470,30686,31784,53068,7790,-5076,-404,-460,-9632,-3986,2784,226,460,-268,1,0,35,24,200,0,53298,1
2,29505,30685,31738,53069,7792,-5402,-683,-1215,-10455,-7171,4693,225,447,-257,1,0,35,24,240,0,53298,1
2,29384,30687,31714,53070,7795,-4837,-773,-2028,-13636,-9443,5925,213,461,-235,1,0,35,24,280,0,53298,1
2,29381,30689,31704,53071,7796,-4657,-454,-1161,-11925,-11290,6520,204,452,-220,1,0,35,24,320,0,53298,1
2,29345,30686,31720,53072,7798,-4335,-675,87,-8483,-12857,7452,198,444,-206,1,0,35,24,360,0,53298,1
2,29364,30689,31721,53073,7801,-4687,592,1268,736,-15525,8831,174,428,-174,1,0,35,24,400,0,53298,1
2,29377,30689,31709,53074,7803,-4774,-121,180,-3300,-17911,9505,171,431,-145,1,0,35,24,440,0,53298,1
2,29409,30689,31707,53075,7805,-4225,-347,-850,-5951,-17511,8270,170,412,-134,1,0,35,24,480,0,53298,1
2,29413,30690,31713,53076,7808,-4078,-822,-1369,-2891,-14553,5944,156,410,-112,1,0,35,24,520,0,53298,1
2,29445,30690,31713,53077,7811,-3874,-1168,-2070,2379,-9170,3088,149,403,-119,1,0,35,24,560,0,53298,1
2,29145,30693,31712,53078,7813,-4247,-727,-3327,8381,-2428,784,154,412,-126,1,0,35,24,600,0,53298,1
2,29366,30690,31726,53079,7816,-6409,-855,-308,4943,3659,-2433,141,411,-125,1,0,35,24,640,0,53298,1
2,29551,30691,31723,53080,7819,-4710,679,745,6828,3468,-2773,149,411,-123,1,0,35,24,680,0,53298,1
2,29550,30690,31712,53081,7821,-3943,-828,-1362,670,4300,-2893,155,419,-127,1,0,35,24,720,0,53298,1
2,29566,30689,31708,53082,7824,-4003,-697,-1449,708,7639,-4683,162,432,-146,1,0,35,24,760,0,53298,1
2,29535,30688,31708,53083,7827,-4578,-931,-1713,-2130,11199,-6890,180,442,-162,1,0,35,24,800,0,53298,1
2,29664,30686,31703,53084,7829,-4521,-819,-1488,1501,13496,-7492,190,448,-196,1,0,35,24,840,0,53298,1
2,29700,30687,31704,53085,7832,-4173,-991,-1701,5095,14814,-8492,199,445,-219,1,0,35,24,880,0,53298,1
2,29844,30686,31702,53086,7833,-3943,-1172,-2105,4490,15526,-9588,213,455,-235,1,0,35,24,920,0,53298,1
2,29785,30685,31708,53087,7835,-4172,-1302,-1925,2716,15856,-9998,224,456,-260,1,0,35,24,960,0,53298,1
1,29837,30685,31724,53088,7272,-4198,-1143,-1563,4838,14558,-9016,238,452,-278,1,0,35,25,0,0,53298,1
2,29790,30685,31746,53089,7274,-4556,-555,-1039,9013,11842,-6899,244,452,-286,1,0,35,25,40,0,53298,1
2,29881,30686,31776,53090,7277,-5407,1079,-447,12452,7336,-2746,237,447,-289,1,0,35,25,80,0,53298,1
2,29806,30688,31782,53091,7279,-6151,193,326,4396,1143,1272,235,453,-277,1,0,35,25,120,0,53298,1
2,29820,30685,31755,53092,7282,-5119,-1282,-1692,-5749,-3650,2935,233,453,-273,1,0,35,25,160,0,53298,1
2,29791,30681,31709,53093,7285,-5130,361,-487,-11636,-7706,4751,217,455,-263,1,0,35,25,200,0,53298,1
2,29858,30681,31679,53094,7287,-4852,-357,-741,-17638,-12602,7182,205,447,-241,1,0,35,25,240,0,53298,1
2,29838,30680,31633,53095,7290,-4973,482,-640,-16301,-15595,8500,196,446,-220,1,0,35,25,280,0,53298,1
2,29855,30680,31632,53096,7294,-4602,-983,-1650,-16886,-17104,8715,197,443,-185,1,0,35,25,320,0,53298,1
2,29803,30678,31653,53097,7297,-4230,-699,-99,-8055,-17293,8310,174,434,-160,1,0,35,25,360,0,53298,1
2,29830,30678,31676,53098,7299,-4082,415,774,5411,-17849,9172,168,434,-144,1,0,35,25,400,0,53298,1
2,29814,30679,31687,53099,7300,-3993,-363,-353,2796,-15937,7306,167,419,-119,1,0,35,25,440,0,53298,1
2,29831,30681,31701,53100,7302,-3935,-763,-1418,383,-12351,3616,161,407,-121,1,0,35,25,480,0,53298,1
2,29831,30681,31697,53101,7304,-4303,-738,-2918,-916,-6175,-209,164,416,-116,1,0,35,25,520,0,53298,1
2,29767,30686,31710,53102,7307,-6229,-1249,-3967,-653,2866,-2941,163,427,-125,1,0,35,25,560,0,53298,1
2,29791,30679,31698,53103,7311,-5592,379,389,11493,5940,-4061,156,422,-142,1,0,35,25,600,0,53298,1
2,29788,30678,31695,53104,7313,-4291,-1279,-1027,10574,8693,-5444,167,429,-163,1,0,35,25,640,0,53298,1
2,29796,30679,31705,53105,7313,-3644,-1725,-1453,7639,11403,-8542,164,428,-170,1,0,35,25,680,0,53298,1
2,29862,30682,31749,53106,7315,-3918,-1935,-2232,3368,13420,-11126,185,435,-201,1,0,35,25,720,0,53298,1
2,29885,30683,31820,53107,7316,-4507,-1552,-3393,8712,15477,-12195,202,450,-224,1,0,35,25,760,0,53298,1
2,29958,30687,31858,53108,7318,-4480,230,-2386,19851,16908,-12080,212,454,-244,1,0,35,25,800,0,53298,1
2,29894,30686,31857,53109,7320,-4531,412,-1310,17127,15503,-10688,227,457,-259,1,0,35,25,840,0,53298,1
2,29877,30688,31853,53110,7322,-4428,700,-937,9434,11974,-7210,240,450,-266,1,0,35,25,880,0,53298,1
2,29810,30689,31853,53111,7324,-4416,404,-655,314,7486,-2028,218,444,-274,1,0,35,25,920,0,53298,1
2,29895,30690,31858,53112,7324,-4810,12,-137,-3837,3001,3243,212,456,-276,1,0,35,25,960,0,53298,1
1,29905,30689,31851,53113,6761,-5411,-1235,-606,-9296,-2247,6021,208,460,-280,1,0,35,26,0,0,53298,1
2,29896,30691,31816,53114,6762,-5630,-3186,-2261,-13445,-4941,5439,202,448,-264,1,0,35,26,40,0,53298,1
2,29813,30684,31749,53115,6763,-4662,1630,-528,-9119,-7953,6052,185,457,-251,1,0,35,26,80,0,53298,1
2,29797,30676,31680,53116,6764,-4797,1292,-901,-16588,-10793,8589,175,453,-235,1,0,35,26,120,0,53298,1
2,29828,30674,31629,53117,6766,-4876,742,-462,-21944,-13114,9842,167,445,-193,1,0,35,26,160,0,53298,1
2,29893,30675,31597,53118,6768,-4884,269,-447,-19171,-15084,10590,166,442,-186,1,0,35,26,200,0,53298,1
2,29883,30675,31609,53119,6770,-3841,-1783,-1767,-17840,-15027,8930,157,435,-155,1,0,35,26,240,0,53298,1
2,29834,30675,31632,53120,6771,-4240,-1049,229,-2859,-12706,5697,144,424,-142,1,0,35,26,280,0,53298,1
2,29867,30678,31644,53121,6773,-4671,-337,636,7276,-11672,2857,148,424,-136,1,0,35,26,320,0,53298,1
2,29909,30681,31645,53122,6775,-4266,-823,-1367,1016,-10137,-317,143,421,-125,1,0,35,26,360,0,53298,1
2,29960,30685,31660,53123,6778,-4378,-360,-2314,-1114,-5474,-3191,161,415,-115,1,0,35,26,400,0,53298,1
2,29962,30684,31661,53124,6781,-4924,884,-2628,1555,-566,-4373,155,419,-123,1,0,35,26,440,0,53298,1
2,30012,30681,31654,53125,6784,-4671,425,-732,2938,3687,-3531,160,426,-142,1,0,35,26,480,0,53298,1
2,29992,30680,31656,53126,6787,-4470,-2043,-1044,4343,6544,-5302,168,432,-140,1,0,35,26,520,0,53298,1
2,29997,30683,31664,53127,6789,-4318,-1748,-1620,2824,9784,-8978,178,442,-166,1,0,35,26,560,0,53298,1
2,30003,30683,31700,53128,6791,-4389,-1072,-1997,806,13033,-11913,209,441,-177,1,0,35,26,600,0,53298,1
2,29947,30684,31769,53129,6793,-4032,-1402,-2810,3985,16677,-13473,220,450,-212,1,0,35,26,640,0,53298,1
2,29955,30687,31836,53130,6794,-4560,65,-2926,16867,20126,-14194,227,459,-237,1,0,35,26,680,0,53298,1
2,30041,30691,31865,53131,6796,-4938,1075,-1850,22472,19731,-12342,244,454,-258,1,0,35,26,720,0,53298,1
2,29955,30689,31845,53132,6798,-4750,1155,-983,17356,16432,-7376,246,450,-280,1,0,35,26,760,0,53298,1
2,29844,30688,31808,53133,6800,-4630,601,-1003,5982,11859,-2778,238,452,-288,1,0,35,26,800,0,53298,1
2,29571,30686,31766,53134,6801,-4462,315,-716,-5304,6360,1649,233,441,-281,1,0,35,26,840,0,53298,1
2,29525,30682,31740,53135,6802,-4208,-357,-1079,-10786,1515,6192,220,448,-296,1,0,35,26,880,0,53298,1
2,29608,30679,31720,53136,6802,-4538,-815,-1233,-10641,-2398,9509,205,451,-297,1,0,35,26,920,0,53298,1
2,29604,30677,31701,53137,6802,-4892,-1138,-1431,-9629,-4975,11352,199,459,-283,1,0,35,26,960,0,53298,1
1,29591,30675,31676,53138,6249,-5165,-1277,-2304,-8178,-6057,11124,170,452,-274,1,0,35,27,0,0,53298,1
2,29586,30672,31667,53139,6250,-5379,-922,-1043,-7962,-6511,8672,162,450,-254,1,0,35,27,40,0,53298,1
2,29575,30669,31668,53140,6252,-4866,-532,167,-8267,-9510,6533,159,457,-221,1,0,35,27,80,0,53298,1
2,29531,30667,31666,53141,6253,-4786,-588,250,-7138,-12152,4093,151,439,-213,1,0,35,27,120,0,53298,1
2,29495,30673,31660,53142,6254,-4380,-879,-494,-4311,-13678,1908,161,441,-203,1,0,35,27,160,0,53298,1
2,29346,30674,31665,53143,6256,-4225,-987,-2501,-3040,-10990,-497,164,444,-188,1,0,35,27,200,0,53298,1
2,29354,30671,31680,53144,6257,-4210,-689,-3033,3713,-5956,-3011,157,439,-187,1,0,35,27,240,0,53298,1
2,29329,30672,31695,53145,6258,-3671,-1402,-3827,9972,140,-5758,175,447,-209,1,0,35,27,280,0,53298,1
2,29383,30675,31751,53146,6259,-3641,-2001,-3936,21519,7423,-7595,177,451,-225,1,0,35,27,320,0,53298,1
2,29439,30684,31825,53147,6261,-4154,-2220,-3505,32243,11905,-9330,177,463,-251,1,0,35,27,360,0,53298,1
2,29525,30695,31865,53148,6265,-4515,-1006,-1595,32767,12087,-10612,200,448,-268,1,0,35,27,400,0,53298,1
2,29540,30696,31871,53149,6269,-4509,-99,-665,18023,7546,-11406,207,449,-275,1,0,35,27,440,0,53298,1
2,29562,30695,31874,53150,6273,-4093,-442,-471,1291,2065,-7015,221,457,-265,1,0,35,27,480,0,53298,1
2,29593,30697,31880,53151,6275,-3613,-615,-877,-7352,-2319,-2920,203,453,-255,1,0,35,27,520,0,53298,1
2,29616,30697,31898,53152,6276,-3945,362,-726,-10749,-4691,1000,205,457,-249,1,0,35,27,560,0,53298,1
2,29645,30703,31890,53153,6278,-5054,-107,-558,-12959,-7763,5596,204,456,-238,1,0,35,27,600,0,53298,1
2,29610,30697,31837,53154,6280,-6316,-1975,-3446,-19598,-8289,6094,192,446,-226,1,0,35,27,640,0,53298,1
2,29605,30689,31754,53155,6281,-5119,3296,809,-15274,-10623,8390,189,449,-209,1,0,35,27,680,0,53298,1
2,29613,30693,31701,53156,6282,-5468,1663,128,-32102,-14999,11511,177,441,-171,1,0,35,27,720,0,53298,1
2,29642,30692,31643,53157,6285,-4765,1757,-608,-27676,-18898,14066,178,420,-142,1,0,35,27,760,0,53298,1
2,29665,30691,31625,53158,6287,-3673,-947,-3025,-22831,-17114,13191,168,412,-124,1,0,35,27,800,0,53298,1
2,29620,30688,31636,53159,6289,-3067,-1788,-2838,-8036,-9878,10124,156,416,-116,1,0,35,27,840,0,53298,1
2,29558,30687,31678,53160,6291,-3346,-869,-1405,7186,-1239,6989,143,419,-127,1,0,35,27,880,0,53298,1
2,29382,30689,31705,53161,6292,-4825,-990,-488,12563,5343,2186,138,420,-144,1,0,35,27,920,0,53298,1
2,29431,30690,31721,53162,6292,-7810,-863,578,10032,4343,-2880,142,428,-142,1,0,35,27,960,0,53298,1
1,29051,30685,31726,53163,5738,-4528,280,-1930,6444,5799,-4263,146,428,-168,1,0,35,28,0,1,53298,1
2,28968,30690,31782,53164,5740,-3533,-3157,-3607,17145,12745,-6545,142,452,-208,1,0,35,28,40,1,53298,1
2,28684,30693,31828,53165,5742,-4130,-1357,-1735,28199,16255,-11999,163,449,-245,1,0,35,28,80,1,53298,1
2,28863,30695,31861,53166,5744,-4689,-958,-2163,26098,14460,-14553,175,453,-255,1,0,35,28,120,1,53298,1
2,28906,30697,31894,53167,5746,-4723,-450,-1956,22811,11464,-15784,201,449,-271,1,0,35,28,160,1,53298,1
2,29019,30700,31908,53168,5749,-4762,384,-1449,11376,8257,-17002,222,466,-286,1,0,35,28,200,1,53298,1
2,29068,30699,31905,53169,5752,-4326,281,-1211,-733,5171,-14160,231,447,-289,1,0,35,28,240,1,53298,1
2,29079,30697,31900,53170,5754,-4190,159,-978,-4463,2583,-7743,233,449,-285,1,0,35,28,280,1,53298,1
2,29125,30699,31903,53171,5756,-4684,836,55,-2996,-1064,-180,230,460,-276,1,0,35,28,320,1,53298,1
2,29139,30699,31877,53172,5758,-5656,-1168,-1029,-10825,-6984,4858,217,457,-259,1,0,35,28,360,1,53298,1
2,29143,30695,31827,53173,5759,-5136,-1111,-2993,-18372,-8409,4746,213,449,-253,1,0,35,28,400,1,53298,1
2,29128,30692,31769,53174,5761,-4843,317,-208,-15213,-10766,5257,203,449,-229,1,0,35,28,440,1,53298,1
2,29121,30694,31706,53175,5763,-4942,790,85,-20732,-14553,7786,205,449,-213,1,0,35,28,480,1,53298,1
2,29257,30694,31655,53176,5765,-5177,163,-1060,-25990,-18319,8746,197,441,-181,1,0,35,28,520,1,53298,1
2,29324,30692,31634,53177,5768,-4382,183,-2396,-20953,-18903,8865,193,443,-149,1,0,35,28,560,1,53298,1
2,29261,30690,31648,53178,5771,-4013,-1451,-1552,-10888,-15328,7848,183,429,-137,1,0,35,28,600,1,53298,1
2,29329,30690,31671,53179,5774,-3583,-987,42,2227,-12197,6698,174,422,-126,1,0,35,28,640,1,53298,1
2,29285,30695,31702,53180,5776,-3901,-1483,-548,5280,-8864,3255,167,411,-129,1,0,35,28,680,1,53298,1
2,29351,30697,31766,53181,5779,-3726,-1224,-2934,7784,-3081,-871,157,419,-131,1,0,35,28,720,1,53298,1
2,29233,30696,31782,53182,5781,-6150,1004,-1757,16948,4450,-2982,156,422,-148,1,0,35,28,760,1,53298,1
2,29163,30695,31783,53183,5783,-5551,-391,-101,14911,6576,-3473,155,431,-143,1,0,35,28,800,1,53298,1
2,29231,30699,31832,53184,5786,-4006,-2359,-1482,15161,9424,-5048,152,430,-176,1,0,35,28,840,1,53298,1
2,29326,30700,31853,53185,5787,-4179,-1374,-1178,19260,11425,-9106,172,446,-204,1,0,35,28,880,1,53298,1
2,29311,30704,31881,53186,5789,-4236,-2192,-1928,9689,11754,-13675,184,448,-222,1,0,35,28,920,1,53298,1
2,29372,30708,31908,53187,5789,-4518,-1485,-2352,9077,12473,-16316,203,453,-239,1,0,35,28,960,1,53298,1
1,29404,30708,31919,53188,5227,-4586,-816,-2596,9877,12441,-17511,228,450,-252,1,0,35,29,0,1,53298,1
2,29429,30705,31896,53189,5229,-4541,-408,-2218,7604,12458,-16242,248,452,-268,1,0,35,29,40,1,53298,1
2,29411,30696,31838,53190,5231,-4327,680,-1209,5214,10870,-11907,255,447,-261,1,0,35,29,80,1,53298,1
2,29514,30692,31782,53191,5233,-4935,1090,-1593,-9979,1563,-1746,248,446,-272,1,0,35,29,120,1,53298,1
2,29530,30689,31773,53192,5234,-4932,-2240,-1006,-26959,-1592,2922,241,459,-281,1,0,35,29,160,1,53298,1
2,29462,30690,31732,53193,5235,-5492,-40,-211,-15357,-7124,8403,219,449,-265,1,0,35,29,200,1,53298,1
2,29354,30688,31708,53194,5236,-5856,-4253,-3877,-24028,-11195,7615,217,455,-251,1,0,35,29,240,1,53298,1
2,29346,30690,31685,53195,5238,-4819,-197,-1279,-11053,-10762,5994,211,451,-233,1,0,35,29,280,1,53298,1
2,29189,30688,31679,53196,5238,-4859,676,831,-6157,-14226,7627,184,448,-200,1,0,35,29,320,1,53298,1
2,29189,30689,31670,53197,5240,-4725,312,506,-6577,-17280,9709,185,441,-181,1,0,35,29,360,1,53298,1
2,29237,30691,31674,53198,5242,-4357,-136,376,-7299,-19231,9242,180,440,-148,1,0,35,29,400,1,53298,1
2,29208,30692,31680,53199,5243,-4327,-498,-319,-5532,-19062,8291,167,419,-125,1,0,35,29,440,1,53298,1
2,29247,30694,31704,53200,5245,-4257,-1295,-1228,-3584,-16726,5530,168,408,-110,1,0,35,29,480,1,53298,1
2,29255,30694,31728,53201,5246,-4148,-1709,-1595,2839,-11403,1485,162,408,-106,1,0,35,29,520,1,53298,1
2,29203,30691,31758,53202,5248,-4395,-1058,-1908,10061,-5160,-1982,158,416,-104,1,0,35,29,560,1,53298,1
2,29151,30696,31760,53203,5250,-5104,1575,-2464,12364,255,-3678,151,419,-119,1,0,35,29,600,1,53298,1
2,29162,30694,31742,53204,5254,-5855,32,-59,4406,3943,-2322,151,403,-119,1,0,35,29,640,1,53298,1
2,29219,30693,31708,53205,5256,-4248,-1081,-478,4448,5097,-1987,158,416,-124,1,0,35,29,680,1,53298,1
2,29248,30695,31714,53206,5259,-3618,-2457,-2380,-4104,8680,-6163,183,427,-153,1,0,35,29,720,1,53298,1
2,29249,30694,31726,53207,5263,-4493,-1192,-1578,-1861,13102,-9689,183,429,-165,1,0,35,29,760,1,53298,1
2,29255,30693,31756,53208,5266,-4695,-821,-1751,955,15979,-11370,213,455,-201,1,0,35,29,800,1,53298,1
2,29362,30695,31808,53209,5268,-4023,-2395,-3097,2602,20311,-12916,230,448,-230,1,0,35,29,840,1,53298,1
2,29415,30694,31835,53210,5269,-4597,-516,-1940,15831,23069,-13821,236,450,-258,1,0,35,29,880,1,53298,1
2,29455,30696,31847,53211,5270,-4697,-13,-1316,16244,21246,-13024,250,448,-284,1,0,35,29,920,1,53298,1
2,29308,30696,31841,53212,5270,-4868,1151,-594,15293,15958,-8405,255,445,-283,1,0,35,29,960,1,53298,1
1,29396,30697,31838,53213,4716,-6523,56,-775,3929,2604,1284,247,453,-291,1,0,35,30,0,1,53298,1
2,29395,30693,31808,53214,4718,-5821,-2402,-1803,-14762,-1691,5078,234,460,-272,1,0,35,30,40,1,53298,1
2,29345,30690,31768,53215,4720,-5185,-1622,-2102,-12053,-6420,6722,232,452,-264,1,0,35,30,80,1,53298,1
2,29358,30687,31725,53216,4722,-4759,145,-928,-12439,-9914,8114,209,447,-245,1,0,35,30,120,1,53298,1
2,29337,30685,31695,53217,4723,-4889,128,-474,-11836,-12258,10508,190,446,-226,1,0,35,30,160,1,53298,1
2,29323,30683,31666,53218,4726,-5005,243,-217,-10872,-13681,11077,182,448,-206,1,0,35,30,200,1,53298,1
2,29305,30684,31665,53219,4728,-4389,-732,38,-13804,-16787,10971,181,441,-177,1,0,35,30,240,1,53298,1
2,29328,30685,31669,53220,4729,-4424,-980,19,-8558,-18687,10080,174,428,-160,1,0,35,30,280,1,53298,1
2,29383,30686,31693,53221,4730,-4500,-1298,-259,-5926,-18047,6895,168,428,-132,1,0,35,30,320,1,53298,1
2,29420,30689,31717,53222,4731,-4317,-1474,-1396,-756,-15656,2923,159,413,-113,1,0,35,30,360,1,53298,1
2,29422,30693,31731,53223,4731,-4403,-1144,-2510,4095,-10166,-1012,156,414,-110,1,0,35,30,400,1,53298,1
2,29435,30691,31736,53224,4732,-4859,1389,-4294,7224,-2492,-2849,155,415,-125,1,0,35,30,440,1,53298,1
2,29439,30691,31748,53225,4734,-5165,-515,-1426,5051,4411,-2232,157,411,-131,1,0,35,30,480,1,53298,1
2,29395,30688,31744,53226,4735,-4971,-707,366,8337,6112,-3770,159,429,-143,1,0,35,30,520,1,53298,1
2,29389,30688,31752,53227,4737,-4116,-1707,-929,2852,9713,-7465,177,431,-157,1,0,35,30,560,1,53298,1
2,29399,30689,31777,53228,4738,-4322,-1712,-1714,1135,11825,-11208,191,437,-177,1,0,35,30,600,1,53298,1
2,29434,30691,31814,53229,4739,-4335,-726,-2438,6640,14275,-12759,203,453,-195,1,0,35,30,640,1,53298,1
2,29437,30693,31857,53230,4741,-4121,-846,-2859,10152,17836,-14226,214,448,-220,1,0,35,30,680,1,53298,1
2,29469,30692,31870,53231,4743,-4403,-181,-2192,13355,19686,-13605,230,452,-248,1,0,35,30,720,1,53298,1
2,29470,30691,31851,53232,4745,-4711,905,-1490,12171,18293,-10748,249,455,-271,1,0,35,30,760,1,53298,1
2,29447,30686,31814,53233,4746,-4669,1439,-504,4870,12940,-4469,242,452,-294,1,0,35,30,800,1,53298,1
2,29466,30684,31775,53234,4748,-4866,986,-447,-6378,5189,3180,229,445,-277,1,0,35,30,840,1,53298,1
2,29507,30683,31744,53235,4749,-5041,-349,-912,-14720,-2286,9029,203,453,-281,1,0,35,30,880,1,53298,1
2,29500,30682,31721,53236,4750,-5257,-1605,-2044,-15905,-6803,11432,192,454,-272,1,0,35,30,920,1,53298,1
2,29482,30677,31690,53237,4750,-5160,-1128,-1553,-13269,-8121,10031,179,453,-255,1,0,35,30,960,1,53298,1
1,29517,30677,31661,53238,4205,-4734,-517,-567,-12281,-9814,9484,171,453,-217,1,0,35,31,0,0,53298,1
2,29503,30680,31647,53239,4207,-4830,-412,280,-11447,-11365,7923,161,449,-215,1,0,35,31,40,0,53298,1
2,29559,30680,31630,53240,4210,-5058,140,633,-9898,-13149,6525,156,436,-186,1,0,35,31,80,0,53298,1
2,29548,30682,31642,53241,4212,-4967,-414,482,-8626,-15115,4976,164,434,-164,1,0,35,31,120,0,53298,1
2,29545,30682,31653,53242,4214,-4634,-390,342,-5430,-15416,2371,162,418,-150,1,0,35,31,160,0,53298,1
2,29566,30683,31675,53243,4216,-4573,-306,-32,174,-15088,-192,156,414,-134,1,0,35,31,200,0,53298,1
2,29547,30684,31697,53244,4218,-4103,-803,-987,2865,-13371,-2534,158,410,-110,1,0,35,31,240,0,53298,1
2,29591,30689,31711,53245,4220,-4290,208,-1556,7189,-10817,-3876,156,412,-110,1,0,35,31,280,0,53298,1
2,29605,30690,31718,53246,4222,-4561,298,-3818,2491,-6005,-4453,161,407,-115,1,0,35,31,320,0,53298,1
2,29600,30691,31713,53247,4226,-4862,1743,-3565,6315,443,-2791,163,415,-117,1,0,35,31,360,0,53298,1
2,29609,30693,31699,53248,4229,-4956,-837,59,2740,4238,-1729,167,421,-125,1,0,35,31,400,0,53298,1
2,29636,30694,31698,53249,4233,-4167,-1993,-1540,-2996,8539,-5588,181,425,-151,1,0,35,31,440,0,53298,1
2,29623,30691,31709,53250,4237,-4591,-1664,-1833,-1348,13453,-9703,188,448,-170,1,0,35,31,480,0,53298,1
2,29620,30691,31759,53251,4240,-4427,-1328,-2038,7645,18236,-11647,196,446,-192,1,0,35,31,520,0,53298,1
2,29650,30694,31825,53252,4243,-4390,-2276,-3244,15877,22980,-13517,212,458,-220,1,0,35,31,560,0,53298,1
2,29683,30697,31862,53253,4245,-5038,-628,-2168,27947,23907,-15079,240,452,-258,1,0,35,31,600,0,53298,1
2,29650,30697,31866,53254,4247,-5168,980,-898,25930,19622,-14290,249,445,-275,1,0,35,31,640,0,53298,1
2,29617,30693,31835,53255,4248,-4879,1472,-368,12378,12550,-9487,248,446,-272,1,0,35,31,680,0,53298,1
2,29558,30687,31780,53256,4250,-5033,2955,492,-4322,3300,-1209,252,448,-286,1,0,35,31,720,0,53298,1
2,29557,30685,31772,53257,4251,-4689,-1239,-1168,-24364,-1781,4505,226,452,-278,1,0,35,31,760,0,53298,1
2,29612,30685,31736,53258,4251,-4863,-221,-1880,-19175,-7714,9916,210,456,-276,1,0,35,31,800,0,53298,1
2,29585,30684,31705,53259,4251,-4445,-1899,-3703,-21412,-8960,11814,198,452,-256,1,0,35,31,840,0,53298,1
2,29562,30679,31679,53260,4251,-4390,-490,-2319,-7746,-6223,11850,181,457,-251,1,0,35,31,880,0,53298,1
2,29471,30677,31680,53261,4252,-4152,915,-840,-2837,-4995,11808,156,450,-230,1,0,35,31,920,0,53298,1
2,29429,30677,31685,53262,4252,-4715,873,282,-4066,-6583,13207,147,449,-227,1,0,35,31,960,0,53298,1
1,29417,30676,31671,53263,3694,-5344,962,820,-5523,-10434,13745,139,445,-207,1,0,35,32,0,1,53298,1
2,29383,30676,31655,53264,3695,-5139,-744,-1,-14839,-13825,12232,128,432,-172,1,0,35,32,40,1,53298,1
2,29422,30677,31662,53265,3696,-4978,-1816,-130,-13800,-14814,7750,129,425,-157,1,0,35,32,80,1,53298,1
2,29446,30680,31662,53266,3697,-5062,-1884,-185,-4423,-14422,1621,130,418,-136,1,0,35,32,120,1,53298,1
2,29471,30681,31658,53267,3699,-4909,-1331,-1844,-696,-12035,-3610,129,417,-131,1,0,35,32,160,1,53298,1
2,29419,30680,31660,53268,3702,-4952,70,-2796,1728,-6317,-6867,145,411,-121,1,0,35,32,200,1,53298,1
2,29455,30684,31663,53269,3705,-5151,202,-1378,4662,-3179,-7849,149,409,-125,1,0,35,32,240,1,53298,1
2,29476,30688,31683,53270,3708,-4261,-1245,-1435,1931,-1484,-9659,169,417,-131,1,0,35,32,280,1,53298,1
2,29542,30689,31708,53271,3711,-4292,667,-1764,3015,1027,-11524,170,420,-138,1,0,35,32,320,1,53298,1
2,29496,30688,31716,53272,3714,-3979,1940,-1901,-37,4350,-10839,185,433,-137,1,0,35,32,360,1,53298,1
2,29477,30686,31705,53273,3717,-4065,669,-1412,-2954,8372,-8017,197,441,-155,1,0,35,32,400,1,53298,1
2,29537,30687,31692,53274,3720,-4137,-756,-1605,-1074,12550,-6595,205,449,-187,1,0,35,32,440,1,53298,1
2,29526,30685,31689,53275,3723,-4288,-1337,-2124,-347,16321,-7524,217,455,-213,1,0,35,32,480,1,53298,1
2,29563,30682,31677,53276,3726,-4179,-1055,-2007,3817,19480,-8262,240,456,-240,1,0,35,32,520,1,53298,1
2,29596,30679,31671,53277,3729,-4399,-261,-1392,6638,20493,-8614,244,450,-260,1,0,35,32,560,1,53298,1
2,29567,30680,31665,53278,3732,-4661,527,-1106,7535,18640,-6705,253,451,-283,1,0,35,32,600,1,53298,1
2,29585,30680,31665,53279,3735,-4883,453,-539,6161,14108,-2253,239,457,-297,1,0,35,32,640,1,53298,1
2,29595,30680,31664,53280,3736,-5189,16,-389,3530,7597,3128,232,454,-288,1,0,35,32,680,1,53298,1
2,29580,30679,31662,53281,3738,-5345,-1252,-1199,-3155,1112,6571,221,451,-297,1,0,35,32,720,1,53298,1
2,29553,30677,31651,53282,3740,-4963,-2086,-1792,-6794,-3035,6566,217,447,-281,1,0,35,32,760,1,53298,1
2,29544,30676,31635,53283,3742,-4504,-2334,-1915,-7777,-4875,4244,205,453,-277,1,0,35,32,800,1,53298,1
2,29566,30678,31636,53284,3745,-3945,-1798,-1737,-5126,-5142,2076,208,450,-274,1,0,35,32,840,1,53298,1
2,29567,30678,31643,53285,3746,-3626,-1795,-2024,-1303,-4221,157,212,458,-270,1,0,35,32,880,1,53298,1
2,29553,30680,31666,53286,3747,-3867,-1375,-2199,4829,-2193,-1689,217,453,-273,1,0,35,32,920,1,53298,1
2,29600,30680,31681,53287,3747,-3921,-1107,-2331,8824,-259,-3045,219,459,-269,1,0,35,32,960,1,53298,1
1,29592,30682,31697,53288,3184,-4040,-753,-2331,10195,1109,-3760,230,454,-270,1,0,35,33,0,1,53298,1
2,29565,30685,31717,53289,3188,-4329,-674,-2312,9444,1421,-3285,232,448,-270,1,0,35,33,40,1,53298,1
2,29529,30686,31735,53290,3192,-4328,-1094,-1543,10302,147,-1158,229,451,-271,1,0,35,33,80,1,53298,1
2,29312,30686,31740,53291,3196,-4601,-41,-111,9424,-3020,892,225,441,-259,1,0,35,33,120,1,53298,1
2,29515,30687,31752,53292,3201,-4591,-584,-994,1057,-6941,3438,209,455,-247,1,0,35,33,160,1,53298,1
2,29404,30690,31788,53293,3206,-4588,-1176,-568,110,-9380,6864,198,450,-232,1,0,35,33,200,1,53298,1
2,29537,30691,31803,53294,3211,-4619,2340,1522,10313,-13197,12771,171,451,-205,1,0,35,33,240,1,53298,1
2,30088,30690,31822,53295,3216,-4875,-2,-1144,2419,-16443,19001,137,439,-171,1,0,35,33,280,1,53298,1
2,30923,30655,31840,53296,3220,-4934,-99,-1800,1466,-15816,20417,127,425,-153,1,0,35,33,320,1,53298,1
2,30947,30645,31822,53297,3223,-4415,-387,-2269,-6197,-13424,15848,118,424,-134,1,0,35,33,360,1,53298,1
2,31014,30654,31784,53298,3226,-4132,-1140,-2145,-16819,-9595,10390,129,403,-121,1,0,35,33,400,1,53298,1
2,31040,30655,31775,53299,3229,-4531,-2780,-1656,-19497,-4163,4644,138,400,-118,1,0,35,33,440,1,53298,1
2,31020,30643,31752,53300,3231,-6468,-1743,902,-5882,-249,-793,133,411,-123,1,0,35,33,480,1,53298,1
2,31077,30645,31748,53301,3232,-4585,1111,-149,1343,961,-1634,141,401,-117,1,0,35,33,520,1,53298,1
2,31098,30653,31721,53302,3234,-4095,416,-459,-3327,391,-569,147,411,-113,1,0,35,33,560,1,53298,1
2,31103,30660,31719,53303,3236,-3497,-1358,-2291,-13835,3344,-1968,159,417,-129,1,0,35,33,600,1,53298,1
2,31120,30656,31728,53304,3238,-4049,-2445,-2321,-8884,9225,-4661,173,433,-141,1,0,35,33,640,1,53298,1
2,31115,30656,31746,53305,3241,-5027,-616,-1030,1769,13769,-7806,182,442,-160,1,0,35,33,680,1,53298,1
2,31115,30654,31727,53306,3243,-5503,209,-487,1904,14129,-8557,189,445,-185,1,0,35,33,720,1,53298,1
2,31124,30654,31707,53307,3245,-3975,-1662,-2143,-1905,15783,-9235,201,455,-213,1,0,35,33,760,1,53298,1
2,31147,30654,31699,53308,3247,-3763,-2075,-2102,-1344,17843,-11195,223,453,-245,1,0,35,33,800,1,53298,1
2,31180,30654,31698,53309,3249,-4318,-1341,-1274,1568,17861,-11851,236,452,-256,1,0,35,33,840,1,53298,1
2,31230,30655,31707,53310,3252,-4546,-550,-772,2815,14904,-11250,253,453,-277,1,0,35,33,880,1,53298,1
2,31290,30658,31732,53311,3254,-5275,454,-480,5485,11069,-8153,261,441,-277,1,0,35,33,920,1,53298,1
2,31344,30660,31752,53312,3254,-5905,314,-317,8088,5357,-1548,252,452,-284,1,0,35,33,960,1,53298,1
1,31335,30659,31739,53313,2675,-5793,-644,-770,4019,-1218,3829,253,443,-271,1,0,35,34,0,0,53298,1
2,31285,30655,31723,53314,2678,-4675,-772,-1564,-7122,-5575,4927,233,453,-271,1,0,35,34,40,0,53298,1
2,31235,30647,31705,53315,2680,-4678,-519,-1278,-8569,-7436,6356,230,448,-256,1,0,35,34,80,0,53298,1
2,31154,30644,31715,53316,2682,-4500,-694,-717,-6853,-9451,8596,233,447,-237,1,0,35,34,120,0,53298,1
2,31105,30648,31730,53317,2685,-4539,56,288,-511,-10947,11283,199,447,-219,1,0,35,34,160,0,53298,1
2,31100,30641,31734,53318,2688,-4824,1065,997,3203,-13787,12448,186,446,-194,1,0,35,34,200,0,53298,1
2,31081,30636,31739,53319,2690,-4567,-187,-751,-2342,-15666,12203,173,437,-171,1,0,35,34,240,0,53298,1
2,31069,30635,31752,53320,2692,-4290,-1173,-1354,-276,-14816,10625,145,427,-161,1,0,35,34,280,0,53298,1
2,31089,30633,31752,53321,2693,-4211,-170,-275,8566,-12268,7685,141,421,-147,1,0,35,34,320,0,53298,1
2,31096,30632,31736,53322,2695,-4536,-1181,-1667,3366,-10250,3289,136,420,-126,1,0,35,34,360,0,53298,1
2,31110,30638,31717,53323,2696,-4568,-1466,-2574,-2186,-6094,-652,135,415,-127,1,0,35,34,400,0,53298,1
2,31095,30660,31722,53324,2698,-5044,-1633,-3664,-100,127,-2783,139,421,-131,1,0,35,34,440,0,53298,1
2,31092,30651,31730,53325,2701,-5148,-46,-503,5155,3496,-3069,147,427,-135,1,0,35,34,480,0,53298,1
2,31085,30649,31719,53326,2704,-4666,-157,-595,1714,3153,-5506,159,415,-145,1,0,35,34,520,0,53298,1
2,31100,30659,31726,53327,2706,-4163,-2379,-1957,-9858,4980,-9499,166,436,-154,1,0,35,34,560,0,53298,1
2,31095,30659,31774,53328,2709,-3910,-3282,-2703,-8891,7897,-13081,183,435,-165,1,0,35,34,600,0,53298,1
2,31100,30665,31855,53329,2711,-4933,-1416,-2152,4854,11776,-15144,197,437,-195,1,0,35,34,640,0,53298,1
2,31113,30661,31910,53330,2715,-4874,-578,-2682,21282,16031,-14365,205,453,-221,1,0,35,34,680,0,53298,1
2,31129,30663,31921,53331,2718,-4845,2094,-1341,30285,16967,-10506,219,455,-241,1,0,35,34,720,0,53298,1
2,31125,30662,31922,53332,2721,-4987,1256,-1228,19017,15803,-4796,232,452,-264,1,0,35,34,760,0,53298,1
2,31127,30660,31907,53333,2724,-4786,1131,78,14451,11863,502,231,455,-271,1,0,35,34,800,0,53298,1
2,31125,30657,31879,53334,2727,-4782,353,632,1711,6003,5094,227,447,-267,1,0,35,34,840,0,53298,1
2,31132,30656,31854,53335,2728,-4711,106,-70,-14348,-1342,8907,223,455,-269,1,0,35,34,880,0,53298,1
2,31142,30657,31811,53336,2729,-5193,-631,-1430,-26132,-7723,8572,203,449,-243,1,0,35,34,920,0,53298,1
2,31114,30649,31726,53337,2729,-6410,-1730,-2336,-24555,-9780,10379,183,455,-223,1,0,35,34,960,0,53298,1
1,31115,30643,31665,53338,2164,-5149,2065,179,-21452,-17493,12622,176,448,-194,1,0,35,35,0,0,53298,1
2,31147,30679,31627,53339,2165,-4781,644,-221,-21494,-16598,11116,162,442,-162,1,0,35,35,40,0,53298,1
2,31121,30666,31631,53340,2167,-3738,-728,-1389,-16276,-12685,8601,156,436,-152,1,0,35,35,80,0,53298,1
2,31064,30662,31647,53341,2169,-3309,-528,206,-1212,-10261,7498,146,414,-146,1,0,35,35,120,0,53298,1
2,31069,30660,31680,53342,2170,-3858,4,413,10700,-8374,5333,132,412,-142,1,0,35,35,160,0,53298,1
2,31096,30648,31681,53343,2171,-4694,35,385,10176,-6111,3271,122,408,-128,1,0,35,35,200,0,53298,1
2,31110,30649,31676,53344,2171,-4758,-1222,-1427,5343,-798,-123,112,400,-130,1,0,35,35,240,0,53298,1
2,31088,30645,31677,53345,2172,-5252,-1228,-3115,6423,3533,-2284,114,404,-130,1,0,35,35,280,0,53298,1
2,31084,30644,31674,53346,2173,-5297,684,-2273,11651,3630,-2767,115,411,-145,1,0,35,35,320,0,53298,1
2,31095,30648,31671,53347,2175,-4638,-261,-1250,6065,3608,-4486,112,416,-156,1,0,35,35,360,0,53298,1
2,31083,30650,31663,53348,2177,-4413,-901,-1178,2662,5021,-5933,116,426,-148,1,0,35,35,400,0,53298,1
2,31088,30653,31666,53349,2179,-4313,-1119,-952,-5648,4215,-7028,133,423,-157,1,0,35,35,440,0,53298,1
2,31105,30654,31676,53350,2181,-4373,-465,-963,-7299,3360,-5880,151,427,-157,1,0,35,35,480,0,53298,1
2,31119,30655,31674,53351,2183,-4548,1270,-483,-3608,3140,-4235,154,440,-162,1,0,35,35,520,0,53298,1
2,31110,30652,31671,53352,2185,-4468,1172,-291,-4928,3611,-3114,164,436,-166,1,0,35,35,560,0,53298,1
2,31129,30653,31667,53353,2187,-4107,713,-430,-7213,4221,-2809,171,437,-179,1,0,35,35,600,0,53298,1
2,31129,30654,31658,53354,2190,-4302,591,-213,-8604,4627,-2336,179,437,-177,1,0,35,35,640,0,53298,1
2,31140,30654,31649,53355,2192,-4377,-78,-481,-8549,5569,-2252,176,440,-198,1,0,35,35,680,0,53298,1
2,31158,30653,31642,53356,2196,-4316,-496,-807,-5997,7288,-3862,191,455,-195,1,0,35,35,720,0,53298,1
2,31163,30653,31646,53357,2199,-4549,-1359,-985,-4512,8544,-5903,200,446,-214,1,0,35,35,760,0,53298,1
2,31161,30653,31660,53358,2202,-4818,-1043,-561,871,8673,-7495,212,448,-224,1,0,35,35,800,0,53298,1
2,31132,30654,31692,53359,2205,-4804,-995,-864,5521,7999,-8133,214,448,-228,1,0,35,35,840,0,53298,1
2,31123,30654,31747,53360,2208,-4636,-1945,-2157,9020,8368,-9016,227,461,-255,1,0,35,35,880,0,53298,1
2,31151,30698,31811,53361,2212,-4733,-967,-2473,22271,7173,-7698,235,451,-259,1,0,35,35,920,0,53298,1
2,31212,30712,31885,53362,2212,-4237,-1111,-3295,29895,6888,-6303,236,456,-252,1,0,35,35,960,0,53298,1
1,31228,30713,31885,53363,1654,-3819,557,-1793,17248,6292,-3675,241,445,-261,1,0,35,36,0,0,53298,1
2,31231,30717,31890,53364,1660,-3485,-997,-2817,10484,6267,-1354,252,458,-270,1,0,35,36,40,0,53298,1
2,31197,30714,31887,53365,1666,-3621,-1255,-1244,1693,4087,-377,247,451,-277,1,0,35,36,80,0,53298,1
2,31187,30715,31879,53366,1670,-3444,-793,-996,-12724,1838,503,249,451,-277,1,0,35,36,120,0,53298,1
2,31192,30712,31848,53367,1672,-3550,1240,-1556,-27026,500,3830,232,444,-274,1,0,35,36,160,0,53298,1
2,31186,30711,31840,53368,1674,-3761,-311,-3092,-15432,-445,8852,229,461,-279,1,0,35,36,200,0,53298,1
2,31177,30711,31830,53369,1676,-5080,-1343,-1564,-5724,-2355,12444,205,455,-277,1,0,35,36,240,0,53298,1
2,31161,30709,31803,53370,1679,-5246,-922,-1785,-7410,-4959,12927,189,459,-285,1,0,35,36,280,0,53298,1
2,31158,30704,31762,53371,1681,-5745,-655,-763,-12088,-10344,12202,165,453,-253,1,0,35,36,320,0,53298,1
2,31139,30700,31735,53372,1684,-5911,-643,-306,-13295,-16368,11084,158,450,-230,1,0,35,36,360,0,53298,1
2,31130,30700,31738,53373,1686,-5451,-237,1393,-5652,-24006,12395,147,441,-201,1,0,35,36,400,0,53298,1
2,31140,30700,31722,53374,1687,-5691,923,2353,-14041,-27827,11410,132,426,-154,1,0,35,36,440,0,53298,1
2,31160,30698,31700,53375,1690,-4955,-809,-663,-11242,-23575,5550,122,416,-124,1,0,35,36,480,0,53298,1
2,31151,30700,31713,53376,1692,-4067,-1715,-2825,-601,-16356,-195,134,394,-100,1,0,35,36,520,0,53298,1
2,31195,30702,31741,53377,1694,-4597,-1103,-2928,9747,-9010,-2928,123,385,-93,1,0,35,36,560,0,53298,1
2,31208,30703,31759,53378,1697,-5299,-513,-5487,7085,791,-4184,122,394,-94,1,0,35,36,600,0,53298,1
2,31207,30702,31739,53379,1701,-5152,1147,-3569,-10737,6779,-3710,143,393,-103,1,0,35,36,640,0,53298,1
2,31211,30703,31715,53380,1704,-4890,-968,-2079,-16860,12601,-7359,159,411,-113,1,0,35,36,680,0,53298,1
2,31208,30708,31716,53381,1708,-4143,-3266,-1928,-6272,18200,-11285,180,424,-138,1,0,35,36,720,0,53298,1
2,31201,30707,31742,53382,1711,-4448,-2381,-809,1026,20543,-13925,194,438,-172,1,0,35,36,760,0,53298,1
2,31207,30706,31758,53383,1714,-5463,457,903,2258,21304,-15115,213,443,-191,1,0,35,36,800,0,53298,1
2,31226,30710,31803,53384,1718,-4931,-148,-628,7877,23404,-15118,233,449,-225,1,0,35,36,840,0,53298,1
2,31250,30712,31870,53385,1720,-5232,-426,-1855,22046,22582,-12272,245,449,-259,1,0,35,36,880,0,53298,1
2,31299,30713,31896,53386,1723,-5670,1180,-1239,27487,17052,-6088,263,445,-275,1,0,35,36,920,0,53298,1
2,31276,30710,31904,53387,1723,-5104,1915,-474,16802,10069,-204,263,443,-277,1,0,35,36,960,0,53298,1
1,31238,30708,31878,53388,1143,-4897,949,-842,-1474,2825,4331,247,449,-283,1,0,35,37,0,0,53298,1
2,31191,30706,31840,53389,1146,-4229,37,-1654,-14963,-2169,8899,247,453,-289,1,0,35,37,40,0,53298,1
2,31162,30703,31810,53390,1149,-3910,389,-1985,-17780,-5130,12086,225,447,-281,1,0,35,37,80,0,53298,1
2,31161,30704,31783,53391,1152,-4381,-1005,-2720,-12079,-6284,13860,206,448,-280,1,0,35,37,120,0,53298,1
2,31158,30700,31753,53392,1155,-5022,-535,-1983,-8232,-4925,11745,188,460,-268,1,0,35,37,160,0,53298,1
2,31136,30695,31721,53393,1158,-5520,-1659,646,-6374,-7916,10007,176,456,-258,1,0,35,37,200,0,53298,1
2,31135,30693,31704,53394,1161,-5443,-575,1810,-6574,-14337,9969,161,457,-221,1,0,35,37,240,0,53298,1
2,31155,30694,31682,53395,1165,-6038,320,688,-12965,-20648,9328,153,441,-193,1,0,35,37,280,0,53298,1
2,31155,30695,31673,53396,1168,-5348,-528,-309,-7367,-22964,6681,142,432,-148,1,0,35,37,320,0,53298,1
2,31135,30696,31687,53397,1172,-4713,-1251,-616,1614,-20932,5248,118,420,-136,1,0,35,37,360,0,53298,1
2,31108,30697,31717,53398,1175,-4257,-456,-1233,6796,-17829,2541,128,390,-122,1,0,35,37,400,0,53298,1
2,31105,30696,31784,53399,1177,-4360,-968,-2734,15125,-12543,-1188,116,396,-114,1,0,35,37,440,0,53298,1
2,31157,30696,31866,53400,1180,-4802,-1288,-4681,25089,-8073,-4109,105,387,-113,1,0,35,37,480,0,53298,1
2,31148,30688,31899,53401,1183,-4157,855,-3569,7350,2204,-3992,93,383,-121,1,0,35,37,520,0,53298,1
2,31129,30693,31867,53402,1185,-4502,47,-1170,-5409,8490,-4279,96,402,-120,1,0,35,37,560,0,53298,1
2,31114,30693,31829,53403,1187,-5019,-1156,-1406,-14192,11445,-7573,119,413,-139,1,0,35,37,600,0,53298,1
2,31100,30682,31810,53404,1189,-4549,-1620,509,-14326,14644,-10569,150,422,-150,1,0,35,37,640,0,53298,1
2,31099,30670,31810,53405,1190,-5562,-1282,944,-3122,13171,-10747,161,433,-157,1,0,35,37,680,0,53298,1
2,31102,30669,31806,53406,1192,-5142,-139,-684,165,13833,-12324,182,446,-186,1,0,35,37,720,0,53298,1
2,31109,30665,31845,53407,1194,-4266,-1267,-1145,5606,15738,-15074,204,446,-212,1,0,35,37,760,0,53298,1
2,31138,30667,31870,53408,1197,-4485,-1036,-1708,5931,17045,-16562,215,453,-235,1,0,35,37,800,0,53298,1
2,31173,30667,31881,53409,1200,-4807,-551,-1214,7931,16287,-14684,239,453,-251,1,0,35,37,840,0,53298,1
2,31232,30667,31874,53410,1202,-5081,530,-572,9065,11602,-9185,248,448,-262,1,0,35,37,880,0,53298,1
2,31260,30664,31835,53411,1205,-4813,1186,-1203,411,6421,-2935,255,451,-271,1,0,35,37,920,0,53298,1
2,31226,30659,31776,53412,1205,-4784,1668,-1499,-10196,2366,3603,246,444,-284,1,0,35,37,960,0,53298,1
1,31155,30657,31744,53413,633,-4138,-569,-1699,-10858,-605,8494,245,461,-279,1,0,35,38,0,0,53298,1
2,31129,30659,31725,53414,634,-4002,-502,-1566,-6681,-1506,11289,218,446,-278,1,0,35,38,40,0,53298,1
2,31104,30656,31718,53415,636,-4298,-1223,-705,-3960,-2961,12512,206,456,-270,1,0,35,38,80,0,53298,1
2,31112,30660,31702,53416,637,-5306,-2692,-953,-5205,-6024,10664,187,457,-273,1,0,35,38,120,0,53298,1
2,31125,30666,31690,53417,639,-5738,-1218,-796,-7258,-8936,6397,178,458,-258,1,0,35,38,160,0,53298,1
2,31120,30677,31683,53418,640,-6022,-909,492,-10146,-14917,4425,176,458,-238,1,0,35,38,200,0,53298,1
2,31141,30679,31676,53419,642,-5135,243,205,-6417,-19664,4150,170,446,-202,1,0,35,38,240,0,53298,1
2,31149,30681,31676,53420,645,-5304,-795,-981,-7604,-20792,4017,167,431,-175,1,0,35,38,280,0,53298,1
2,31120,30680,31697,53421,646,-4091,733,-485,6198,-18448,4707,158,428,-144,1,0,35,38,320,0,53298,1
2,31098,30678,31740,53422,648,-3334,467,-1314,12349,-15935,5194,141,413,-137,1,0,35,38,360,0,53298,1
2,31106,30675,31814,53423,651,-3588,511,-2018,18000,-11244,4744,123,411,-123,1,0,35,38,400,0,53298,1
2,31120,30678,31836,53424,653,-4135,1,-2194,12315,-5897,3354,105,397,-121,1,0,35,38,440,0,53298,1
2,31107,30678,31820,53425,654,-5104,-1949,-2506,-4197,-510,751,115,395,-115,1,0,35,38,480,0,53298,1
2,31089,30675,31817,53426,656,-4940,-1037,286,-1434,3134,-2223,125,403,-123,1,0,35,38,520,0,53298,1
2,31067,30669,31791,53427,658,-6096,1161,398,-1430,2065,-2293,114,410,-130,1,0,35,38,560,0,53298,1
2,31069,30664,31746,53428,659,-4465,-983,-1279,-17086,1726,-3195,139,411,-119,1,0,35,38,600,0,53298,1
2,31091,30683,31730,53429,662,-3897,-1713,-873,-16367,4349,-4572,154,408,-120,1,0,35,38,640,0,53298,1
2,31107,30673,31730,53430,665,-4199,-239,232,-8225,6010,-6242,167,423,-123,1,0,35,38,680,0,53298,1
2,31128,30674,31743,53431,668,-4720,-234,2,-9003,6896,-7550,183,429,-143,1,0,35,38,720,0,53298,1
2,31136,30672,31745,53432,671,-4697,-123,-359,-6104,8571,-7881,198,432,-142,1,0,35,38,760,0,53298,1
2,31142,30671,31747,53433,675,-4378,-522,-1103,-2027,11299,-7986,212,442,-162,1,0,35,38,800,0,53298,1
2,31140,30678,31751,53434,677,-4176,-258,-1393,3926,14821,-7813,217,441,-181,1,0,35,38,840,0,53298,1
2,31146,30673,31748,53435,679,-4097,56,-1628,6259,17219,-7041,232,446,-212,1,0,35,38,880,0,53298,1
2,31160,30675,31731,53436,681,-4439,-918,-2101,4052,19125,-7022,231,447,-235,1,0,35,38,920,0,53298,1
2,31170,30671,31708,53437,681,-4425,-940,-1409,7029,18926,-6309,236,446,-256,1,0,35,38,960,0,53298,1
1,31177,30672,31699,53438,124,-4724,-134,-400,14414,14794,-4067,248,450,-272,1,0,35,39,0,1,53298,1
1,31176,30670,31699,53439,125,-5096,-136,551,14273,7560,-362,265,453,-279,1,0,35,39,40,1,53298,1
1,31195,30673,31699,53440,127,-5152,-1204,-25,4223,-777,2454,247,451,-275,1,0,35,39,80,1,53298,1
1,31213,30671,31690,53441,130,-4869,-1383,-2207,-7711,-5421,2306,251,455,-281,1,0,35,39,120,1,53298,1
1,31203,30670,31668,53442,132,-4254,-1179,-2665,-7706,-5413,3348,240,452,-266,1,0,35,39,160,1,53298,1
1,31190,30666,31650,53443,135,-4497,-820,-1843,189,-4901,4878,239,449,-257,1,0,35,39,200,1,53298,1
1,31186,30664,31615,53444,138,-4415,-1259,-2083,-551,-4951,5883,228,452,-254,1,0,35,39,240,1,53298,1
1,31171,30676,31610,53445,142,-4441,-2500,-351,-1759,-6096,6248,218,452,-254,1,0,35,39,280,1,53298,1
1,31129,30682,31639,53446,146,-4500,-866,1298,4024,-10920,8738,204,454,-234,1,0,35,39,320,1,53298,1
1,31109,30674,31679,53447,149,-4778,-469,501,4745,-15414,9259,192,446,-202,1,0,35,39,360,1,53298,1
1,31107,30681,31734,53448,152,-4463,-336,-2290,2293,-17518,8064,178,446,-182,1,0,35,39,400,1,53298,1
1,31090,30691,31812,53449,155,-3668,538,-2476,7480,-15257,8372,152,432,-164,1,0,35,39,440,1,53298,1
1,31081,30685,31859,53450,158,-3950,1646,-1828,12202,-9776,10942,131,425,-147,1,0,35,39,480,1,53298,1
1,31064,30665,31842,53451,163,-4409,-125,-1621,-3456,-5343,11467,142,418,-148,1,0,35,39,520,1,53298,1
1,31064,30676,31812,53452,166,-4600,-897,-923,-8574,-2218,8729,129,409,-145,1,0,35,39,560,1,53298,1
1,31061,30680,31784,53453,169,-5339,-1242,110,-9154,-761,4946,117,413,-133,1,0,35,39,600,1,53298,1
1,31060,30685,31766,53454,172,-5702,-1528,579,-10886,-921,1037,135,409,-133,1,0,35,39,640,1,53298,1
1,31066,30683,31742,53455,174,-5256,1761,808,-2995,-1974,-62,127,403,-129,1,0,35,39,680,1,53298,1
1,31086,30680,31702,53456,176,-4478,469,-879,-12357,-2708,-213,139,411,-115,1,0,35,39,720,1,53298,1
1,31088,30680,31678,53457,179,-4219,-1026,-628,-14012,-905,-587,150,408,-106,1,0,35,39,760,1,53298,1
1,31102,30680,31655,53458,182,-3855,-2519,-1202,-9406,1109,-2609,169,405,-107,1,0,35,39,800,1,53298,1
1,31115,30680,31669,53459,184,-4044,-980,-313,-2444,3059,-5631,173,405,-115,1,0,35,39,840,1,53298,1
1,31149,30684,31688,53460,187,-4239,744,-322,-4177,4824,-7572,182,416,-120,1,0,35,39,880,1,53298,1
1,31167,30687,31702,53461,190,-4574,1463,325,-6749,6200,-6758,195,427,-131,1,0,35,39,920,1,53298,1
1,31190,30689,31698,53462,194,-4486,8,168,-4286,6619,-3475,205,421,-129,1,0,35,39,960,1,53298,1
1,31186,30691,31695,53463,0,-4145,-987,-689,-1757,7548,-2530,205,433,-147,1,0,35,40,0,1,53298,1
2,31182,30690,31694,53464,39618,-4318,-287,-969,2388,10518,-3540,215,443,-155,1,0,35,40,40,1,53298,1
2,31174,30689,31693,53465,39622,-4715,-103,-1299,5926,13787,-4585,225,441,-183,1,0,35,40,80,1,53298,1
2,31160,30686,31690,53466,39625,-4530,-590,-1969,7797,17277,-5385,214,444,-204,1,0,35,40,120,1,53298,1
2,31142,30682,31690,53467,39627,-4251,-1277,-2485,11415,21194,-6131,225,451,-231,1,0,35,40,160,1,53298,1
2,31117,30679,31726,53468,39630,-4784,-500,-1428,21402,21830,-5721,231,453,-263,1,0,35,40,200,1,53298,1
2,31092,30677,31770,53469,39632,-4983,616,-137,26894,16442,-4050,241,449,-271,1,0,35,40,240,1,53298,1
2,31112,30684,31798,53470,39634,-4902,-695,122,12157,6790,-755,241,459,-283,1,0,35,40,280,1,53298,1
2,31115,30675,31807,53471,39636,-4811,-2332,-799,-5781,-1529,1608,230,448,-286,1,0,35,40,320,1,53298,1
2,31116,30668,31799,53472,39639,-4682,-1090,-2357,-10977,-6364,3014,224,456,-272,1,0,35,40,360,1,53298,1
2,31129,30647,31760,53473,39642,-4185,-1257,-2935,-8632,-7396,5408,225,457,-277,1,0,35,40,400,1,53298,1
2,31132,30651,31736,53474,39645,-3401,-598,-1942,-4519,-5932,5849,224,460,-258,1,0,35,40,440,1,53298,1
2,31111,30657,31748,53475,39647,-4369,-621,-929,2157,-3868,6827,209,455,-259,1,0,35,40,480,1,53298,1
2,31103,30636,31752,53476,39649,-4339,-236,-250,6948,-4133,7180,204,456,-250,1,0,35,40,520,1,53298,1
2,31087,30629,31768,53477,39651,-5616,-115,-246,4126,-5551,5925,179,453,-235,1,0,35,40,560,1,53298,1
2,31095,30630,31743,53478,39653,-5302,-103,-424,-3518,-8298,5855,177,461,-229,1,0,35,40,600,1,53298,1
2,31075,30636,31721,53479,39656,-4810,230,184,-6479,-11455,7001,164,450,-204,1,0,35,40,640,1,53298,1
2,31074,30629,31713,53480,39658,-4373,115,69,-5778,-14606,7913,166,440,-190,1,0,35,40,680,1,53298,1
2,31081,30631,31715,53481,39659,-4378,-878,-873,-3315,-15498,8083,147,441,-173,1,0,35,40,720,1,53298,1
2,31089,30634,31747,53482,39661,-4263,-609,-1233,2691,-14411,7287,142,420,-150,1,0,35,40,760,1,53298,1
2,31106,30636,31773,53483,39663,-4280,-695,-2592,7271,-12145,6362,132,424,-138,1,0,35,40,800,1,53298,1
2,31107,30635,31787,53484,39665,-4160,1,-2546,7025,-6472,5259,122,408,-136,1,0,35,40,840,1,53298,1
2,31110,30631,31760,53485,39666,-4658,67,-1416,-3693,-1823,4321,115,407,-119,1,0,35,40,880,1,53298,1
2,31071,30630,31732,53486,39668,-4685,402,-255,-11725,475,4157,121,407,-115,1,0,35,40,920,1,53298,1
2,31068,30628,31691,53487,39670,-4514,954,-107,-13435,-357,5589,120,396,-110,1,0,35,40,960,1,53298,1
1,31090,30631,31658,53488,0,-4346,-411,-874,-16968,859,5401,135,399,-117,1,0,35,41,0,0,53298,1
2,31095,30633,31645,53489,39108,-4354,-884,-648,-9496,4088,2898,138,398,-110,1,0,35,41,40,0,53298,1
2,31106,30631,31635,53490,39111,-4661,-1328,-335,-6760,6598,59,138,402,-122,1,0,35,41,80,0,53298,1
2,31105,30630,31639,53491,39113,-4492,-1827,-433,-5750,8745,-3532,144,416,-130,1,0,35,41,120,0,53298,1
2,31110,30634,31658,53492,39116,-4733,-689,301,-1057,9620,-7097,160,434,-140,1,0,35,41,160,0,53298,1
2,31095,30636,31699,53493,39120,-5592,1895,1892,-1087,7746,-8389,173,425,-149,1,0,35,41,200,0,53298,1
2,31127,30639,31715,53494,39123,-4766,184,289,-2514,5958,-7874,189,437,-157,1,0,35,41,240,0,53298,1
2,31131,30639,31711,53495,39126,-4138,-1361,-932,-725,7934,-9334,188,440,-170,1,0,35,41,280,0,53298,1
2,31133,30637,31732,53496,39129,-4153,-1665,-1974,1466,11615,-12299,209,447,-177,1,0,35,41,320,0,53298,1
2,31145,30638,31777,53497,39131,-4617,-12,-1965,9542,15567,-14749,217,449,-203,1,0,35,41,360,0,53298,1
2,31178,30640,31793,53498,39133,-4640,2224,-1763,10110,16621,-13365,244,448,-240,1,0,35,41,400,0,53298,1
2,31200,30636,31767,53499,39135,-4591,1137,-2104,3242,16713,-8028,251,447,-247,1,0,35,41,440,0,53298,1
2,31207,30633,31748,53500,39137,-4433,1479,-758,13625,14626,106,254,450,-264,1,0,35,41,480,0,53298,1
2,31129,30629,31705,53501,39139,-4475,892,-902,7710,9422,6093,239,447,-281,1,0,35,41,520,0,53298,1
2,31124,30628,31682,53502,39141,-4976,-1414,-1308,-2241,3968,9286,232,444,-286,1,0,35,41,560,0,53298,1
2,31097,30630,31690,53503,39143,-5177,-2103,-895,-3621,-173,10313,218,454,-280,1,0,35,41,600,0,53298,1
2,31051,30630,31688,53504,39146,-5070,-1905,-222,-1408,-4077,9818,205,455,-283,1,0,35,41,640,0,53298,1
2,31067,30631,31695,53505,39150,-5471,-1831,-161,930,-8451,8906,179,449,-257,1,0,35,41,680,0,53298,1
2,31090,30635,31711,53506,39152,-5353,-2005,-208,329,-12708,7133,179,451,-253,1,0,35,41,720,0,53298,1
2,31075,30635,31725,53507,39155,-5201,-1298,-487,669,-14770,4224,176,448,-226,1,0,35,41,760,0,53298,1
2,31075,30633,31727,53508,39158,-4558,-949,-1635,44,-15131,1735,171,447,-201,1,0,35,41,800,0,53298,1
2,31060,30630,31741,53509,39160,-4148,-815,-1672,5784,-13159,389,167,443,-179,1,0,35,41,840,0,53298,1
2,31098,30634,31784,53510,39161,-3404,-444,-3588,14807,-10602,160,174,436,-176,1,0,35,41,880,0,53298,1
2,31071,30631,31830,53511,39164,-3025,1396,-4708,18988,-4633,1821,147,423,-165,1,0,35,41,920,0,53298,1
2,31080,30629,31794,53512,39166,-4132,-794,-2047,6712,3188,4168,146,434,-180,1,0,35,41,960,0,53298,1
1,31028,30629,31779,53513,0,-4612,1846,885,6188,4253,6200,132,432,-180,1,0,35,42,0,0,53298,1
2,31025,30627,31751,53514,38599,-4693,1784,600,-9626,-1638,9357,132,432,-178,1,0,35,42,40,0,53298,1
2,31040,30625,31710,53515,38602,-4954,816,-160,-24602,-6641,11329,118,422,-168,1,0,35,42,80,0,53298,1
2,31046,30629,31677,53516,38606,-4973,-394,-676,-28718,-9153,10737,123,419,-129,1,0,35,42,120,0,53298,1
2,31062,30631,31666,53517,38609,-4632,-1189,-774,-22776,-8686,7713,130,404,-116,1,0,35,42,160,0,53298,1
2,31058,30631,31663,53518,38613,-4374,-1293,-418,-9368,-4243,3390,134,394,-110,1,0,35,42,200,0,53298,1
2,31068,30634,31668,53519,38616,-4691,-292,192,2362,90,-196,129,399,-107,1,0,35,42,240,0,53298,1
2,31069,30628,31671,53520,38618,-4698,960,411,2647,591,-1422,131,395,-105,1,0,35,42,280,0,53298,1
2,31088,30642,31676,53521,38622,-4595,253,46,-2824,-371,-1524,129,405,-117,1,0,35,42,320,0,53298,1
2,31078,30663,31685,53522,38626,-4606,-708,-422,-4803,-114,-2622,135,407,-101,1,0,35,42,360,0,53298,1
2,31091,30643,31696,53523,38629,-4458,-1387,-1248,-3320,2529,-5794,153,405,-117,1,0,35,42,400,0,53298,1
2,31105,30640,31717,53524,38634,-4805,-93,-632,395,6568,-8945,165,413,-117,1,0,35,42,440,0,53298,1
2,31121,30642,31735,53525,38637,-4709,936,-410,87,9947,-10799,182,420,-140,1,0,35,42,480,0,53298,1
2,31126,30644,31730,53526,38641,-4134,41,-999,-1367,12393,-10550,201,435,-161,1,0,35,42,520,0,53298,1
2,31140,30639,31735,53527,38645,-3999,-438,-1473,-1254,15066,-10389,204,444,-170,1,0,35,42,560,0,53298,1
2,31147,30642,31730,53528,38649,-4125,-329,-1502,774,17091,-10011,213,445,-187,1,0,35,42,600,0,53298,1
2,31161,30643,31728,53529,38652,-4506,-119,-1770,2309,18034,-8941,234,456,-218,1,0,35,42,640,0,53298,1
2,31187,30640,31717,53530,38656,-4435,-101,-1677,6870,18772,-7139,244,448,-250,1,0,35,42,680,0,53298,1
2,31250,30637,31711,53531,38660,-4725,201,-1252,11203,17171,-4443,247,445,-267,1,0,35,42,720,0,53298,1
2,31256,30636,31708,53532,38665,-5066,313,-352,14004,12647,-925,249,453,-277,1,0,35,42,760,0,53298,1
2,31256,30636,31730,53533,38668,-5585,-471,-17,9705,6307,1915,243,451,-291,1,0,35,42,800,0,53298,1
2,31227,30638,31722,53534,38672,-5122,-2143,-868,-949,62,2659,241,443,-285,1,0,35,42,840,0,53298,1
2,31239,30643,31717,53535,38675,-4932,-2272,-2034,-4358,-2912,1506,234,450,-270,1,0,35,42,880,0,53298,1
2,31217,30640,31709,53536,38678,-4427,-1763,-1742,-1593,-3822,777,239,451,-281,1,0,35,42,920,0,53298,1
2,31211,30642,31723,53537,38681,-4329,-1609,-576,6390,-4603,1170,234,448,-274,1,0,35,42,960,0,53298,1
1,31194,30641,31760,53538,0,-4470,-1474,-471,11887,-6316,1704,237,453,-261,1,0,35,43,0,1,53298,1
2,31173,30638,31787,53539,38090,-4237,-1236,-1327,16156,-7515,2596,226,452,-246,1,0,35,43,40,1,53298,1
2,31145,30659,31832,53540,38094,-3480,-333,-2350,16481,-8336,2644,226,448,-224,1,0,35,43,80,1,53298,1
2,31129,30649,31866,53541,38098,-2699,-199,-3728,15343,-6079,4155,212,450,-220,1,0,35,43,120,1,53298,1
2,31116,30683,31857,53542,38102,-3461,-2309,-2681,7353,-710,5134,208,454,-228,1,0,35,43,160,1,53298,1
2,31097,30670,31843,53543,38106,-4149,-920,-713,3792,1456,4756,203,451,-223,1,0,35,43,200,1,53298,1
2,31104,30660,31835,53544,38111,-4152,-162,-793,-1465,61,6538,197,445,-227,1,0,35,43,240,1,53298,1
2,31080,30670,31832,53545,38115,-4727,556,-697,-2659,-2090,9992,170,454,-214,1,0,35,43,280,1,53298,1
2,31073,30672,31809,53546,38119,-4681,1379,-1063,-5815,-3810,13954,155,449,-199,1,0,35,43,320,1,53298,1
2,31081,30651,31801,53547,38122,-5346,-592,-1712,-8504,-4525,15355,141,439,-207,1,0,35,43,360,1,53298,1
2,31046,30642,31776,53548,38125,-4945,-459,-1353,-13388,-4225,12703,125,437,-193,1,0,35,43,400,1,53298,1
2,31020,30641,31742,53549,38128,-4676,-700,-853,-15280,-4031,10472,125,439,-177,1,0,35,43,440,1,53298,1
2,31038,30641,31720,53550,38131,-4611,-711,-488,-16069,-4810,8664,116,416,-166,1,0,35,43,480,1,53298,1
2,31107,30651,31699,53551,38134,-4398,-2817,-1718,-22209,-4849,4148,118,418,-150,1,0,35,43,520,1,53298,1
2,31103,30657,31701,53552,38138,-5590,-1518,-1291,-10907,-1533,-918,135,413,-147,1,0,35,43,560,1,53298,1
2,31070,30655,31701,53553,38140,-5327,-757,-1231,-6214,-44,-3234,140,418,-144,1,0,35,43,600,1,53298,1
2,31106,30655,31694,53554,38143,-4675,-2704,-1872,-7923,2751,-7976,146,418,-134,1,0,35,43,640,1,53298,1
2,31052,30656,31715,53555,38146,-4416,-1755,-1185,-2688,6530,-11739,170,436,-144,1,0,35,43,680,1,53298,1
2,31103,30656,31745,53556,38149,-4134,110,-984,-1385,7996,-13743,181,439,-151,1,0,35,43,720,1,53298,1
2,31149,30660,31782,53557,38152,-3751,1978,-1356,-7860,9427,-14704,214,450,-170,1,0,35,43,760,1,53298,1
2,31170,30669,31808,53558,38155,-3946,381,-1695,-15094,12781,-12230,235,445,-197,1,0,35,43,800,1,53298,1
2,31136,30659,31818,53559,38157,-4460,150,-1517,5171,15619,-6136,243,445,-221,1,0,35,43,840,1,53298,1
2,31164,30657,31835,53560,38160,-4640,437,-1078,18353,17193,-3117,245,449,-235,1,0,35,43,880,1,53298,1
2,31289,30654,31835,53561,38163,-5031,753,-924,15882,15651,-1560,243,447,-251,1,0,35,43,920,1,53298,1
2,31312,30651,31815,53562,38165,-5006,-295,-1235,7759,13039,452,243,443,-275,1,0,35,43,960,1,53298,1
1,31249,30652,31814,53563,0,-5255,-1,-240,10434,9160,2862,239,457,-277,1,0,35,44,0,1,53298,1
2,31168,30649,31812,53564,37580,-5178,-672,-587,4243,4025,4388,241,453,-289,1,0,35,44,40,1,53298,1
2,31130,30649,31772,53565,37582,-4834,-554,-683,-1777,-828,6407,230,452,-286,1,0,35,44,80,1,53298,1
2,31109,30649,31769,53566,37585,-5296,-497,-197,-2915,-5217,7801,220,454,-276,1,0,35,44,120,1,53298,1
2,31104,30651,31772,53567,37588,-5462,-1980,267,-3981,-9005,8427,205,451,-267,1,0,35,44,160,1,53298,1
2,31102,30654,31801,53568,37591,-5601,-1683,1408,2359,-13395,7508,193,449,-251,1,0,35,44,200,1,53298,1
2,31105,30654,31801,53569,37594,-5203,-3078,-1404,-2350,-17642,4338,191,447,-219,1,0,35,44,240,1,53298,1
2,31065,30649,31778,53570,37596,-4491,-1834,-2203,-521,-17509,945,181,439,-193,1,0,35,44,280,1,53298,1
2,31059,30646,31829,53571,37598,-2861,-1129,-6399,12772,-14573,-1607,189,441,-181,1,0,35,44,320,1,53298,1
2,31056,30642,31872,53572,37601,-1691,468,-5590,25908,-3411,851,156,442,-182,1,0,35,44,360,1,53298,1
2,31024,30635,31826,53573,37604,-4035,-1585,-1498,10745,7282,1877,165,441,-195,1,0,35,44,400,1,53298,1
2,31001,30636,31815,53574,37608,-5038,1618,450,14479,8097,3092,154,450,-198,1,0,35,44,440,1,53298,1
2,31016,30641,31803,53575,37612,-4870,948,-447,794,4478,5868,139,441,-197,1,0,35,44,480,1,53298,1
2,31042,30658,31786,53576,37615,-4757,1025,-821,-8730,1472,8434,133,433,-201,1,0,35,44,520,1,53298,1
2,31004,30645,31756,53577,37617,-4685,505,-991,-15562,-905,10427,123,429,-205,1,0,35,44,560,1,53298,1
2,31003,30644,31734,53578,37619,-4782,186,-160,-16017,-3776,12419,117,429,-185,1,0,35,44,600,1,53298,1
2,30986,30644,31710,53579,37621,-4742,-940,-593,-17308,-6995,12818,100,414,-166,1,0,35,44,640,1,53298,1
2,31000,30645,31717,53580,37622,-4968,-1974,-1152,-15228,-7613,9854,99,413,-155,1,0,35,44,680,1,53298,1
2,30994,30646,31717,53581,37624,-4770,-1984,-1446,-11173,-6552,4536,104,404,-138,1,0,35,44,720,1,53298,1
2,30982,30648,31715,53582,37626,-5281,-2300,-1658,-9778,-2086,-2577,110,402,-114,1,0,35,44,760,1,53298,1
2,30992,30649,31732,53583,37629,-5726,633,27,-5044,737,-6118,121,407,-127,1,0,35,44,800,1,53298,1
2,31038,30649,31719,53584,37632,-4838,-1561,-619,-5814,2428,-9583,137,417,-125,1,0,35,44,840,1,53298,1
2,31048,30675,31716,53585,37635,-4389,-792,-51,-7732,3409,-12176,165,415,-133,1,0,35,44,880,1,53298,1
2,31070,30673,31737,53586,37638,-4234,1136,212,-8038,3340,-13532,183,427,-133,1,0,35,44,920,1,53298,1
2,31081,30658,31776,53587,37641,-3531,3779,-41,-12615,3827,-11877,199,435,-137,1,0,35,44,960,1,53298,1
1,31095,30663,31782,53588,0,-4323,1095,139,-14848,5663,-5551,218,436,-148,1,0,35,45,0,0,53298,1
2,31136,30661,31765,53589,37072,-4338,-560,-469,-948,6832,87,226,430,-154,1,0,35,45,40,0,53298,1
2,31152,30656,31752,53590,37075,-4350,-795,-1052,2103,9471,-859,220,442,-168,1,0,35,45,80,0,53298,1
2,31141,30653,31752,53591,37078,-4402,552,-1374,5545,11894,-1709,224,452,-188,1,0,35,45,120,0,53298,1
2,31128,30650,31730,53592,37081,-3684,744,-1826,8737,14233,-327,221,447,-203,1,0,35,45,160,0,53298,1
2,31117,30647,31738,53593,37082,-4146,99,-1975,10889,15943,1778,219,451,-231,1,0,35,45,200,0,53298,1
2,31112,30648,31745,53594,37084,-4422,290,-1420,15752,16621,2306,214,456,-258,1,0,35,45,240,0,53298,1
2,31070,30652,31768,53595,37085,-5391,-139,101,16625,14404,1707,190,460,-272,1,0,35,45,280,0,53298,1
2,31055,30649,31794,53596,37089,-5456,-1583,1217,12140,8548,862,209,459,-281,1,0,35,45,320,0,53298,1
2,31091,30666,31817,53597,37092,-5970,-1773,648,8714,569,701,213,455,-287,1,0,35,45,360,0,53298,1
2,31149,30661,31819,53598,37095,-5264,-2137,-2590,-1486,-4620,-1036,201,451,-281,1,0,35,45,400,0,53298,1
2,31143,30659,31828,53599,37099,-4642,-2774,-1549,168,-5739,-2753,218,452,-276,1,0,35,45,440,0,53298,1
2,31092,30646,31821,53600,37103,-3758,-3552,-1383,12203,-4849,-5524,228,460,-266,1,0,35,45,480,0,53298,1
2,31141,30685,31857,53601,37108,-3034,-2030,-2144,21786,-2626,-10211,237,455,-261,1,0,35,45,520,0,53298,1
2,31219,30718,31920,53602,37113,-2795,1121,-5601,14889,-907,-13696,249,451,-255,1,0,35,45,560,0,53298,1
2,31228,30720,31923,53603,37118,-2894,1304,-5487,10032,4881,-7170,261,451,-249,1,0,35,45,600,0,53298,1
2,31158,30720,31915,53604,37125,-4840,-1432,395,11559,8879,1429,261,453,-267,1,0,35,45,640,0,53298,1
2,31100,30716,31892,53605,37131,-4863,-1412,1402,-612,1978,4391,247,447,-271,1,0,35,45,680,0,53298,1
2,31169,30718,31884,53606,37136,-5389,-1025,1025,-14574,-7441,6486,239,455,-255,1,0,35,45,720,0,53298,1
2,31174,30714,31865,53607,37139,-5509,-696,-3087,-27147,-15995,10057,233,449,-233,1,0,35,45,760,0,53298,1
2,31183,30712,31815,53608,37143,-5073,326,-2643,-27356,-17935,11429,215,453,-219,1,0,35,45,800,0,53298,1
2,31189,30707,31742,53609,37145,-5146,1209,-339,-25229,-19416,14648,201,447,-191,1,0,35,45,840,0,53298,1
2,31202,30708,31687,53610,37149,-4537,-777,-1231,-22963,-20732,16391,195,437,-155,1,0,35,45,880,0,53298,1
2,31155,30704,31673,53611,37151,-3207,-1525,-134,-12480,-18688,13406,182,424,-142,1,0,35,45,920,0,53298,1
2,31069,30703,31707,53612,37154,-3293,-528,-52,4920,-15733,10873,166,412,-114,1,0,35,45,960,0,53298,1
1,31089,30704,31738,53613,0,-3536,-1950,-976,4685,-9151,5229,152,406,-106,1,0,35,46,0,1,53298,1
2,31114,30707,31765,53614,36562,-5046,-847,-1449,7880,-2189,591,151,407,-107,1,0,35,46,40,1,53298,1
2,31123,30709,31773,53615,36564,-8323,-560,-2115,2725,2726,-2110,144,406,-94,1,0,35,46,80,1,53298,1
2,31131,30687,31769,53616,36567,-4978,-238,-132,6440,3844,-2783,145,417,-121,1,0,35,46,120,1,53298,1
2,31150,30703,31754,53617,36570,-3967,-2306,-1997,390,6689,-5731,150,428,-120,1,0,35,46,160,1,53298,1
2,31169,30705,31757,53618,36573,-3459,-3002,-3478,-5483,12917,-12191,180,420,-150,1,0,35,46,200,1,53298,1
2,31149,30707,31800,53619,36576,-4644,-15,-2410,2566,20602,-16206,203,443,-181,1,0,35,46,240,1,53298,1
2,31129,30710,31842,53620,36579,-4701,-373,-2118,5892,25150,-17916,219,447,-209,1,0,35,46,280,1,53298,1
2,31165,30712,31880,53621,36582,-5225,361,-937,12789,24807,-15748,237,461,-245,1,0,35,46,320,1,53298,1
2,31260,30712,31884,53622,36585,-5407,318,-338,13035,19946,-12554,252,454,-268,1,0,35,46,360,1,53298,1
2,31369,30710,31870,53623,36587,-5169,167,78,7291,12355,-7949,266,446,-286,1,0,35,46,400,1,53298,1
2,31452,30703,31844,53624,36590,-5864,1294,1261,-2123,1432,-1641,258,438,-276,1,0,35,46,440,1,53298,1
2,31478,30708,31845,53625,36593,-4986,-1472,-1190,-9739,-4955,2571,266,444,-278,1,0,35,46,480,1,53298,1
2,31362,30679,31804,53626,36597,-5080,-1721,-2436,-5204,-8145,6064,246,450,-276,1,0,35,46,520,1,53298,1
2,31418,30694,31807,53627,36600,-4785,-837,-759,-576,-8229,7572,250,450,-266,1,0,35,46,560,1,53298,1
2,31154,30660,31821,53628,36603,-5189,1591,1825,12238,-11072,12606,222,464,-234,1,0,35,46,600,1,53298,1
2,30877,30649,31826,53629,36607,-5672,1766,1693,7270,-16643,17282,200,452,-222,1,0,35,46,640,1,53298,1
2,30516,30646,31809,53630,36610,-5270,-738,-283,-3944,-21622,18702,175,441,-187,1,0,35,46,680,1,53298,1
2,30530,30646,31821,53631,36613,-4005,-1882,-2289,-1959,-22037,16411,148,428,-150,1,0,35,46,720,1,53298,1
2,30586,30654,31818,53632,36617,-3922,-1925,-3316,4446,-18319,12712,138,410,-130,1,0,35,46,760,1,53298,1
2,30308,30644,31790,53633,36619,-3802,-3017,-4144,-8613,-10330,7416,129,395,-109,1,0,35,46,800,1,53298,1
2,30255,30636,31775,53634,36621,-4793,-3961,-2346,-12662,-255,379,143,399,-115,1,0,35,46,840,1,53298,1
2,30420,30671,31828,53635,36624,-7058,2168,2654,4521,3634,-2339,139,411,-127,1,0,35,46,880,1,53298,1
2,30716,30697,31814,53636,36629,-4575,178,-1212,-4020,1368,-1246,144,416,-120,1,0,35,46,920,1,53298,1
2,30935,30702,31801,53637,36632,-3615,-2620,-3228,-8402,5263,-3120,162,418,-126,1,0,35,46,960,1,53298,1
1,30750,30700,31804,53638,0,-4559,-1604,-1618,-3929,12449,-7788,166,424,-138,1,0,35,47,0,1,53298,1
2,30836,30700,31836,53639,36051,-5136,-1091,-757,353,15840,-10454,179,427,-151,1,0,35,47,40,1,53298,1
2,30844,30705,31868,53640,36054,-4397,-1544,-1755,4670,18557,-12721,192,442,-180,1,0,35,47,80,1,53298,1
2,30846,30683,31890,53641,36055,-4493,-1306,-1658,7887,20986,-15501,212,450,-202,1,0,35,47,120,1,53298,1
2,30829,30663,31896,53642,36057,-4981,-478,-1232,8730,20849,-16563,236,450,-244,1,0,35,47,160,1,53298,1
2,30987,30659,31869,53643,36060,-5002,64,-615,4676,16980,-14231,253,447,-265,1,0,35,47,200,1,53298,1
2,31131,30633,31829,53644,36062,-4535,227,-420,1058,10445,-9145,278,438,-282,1,0,35,47,240,1,53298,1
2,31375,30623,31844,53645,36063,-5968,1072,1308,458,186,-1331,273,435,-285,1,0,35,47,280,1,53298,1
2,31356,30640,31857,53646,36065,-5131,-1067,-1271,-6849,-4846,3595,263,445,-277,1,0,35,47,320,1,53298,1
2,31134,30659,31810,53647,36067,-5394,-1969,-2600,-12704,-9551,5994,248,450,-262,1,0,35,47,360,1,53298,1
2,30809,30669,31760,53648,36070,-4599,-551,-1789,-11339,-10539,7205,239,451,-261,1,0,35,47,400,1,53298,1
2,30695,30657,31767,53649,36072,-4577,869,767,-2614,-12172,10182,233,451,-239,1,0,35,47,440,1,53298,1
2,30683,30673,31787,53650,36075,-5335,2120,2364,7530,-15775,14996,212,452,-216,1,0,35,47,480,1,53298,1
2,30691,30666,31779,53651,36078,-5199,-99,1220,236,-19719,16617,186,452,-184,1,0,35,47,520,1,53298,1
2,30467,30663,31780,53652,36080,-4928,-1583,666,2263,-22650,14727,172,420,-158,1,0,35,47,560,1,53298,1
2,30513,30653,31800,53653,36082,-4043,-2499,-1991,4886,-21015,11074,144,414,-126,1,0,35,47,600,1,53298,1
2,30435,30655,31852,53654,36084,-3969,-1873,-4317,17017,-14395,6999,130,410,-124,1,0,35,47,640,1,53298,1
2,30380,30652,31857,53655,36086,-4643,62,-2885,17452,-4621,3990,110,394,-112,1,0,35,47,680,1,53298,1
2,30304,30651,31821,53656,36089,-5297,-2534,-3173,-6831,2833,131,119,401,-127,1,0,35,47,720,1,53298,1
2,30220,30650,31812,53657,36092,-6395,-893,74,-1199,6783,-1186,123,403,-131,1,0,35,47,760,1,53298,1
2,30290,30641,31781,53658,36095,-4645,-1883,-2215,-6316,8716,-4458,129,421,-137,1,0,35,47,800,1,53298,1
2,30258,30641,31755,53659,36098,-4096,-2759,-2544,-9313,13288,-8889,150,432,-152,1,0,35,47,840,1,53298,1
2,30300,30641,31764,53660,36100,-4584,-2065,-1717,-5377,17016,-13410,173,435,-179,1,0,35,47,880,1,53298,1
2,30356,30644,31781,53661,36103,-4427,-1727,-1478,-5196,19416,-17121,199,441,-209,1,0,35,47,920,1,53298,1
2,30399,30646,31825,53662,36106,-4803,-1242,-822,-1425,20281,-19023,227,457,-239,1,0,35,47,960,1,53298,1
1,30562,30650,31852,53663,0,-5365,84,-208,2472,18042,-18219,243,455,-257,1,0,35,48,0,1,53298,1
2,30948,30651,31848,53664,35543,-5742,349,43,442,13278,-14643,253,445,-279,1,0,35,48,40,1,53298,1
2,30973,30652,31829,53665,35548,-7289,2092,0,-2926,563,-5539,271,439,-271,1,0,35,48,80,1,53298,1
2,31034,30655,31822,53666,35551,-5641,-298,-820,-1955,-1615,2532,263,445,-277,1,0,35,48,120,1,53298,1
