sensorStatus,cap1,cap2,cap3,counter,microseconds_since_last_tick,accX,accY,accZ,gyroX,gyroY,gyroZ,magnetX,magnetY,magnetZ,day,hour,min,sec,msec,sync,battery_fuel,crc_good
1,28455,30492,31497,52164,199,-4603,-846,-126,-11,-25,26,226,500,-132,1,0,34,48,40,0,53298,1
1,28456,30493,31503,52165,209,-4605,-840,-107,-9,-22,24,231,491,-125,1,0,34,48,80,0,53298,1
1,28444,30491,31502,52166,219,-4613,-841,-119,-11,-11,19,229,493,-129,1,0,34,48,120,0,53298,1
1,28463,30496,31503,52167,228,-4611,-841,-116,-14,-12,21,215,493,-135,1,0,34,48,160,0,53298,1
1,28464,30498,31504,52168,238,-4602,-848,-115,-11,-6,17,227,493,-131,1,0,34,48,200,0,53298,1
3,28430,30496,31499,52169,247,-4606,-844,-122,-13,-16,30,222,486,-122,1,0,34,48,240,0,53298,1
3,28441,30498,31503,52170,257,-4621,-861,-132,-6,-16,28,227,497,-131,1,0,34,48,280,0,53298,1
3,28443,30496,31504,52171,267,-4611,-854,-126,-10,-29,30,214,490,-126,1,0,34,48,320,0,53298,1
3,28458,30495,31501,52172,277,-4615,-848,-117,-10,-20,24,215,489,-117,1,0,34,48,360,0,53298,1
3,28442,30495,31501,52173,286,-4616,-845,-134,-10,-18,22,226,492,-128,1,0,34,48,400,0,53298,1
0,28443,30493,31503,52174,297,-4616,-845,-134,-10,-18,22,234,490,-120,1,0,34,48,440,0,53298,1
2,28436,30497,31504,52175,307,-4617,-862,-117,-12,-15,18,219,493,-133,1,0,34,48,480,0,53298,1
2,28426,30501,31502,52176,317,-4618,-852,-125,-3,-14,23,222,492,-128,1,0,34,48,520,0,53298,1
2,28435,30498,31499,52177,326,-4617,-848,-122,-9,-17,36,218,494,-122,1,0,34,48,560,0,53298,1
2,28450,30499,31502,52178,336,-4618,-852,-123,-14,-18,26,220,498,-116,1,0,34,48,600,0,53298,1
2,28438,30496,31504,52179,346,-4620,-859,-130,-13,-23,24,221,487,-125,1,0,34,48,640,0,53298,1
2,28441,30502,31500,52180,355,-4617,-857,-118,-19,-19,21,221,491,-119,1,0,34,48,680,0,53298,1
2,28443,30506,31501,52181,364,-4615,-856,-110,-8,-10,17,219,491,-135,1,0,34,48,720,0,53298,1
2,28440,30496,31498,52182,373,-4608,-850,-120,-16,-3,17,222,496,-126,1,0,34,48,760,0,53298,1
2,28445,30502,31501,52183,383,-4621,-854,-114,-20,-14,15,228,482,-134,1,0,34,48,800,0,53298,1
2,28417,30510,31505,52184,392,-4618,-862,-120,-16,-2,24,220,484,-132,1,0,34,48,840,0,53298,1
2,28410,30506,31502,52185,402,-4617,-845,-122,-19,-15,24,228,486,-126,1,0,34,48,880,0,53298,1
2,28427,30517,31501,52186,411,-4618,-860,-129,-15,-19,27,220,494,-124,1,0,34,48,920,0,53298,1
2,28425,30513,31503,52187,411,-4605,-850,-123,-11,-27,35,219,491,-121,1,0,34,48,960,0,53298,1
1,28428,30510,31501,52188,0,-4611,-844,-127,-7,-29,38,219,497,-123,1,0,34,49,0,1,53298,1
2,28436,30515,31500,52189,39739,-4619,-850,-99,-13,-14,27,221,497,-127,1,0,34,49,40,1,53298,1
2,28437,30521,31505,52190,39748,-4630,-869,-127,-15,-19,19,218,500,-126,1,0,34,49,80,1,53298,1
2,28400,30517,31503,52191,39757,-4619,-839,-117,-12,-28,20,225,491,-131,1,0,34,49,120,1,53298,1
2,28413,30520,31503,52192,39766,-4617,-862,-121,-21,-17,22,230,496,-128,1,0,34,49,160,1,53298,1
2,28390,30519,31502,52193,39775,-4599,-835,-128,-22,-25,18,229,491,-119,1,0,34,49,200,1,53298,1
2,28427,30515,31501,52194,39784,-4612,-848,-134,-9,-21,27,223,491,-135,1,0,34,49,240,1,53298,1
2,28408,30514,31502,52195,39793,-4625,-865,-121,-4,-21,25,228,494,-130,1,0,34,49,280,1,53298,1
2,28416,30516,31501,52196,39802,-4614,-857,-121,-10,-31,32,224,492,-132,1,0,34,49,320,1,53298,1
2,28411,30513,31500,52197,39811,-4615,-849,-115,-5,-26,35,225,493,-131,1,0,34,49,360,1,53298,1
2,28416,30516,31497,52198,39819,-4612,-851,-137,-15,-17,24,219,493,-135,1,0,34,49,400,1,53298,1
2,28416,30518,31501,52199,39828,-4608,-850,-118,-16,-23,14,215,487,-123,1,0,34,49,440,1,53298,1
2,28420,30521,31497,52200,39838,-4621,-852,-126,-13,-29,22,227,495,-119,1,0,34,49,480,1,53298,1
2,28400,30517,31501,52201,39848,-4610,-838,-103,-15,-29,27,233,497,-127,1,0,34,49,520,1,53298,1
2,28415,30514,31503,52202,39857,-4616,-856,-119,-8,-18,26,229,489,-123,1,0,34,49,560,1,53298,1
2,28431,30511,31502,52203,39867,-4614,-850,-121,-19,-8,19,229,489,-125,1,0,34,49,600,1,53298,1
2,28416,30515,31500,52204,39876,-4617,-853,-124,-15,-22,22,225,489,-131,1,0,34,49,640,1,53298,1
2,28421,30511,31501,52205,39885,-4606,-844,-121,-22,-26,30,222,492,-126,1,0,34,49,680,1,53298,1
2,28421,30511,31503,52206,39894,-4605,-850,-122,-11,-23,31,225,481,-137,1,0,34,49,720,1,53298,1
2,28443,30508,31503,52207,39903,-4612,-853,-117,-15,-17,24,225,501,-131,1,0,34,49,760,1,53298,1
2,28430,30512,31502,52208,39912,-4615,-854,-119,-16,-9,13,232,486,-136,1,0,34,49,800,1,53298,1
2,28395,30510,31500,52209,39922,-4617,-854,-115,-22,-10,16,219,489,-133,1,0,34,49,840,1,53298,1
2,28403,30510,31501,52210,39932,-4615,-850,-140,-18,-12,10,224,484,-126,1,0,34,49,880,1,53298,1
2,28407,30500,31502,52211,39942,-4606,-856,-125,-15,-14,16,227,489,-131,1,0,34,49,920,1,53298,1
2,28413,30504,31501,52212,39952,-4607,-854,-113,-20,-24,13,220,484,-126,1,0,34,49,960,1,53298,1
1,28409,30498,31498,52213,0,-4613,-840,-115,-13,-25,23,220,490,-128,1,0,34,50,0,0,53298,1
2,28396,30495,31500,52214,39280,-4629,-855,-115,-12,-30,35,223,487,-127,1,0,34,50,40,0,53298,1
2,28438,30496,31500,52215,39290,-4614,-854,-115,-13,-35,34,220,492,-120,1,0,34,50,80,0,53298,1
2,28433,30492,31501,52216,39301,-4625,-848,-129,-29,-33,19,223,503,-127,1,0,34,50,120,0,53298,1
2,28430,30495,31498,52217,39311,-4611,-858,-122,-26,-26,18,226,498,-132,1,0,34,50,160,0,53298,1
2,28428,30502,31502,52218,39320,-4712,-819,4,-269,-43,-7,230,492,-120,1,0,34,50,200,0,53298,1
2,28472,30509,31505,52219,39330,-4868,-360,-327,-3713,-302,-482,227,489,-127,1,0,34,50,240,0,53298,1
2,28574,30333,31497,52220,39339,-4661,-1093,-174,-4943,-529,-773,237,489,-129,1,0,34,50,280,0,53298,1
2,28600,30324,31492,52221,39349,-4374,-930,41,-1396,-240,-287,241,489,-137,1,0,34,50,320,0,53298,1
2,28618,30298,31497,52222,39358,-4311,-1069,-47,-184,-142,45,231,491,-121,1,0,34,50,360,0,53298,1
2,28625,30299,31493,52223,39368,-4186,-1171,28,1854,272,334,231,491,-131,1,0,34,50,400,0,53298,1
2,28584,30276,31500,52224,39377,-5250,-256,-165,1058,240,385,234,484,-130,1,0,34,50,440,0,53298,1
2,28603,30294,31503,52225,39386,-4791,-932,-193,-2010,-334,-425,236,496,-120,1,0,34,50,480,0,53298,1
2,28602,30318,31495,52226,39395,-4286,-1037,-47,-1189,-363,-333,230,490,-132,1,0,34,50,520,0,53298,1
2,28606,30314,31498,52227,39404,-4357,-1112,-131,215,19,37,230,488,-136,1,0,34,50,560,0,53298,1
2,28567,30322,31507,52228,39413,-4774,-906,64,1889,272,412,241,489,-133,1,0,34,50,600,0,53298,1
2,28550,30319,31507,52229,39424,-4988,-535,-369,-730,-126,43,232,492,-130,1,0,34,50,640,0,53298,1
2,28570,30289,31502,52230,39434,-4506,-981,-1,-1539,-367,-362,233,493,-127,1,0,34,50,680,0,53298,1
2,28605,30319,31505,52231,39444,-4317,-1022,-55,-252,-187,-41,234,496,-128,1,0,34,50,720,0,53298,1
2,28611,30330,31502,52232,39454,-4530,-923,-34,744,113,153,238,490,-136,1,0,34,50,760,0,53298,1
2,28644,30329,31511,52233,39464,-5179,-421,-478,-684,-3,20,231,493,-135,1,0,34,50,800,0,53298,1
2,28719,30316,31510,52234,39474,-4945,-955,-122,-1343,-226,-249,238,488,-134,1,0,34,50,840,0,53298,1
2,28766,30275,31500,52235,39484,-4217,-975,167,1003,-93,135,232,484,-128,1,0,34,50,880,0,53298,1
2,28760,30300,31501,52236,39495,-4085,-1205,55,489,-88,146,228,478,-126,1,0,34,50,920,0,53298,1
2,28812,30301,31500,52237,39506,-4406,-945,-57,154,280,71,229,493,-127,1,0,34,50,960,0,53298,1
1,28824,30306,31508,52238,0,-4826,-799,-156,49,351,34,232,490,-124,1,0,34,51,0,0,53298,1
2,28705,30310,31507,52239,38820,-4530,-901,22,1095,331,108,236,490,-126,1,0,34,51,40,0,53298,1
2,28717,30321,31508,52240,38829,-5507,-242,-688,-136,72,-20,231,493,-125,1,0,34,51,80,0,53298,1
2,28721,30327,31508,52241,38838,-4723,-977,-16,-378,-224,-244,237,491,-135,1,0,34,51,120,0,53298,1
2,28725,30318,31502,52242,38848,-4219,-946,43,434,-194,4,236,494,-130,1,0,34,51,160,0,53298,1
2,28730,30320,31502,52243,38858,-4260,-1102,2,69,50,97,233,491,-125,1,0,34,51,200,0,53298,1
2,28690,30312,31505,52244,38867,-4432,-1003,0,814,301,214,237,489,-133,1,0,34,51,240,0,53298,1
2,28724,30306,31519,52245,38877,-5635,-462,-668,-886,129,11,232,488,-118,1,0,34,51,280,0,53298,1
2,28702,30303,31507,52246,38886,-4602,-922,55,-316,-241,-264,233,491,-127,1,0,34,51,320,0,53298,1
2,28695,30298,31495,52247,38896,-4051,-1060,57,387,-273,3,244,490,-134,1,0,34,51,360,0,53298,1
2,28698,30283,31498,52248,38905,-4137,-1191,3,49,78,70,231,489,-127,1,0,34,51,400,0,53298,1
2,28720,30277,31512,52249,38914,-5427,-232,-645,-327,252,104,230,490,-136,1,0,34,51,440,0,53298,1
2,28707,30295,31514,52250,38924,-5130,-844,-113,-982,-53,-154,237,495,-131,1,0,34,51,480,0,53298,1
2,28687,30333,31496,52251,38934,-4195,-907,90,767,-230,64,230,488,-130,1,0,34,51,520,0,53298,1
2,28661,30348,31490,52252,38943,-3909,-1322,45,234,-81,70,236,482,-130,1,0,34,51,560,0,53298,1
2,28702,30336,31499,52253,38953,-4248,-1193,117,482,331,87,238,492,-126,1,0,34,51,600,0,53298,1
2,28739,30337,31517,52254,38963,-5850,-495,-444,-1549,236,-100,232,492,-132,1,0,34,51,640,0,53298,1
2,28705,30339,31500,52255,38973,-4534,-917,94,619,-225,-15,233,487,-133,1,0,34,51,680,0,53298,1
2,28701,30345,31492,52256,38983,-3888,-1180,42,685,-324,159,231,487,-133,1,0,34,51,720,0,53298,1
2,28705,30351,31502,52257,38993,-3990,-1281,29,366,224,154,232,492,-126,1,0,34,51,760,0,53298,1
2,28691,30331,31509,52258,39003,-4900,-544,-68,2735,650,584,233,489,-123,1,0,34,51,800,0,53298,1
2,28905,30237,31508,52259,39013,-5263,-1373,49,2469,-102,1680,217,485,-133,1,0,34,51,840,0,53298,1
2,29618,30430,31515,52260,39025,-4484,-1855,1159,753,-1463,553,229,495,-135,1,0,34,51,880,0,53298,1
2,29734,29933,31602,52261,39038,-4552,394,-1559,-435,-1401,11,222,498,-128,1,0,34,51,920,0,53298,1
2,29653,30636,31639,52262,39052,-4404,-438,-152,322,-819,-47,226,502,-124,1,0,34,51,960,0,53298,1
1,29515,30448,31612,52263,0,-4439,-498,-519,-10,199,-11,229,495,-125,1,0,34,52,0,0,53298,1
2,29542,30256,31596,52264,38363,-4537,-126,-618,746,800,81,228,498,-120,1,0,34,52,40,0,53298,1
2,29635,30331,31594,52265,38375,-5533,-5326,2757,-728,376,438,224,488,-120,1,0,34,52,80,0,53298,1
2,29594,30015,31618,52266,38389,-4817,1044,-1555,-1678,-1241,-148,215,495,-121,1,0,34,52,120,0,53298,1
2,29522,29908,31597,52267,38403,-4051,-401,-237,437,-930,-24,230,484,-122,1,0,34,52,160,0,53298,1
2,29455,30578,31628,52268,38416,-4558,-594,-193,-1168,626,-388,230,494,-122,1,0,34,52,200,0,53298,1
2,28953,30695,31662,52269,38429,-4768,-1436,337,343,-173,117,231,491,-131,1,0,34,52,240,0,53298,1
2,29380,30620,31932,52270,38443,-4393,-336,-336,295,-459,233,221,495,-125,1,0,34,52,280,0,53298,1
2,29480,30588,31954,52271,38457,-4536,-742,-188,-241,13,-45,227,493,-115,1,0,34,52,320,0,53298,1
2,29291,30595,31882,52272,38471,-4960,-1548,567,338,171,-30,232,498,-124,1,0,34,52,360,0,53298,1
2,29065,30336,31830,52273,38484,-4727,-429,-190,-78,-627,430,229,491,-123,1,0,34,52,400,0,53298,1
2,29210,30651,32035,52274,38498,-4350,-553,-263,5,-511,115,232,488,-124,1,0,34,52,440,0,53298,1
2,29691,30807,32242,52275,38512,-4541,-653,-211,-20,289,-228,225,495,-125,1,0,34,52,480,0,53298,1
2,29516,30541,32172,52276,38525,-4140,224,-848,554,1091,-504,231,493,-123,1,0,34,52,520,0,53298,1
2,29525,30697,32126,52277,38537,-5762,-4353,1991,329,254,351,212,494,-114,1,0,34,52,560,0,53298,1
2,29634,30829,32145,52278,38549,-4266,448,-1025,-408,-782,171,230,488,-114,1,0,34,52,600,0,53298,1
2,29716,30857,32190,52279,38561,-4325,-493,-178,593,-438,92,224,496,-106,1,0,34,52,640,0,53298,1
2,29691,30864,32179,52280,38574,-4482,-402,-583,-415,617,-222,220,488,-112,1,0,34,52,680,0,53298,1
2,29632,30596,32125,52281,38585,-4997,-2382,853,290,255,7,224,492,-126,1,0,34,52,720,0,53298,1
2,29617,30673,32115,52282,38597,-4445,-404,-372,79,24,81,225,493,-119,1,0,34,52,760,0,53298,1
2,29619,30815,32118,52283,38608,-4452,-474,-192,-120,134,-40,228,486,-120,1,0,34,52,800,0,53298,1
2,29718,30484,32120,52284,38619,-5443,-2919,1220,317,63,388,222,490,-118,1,0,34,52,840,0,53298,1
2,29790,30495,32131,52285,38631,-4446,236,-676,-112,-557,136,226,496,-118,1,0,34,52,880,0,53298,1
2,29829,30623,32145,52286,38644,-4372,-678,-212,508,-375,96,228,488,-114,1,0,34,52,920,0,53298,1
2,29799,30822,32137,52287,38656,-4891,-1135,287,-330,155,-70,227,489,-121,1,0,34,52,960,0,53298,1
1,29827,30791,32152,52288,0,-4556,-505,-112,112,-291,156,222,492,-114,1,0,34,53,0,0,53298,1
2,29840,30856,32194,52289,37904,-4461,-576,-238,167,-168,96,230,500,-126,1,0,34,53,40,0,53298,1
2,29910,30843,32207,52290,37916,-4507,-639,-323,-191,294,-185,225,493,-123,1,0,34,53,80,0,53298,1
2,29878,30574,32024,52291,37927,-4367,23,-811,483,1073,-260,226,492,-118,1,0,34,53,120,0,53298,1
2,31231,31009,32766,52292,37936,-5112,-1433,71,1132,1645,249,233,491,-127,1,0,34,53,160,0,53298,1
2,29353,30707,32110,52293,37946,-4591,-1044,987,-650,801,-525,222,494,-126,1,0,34,53,200,0,53298,1
2,29234,30296,32027,52294,37954,-4908,-626,-801,-3633,91,-954,229,491,-127,1,0,34,53,240,0,53298,1
2,29183,30304,32010,52295,37964,-4556,-1331,378,-2107,-103,-520,230,484,-132,1,0,34,53,280,0,53298,1
2,29224,30535,32042,52296,37973,-4383,-813,99,-1011,-7,-153,230,488,-128,1,0,34,53,320,0,53298,1
2,29159,30720,31966,52297,37982,-4454,-1062,-167,78,32,80,236,490,-128,1,0,34,53,360,0,53298,1
2,28781,30745,31802,52298,37991,-4345,-950,116,984,393,161,226,484,-136,1,0,34,53,400,0,53298,1
2,28395,30678,31675,52299,38000,-4500,-904,-38,2242,618,427,232,490,-128,1,0,34,53,440,0,53298,1
2,28209,30036,31605,52300,38010,-5261,-640,-375,1816,383,827,231,483,-127,1,0,34,53,480,0,53298,1
2,28986,30651,31605,52301,38020,-4298,-1924,1228,927,-1531,1290,227,491,-127,1,0,34,53,520,0,53298,1
2,29006,29991,31610,52302,38032,-4523,229,-1719,81,-1148,64,218,498,-122,1,0,34,53,560,0,53298,1
2,28835,30196,31625,52303,38044,-4365,-422,-230,253,-481,-84,219,493,-127,1,0,34,53,600,0,53298,1
2,28698,29874,31597,52304,38056,-5019,-1416,400,131,214,65,230,494,-118,1,0,34,53,640,0,53298,1
2,28788,30237,31603,52305,38069,-4611,-269,-189,-194,-305,154,220,494,-122,1,0,34,53,680,0,53298,1
2,28830,29949,31600,52306,38081,-4422,-563,-348,333,-185,137,226,496,-136,1,0,34,53,720,0,53298,1
2,28794,30457,31599,52307,38095,-4536,-598,-269,-326,234,-111,233,491,-127,1,0,34,53,760,0,53298,1
2,28754,29845,31613,52308,38107,-4946,-2161,901,-129,-221,105,225,485,-129,1,0,34,53,800,0,53298,1
2,28923,30055,31621,52309,38120,-4389,-117,-636,-1,-668,203,227,493,-123,1,0,34,53,840,0,53298,1
2,28852,29924,31665,52310,38134,-4457,-625,-232,23,-343,31,229,491,-127,1,0,34,53,880,0,53298,1
2,28886,30369,31693,52311,38147,-4397,-365,-617,204,443,-200,217,485,-123,1,0,34,53,920,0,53298,1
2,28724,29833,31638,52312,38159,-4530,169,-697,809,1406,-279,226,490,-126,1,0,34,53,960,0,53298,1
1,28619,29826,31657,52313,0,-5339,-4878,2818,-789,-61,500,214,490,-108,1,0,34,54,0,1,53298,1
2,28984,29911,31687,52314,37443,-4541,1048,-1772,-633,-1045,45,222,500,-120,1,0,34,54,40,1,53298,1
2,28920,29843,31676,52315,37457,-4170,-488,-307,1010,-663,96,224,494,-118,1,0,34,54,80,1,53298,1
2,28860,30166,31660,52316,37469,-4391,-14,-855,-683,888,-267,223,489,-119,1,0,34,54,120,1,53298,1
2,28789,30033,31668,52317,37482,-5598,-4235,2063,455,121,225,217,501,-125,1,0,34,54,160,1,53298,1
2,28852,29973,31682,52318,37495,-4373,641,-1019,-249,-552,65,222,494,-128,1,0,34,54,200,1,53298,1
2,28903,29878,31675,52319,37509,-4256,-582,-370,217,-245,-50,218,492,-120,1,0,34,54,240,1,53298,1
2,28860,30373,31663,52320,37523,-4518,-200,-753,-336,705,-105,222,490,-122,1,0,34,54,280,1,53298,1
2,28766,30409,31669,52321,37535,-5819,-3895,2208,666,386,272,216,494,-116,1,0,34,54,320,1,53298,1
2,28879,30404,31678,52322,37547,-4587,503,-953,-579,-406,-10,219,493,-121,1,0,34,54,360,1,53298,1
2,29045,30380,31665,52323,37560,-4167,-175,-666,-358,-30,-195,229,483,-131,1,0,34,54,400,1,53298,1
2,28961,30304,31646,52324,37572,-4780,-602,-480,-1441,764,-119,221,497,-119,1,0,34,54,440,1,53298,1
2,28571,30490,31619,52325,37583,-5180,-1556,-3,-523,1338,-361,226,492,-120,1,0,34,54,480,1,53298,1
2,28572,30181,31600,52326,37592,-4728,-933,416,-2482,249,-1040,233,487,-123,1,0,34,54,520,1,53298,1
2,28562,31240,31619,52327,37600,-4327,-874,352,-1634,-254,-422,225,487,-121,1,0,34,54,560,1,53298,1
2,28600,29891,31616,52328,37609,-4414,-1090,-182,-1579,-179,-30,229,493,-133,1,0,34,54,600,1,53298,1
2,28612,30651,31643,52329,37618,-4782,-719,-247,-1531,19,-164,232,498,-124,1,0,34,54,640,1,53298,1
2,28645,29853,31622,52330,37627,-4690,-889,-69,-1021,34,-206,233,487,-129,1,0,34,54,680,1,53298,1
2,28648,30410,31625,52331,37637,-4338,-989,27,136,74,0,230,494,-132,1,0,34,54,720,1,53298,1
2,28697,30560,31638,52332,37646,-4215,-1057,-1,405,182,36,229,493,-129,1,0,34,54,760,1,53298,1
2,28702,30382,31666,52333,37656,-4787,-638,-274,155,267,101,241,489,-115,1,0,34,54,800,1,53298,1
2,28713,30360,31652,52334,37666,-5080,-828,-205,-910,-90,-175,230,492,-122,1,0,34,54,840,1,53298,1
2,28645,30281,31623,52335,37675,-4349,-883,90,821,-215,30,235,501,-135,1,0,34,54,880,1,53298,1
2,28632,33265,31595,52336,37685,-4037,-1221,49,629,-117,179,232,488,-136,1,0,34,54,920,1,53298,1
2,28611,32419,31600,52337,37694,-4761,-652,-527,-559,199,109,233,491,-131,1,0,34,54,960,1,53298,1
1,28664,30007,31645,52338,0,-5740,-875,-452,-2000,106,-354,229,495,-111,1,0,34,55,0,1,53298,1
2,28577,30456,31579,52339,36982,-4320,-900,363,2648,326,268,241,495,-135,1,0,34,55,40,1,53298,1
2,28576,29979,31599,52340,36992,-3581,-1118,435,2456,-154,600,238,486,-134,1,0,34,55,80,1,53298,1
2,28594,30062,31598,52341,37002,-3403,-1682,197,20,-8,280,232,492,-130,1,0,34,55,120,1,53298,1
2,28612,30066,31605,52342,37011,-4280,-449,-487,-264,345,-72,234,492,-130,1,0,34,55,160,1,53298,1
2,28643,30586,31645,52343,37021,-6784,-451,-336,-2374,784,-52,233,487,-137,1,0,34,55,200,1,53298,1
2,28589,30560,31609,52344,37031,-4318,-822,183,2033,-424,-61,224,502,-120,1,0,34,55,240,1,53298,1
2,28568,30624,31599,52345,37041,-3978,-1164,-326,1048,-341,51,224,492,-126,1,0,34,55,280,1,53298,1
2,28597,30538,31621,52346,37051,-5014,-829,-199,-1309,43,22,224,496,-134,1,0,34,55,320,1,53298,1
2,28610,30436,31619,52347,37060,-4661,-801,-8,20,-190,67,231,491,-127,1,0,34,55,360,1,53298,1
2,28591,30546,31620,52348,37070,-5016,-504,-574,-1195,-174,-89,225,499,-131,1,0,34,55,400,1,53298,1
2,28641,30340,31610,52349,37080,-4572,-1028,38,-426,19,-55,228,496,-134,1,0,34,55,440,1,53298,1
2,28636,30435,31603,52350,37091,-4127,-947,137,769,-66,155,235,489,-129,1,0,34,55,480,1,53298,1
2,28661,30120,31610,52351,37100,-3868,-1361,141,702,217,76,229,495,-139,1,0,34,55,520,1,53298,1
2,28649,30159,31635,52352,37111,-5818,-301,-1001,-2342,257,-275,238,492,-136,1,0,34,55,560,1,53298,1
2,28645,30156,31623,52353,37121,-5072,-862,65,154,134,-168,229,479,-129,1,0,34,55,600,1,53298,1
2,28679,30225,31601,52354,37132,-4082,-839,170,1753,-240,242,230,490,-130,1,0,34,55,640,1,53298,1
2,28677,30225,31596,52355,37141,-3476,-1561,154,1015,9,248,234,498,-136,1,0,34,55,680,1,53298,1
2,28772,30377,31628,52356,37150,-5450,56,-1563,-1829,95,-130,232,494,-126,1,0,34,55,720,1,53298,1
2,28793,30420,31640,52357,37161,-5484,-836,126,-1253,382,-318,230,492,-138,1,0,34,55,760,1,53298,1
2,28738,30381,31612,52358,37171,-4228,-567,289,2274,-262,237,224,492,-136,1,0,34,55,800,1,53298,1
2,28710,30387,31598,52359,37180,-3464,-1523,75,901,-362,302,237,493,-121,1,0,34,55,840,1,53298,1
2,28739,30473,31616,52360,37189,-3958,-848,-271,315,132,126,231,493,-141,1,0,34,55,880,1,53298,1
2,28766,30200,31649,52361,37199,-6259,-769,-310,-3733,442,-461,235,491,-137,1,0,34,55,920,1,53298,1
2,28695,30234,31612,52362,37208,-4468,-592,354,2089,-98,5,229,491,-133,1,0,34,55,960,1,53298,1
1,28701,30264,31597,52363,0,-3572,-1192,99,1720,-505,358,238,486,-132,1,0,34,56,0,1,53298,1
2,28703,30063,31599,52364,36521,-3428,-1797,148,621,213,189,227,499,-139,1,0,34,56,40,1,53298,1
2,28767,30315,31642,52365,36530,-6853,560,-1640,-3582,409,-352,242,498,-140,1,0,34,56,80,1,53298,1
2,28751,30282,31643,52366,36539,-5329,-817,308,222,227,-280,232,492,-132,1,0,34,56,120,1,53298,1
2,28717,30328,31595,52367,36548,-3923,-800,204,2338,-485,362,228,484,-130,1,0,34,56,160,1,53298,1
2,28705,30319,31588,52368,36556,-3304,-1792,56,620,-160,258,223,503,-127,1,0,34,56,200,1,53298,1
2,28692,30150,31605,52369,36564,-4898,-251,-1193,-1446,262,-87,237,489,-125,1,0,34,56,240,1,53298,1
2,28766,29858,31624,52370,36574,-5543,-717,229,-1636,400,-276,228,494,-138,1,0,34,56,280,1,53298,1
2,28739,29935,31595,52371,36583,-4311,-675,123,1749,-317,164,228,494,-126,1,0,34,56,320,1,53298,1
2,28740,29927,31587,52372,36592,-3573,-1461,-70,1032,-281,220,228,490,-128,1,0,34,56,360,1,53298,1
2,28635,30225,31591,52373,36602,-3804,-1362,211,1590,391,310,227,493,-125,1,0,34,56,400,1,53298,1
2,28625,29987,31619,52374,36611,-6667,159,-519,3296,686,1324,221,481,-131,1,0,34,56,440,1,53298,1
2,28607,30301,31622,52375,36620,-4519,-1146,-296,1424,-272,13,218,496,-122,1,0,34,56,480,1,53298,1
2,28639,30128,31618,52376,36630,-4312,-872,-82,-177,-365,-321,219,489,-125,1,0,34,56,520,1,53298,1
2,28713,30022,31627,52377,36639,-4739,-887,-269,-475,70,127,218,496,-126,1,0,34,56,560,1,53298,1
2,28715,30014,31621,52378,36648,-4623,-767,-105,291,-48,120,219,499,-137,1,0,34,56,600,1,53298,1
2,28809,30446,31637,52379,36658,-4648,-962,-67,-231,-132,327,219,491,-131,1,0,34,56,640,1,53298,1
2,29335,30674,31647,52380,36668,-4550,-864,62,-113,-444,917,223,493,-131,1,0,34,56,680,1,53298,1
2,29337,30642,31655,52381,36678,-4718,-413,-785,-1169,-204,127,221,501,-129,1,0,34,56,720,1,53298,1
2,29204,30589,31657,52382,36689,-4538,-903,2,-953,-28,-316,227,487,-125,1,0,34,56,760,1,53298,1
2,29138,30335,31662,52383,36699,-4791,-334,-555,-859,-17,-208,226,494,-138,1,0,34,56,800,1,53298,1
2,29148,30430,31654,52384,36709,-4665,-1207,-66,-1641,149,-529,227,495,-135,1,0,34,56,840,1,53298,1
2,29093,30456,31646,52385,36719,-4440,-840,188,-174,18,-354,233,491,-127,1,0,34,56,880,1,53298,1
2,28964,30465,31651,52386,36729,-4950,-455,-628,-1181,-94,-302,235,497,-135,1,0,34,56,920,1,53298,1
2,29001,30347,31649,52387,36737,-4669,-1035,4,-813,47,-281,228,488,-132,1,0,34,56,960,1,53298,1
1,28927,30435,31645,52388,0,-4348,-850,63,520,48,-77,227,499,-135,1,0,34,57,0,0,53298,1
2,28795,30290,31648,52389,36062,-4216,-1112,-11,395,160,4,224,498,-138,1,0,34,57,40,0,53298,1
2,28835,30605,31660,52390,36070,-5604,-175,-1002,-2390,40,-329,232,494,-130,1,0,34,57,80,0,53298,1
2,28794,30792,31622,52391,36079,-4932,-941,78,191,202,-136,221,489,-129,1,0,34,57,120,0,53298,1
2,28780,30029,31618,52392,36088,-3913,-902,401,1991,-125,396,232,488,-134,1,0,34,57,160,0,53298,1
2,28760,30267,31620,52393,36096,-3604,-1486,60,-39,-231,332,231,491,-129,1,0,34,57,200,0,53298,1
2,28687,30297,31649,52394,36105,-4046,-738,-322,379,233,122,222,482,-140,1,0,34,57,240,0,53298,1
2,28850,30089,31678,52395,36113,-6714,-746,-720,-4350,593,-636,228,500,-126,1,0,34,57,280,0,53298,1
2,28898,30653,31652,52396,36122,-4573,-559,521,2728,109,9,231,493,-133,1,0,34,57,320,0,53298,1
2,28800,30649,31609,52397,36131,-3536,-1081,210,2296,-629,475,224,494,-138,1,0,34,57,360,0,53298,1
2,28624,30622,31619,52398,36140,-2985,-2352,582,1280,-36,404,227,485,-135,1,0,34,57,400,0,53298,1
2,28909,30289,31676,52399,36149,-7980,532,-2560,-6568,252,-540,236,490,-136,1,0,34,57,440,0,53298,1
2,28851,30075,31647,52400,36158,-5546,-900,427,1381,298,-397,224,498,-126,1,0,34,57,480,0,53298,1
2,28829,30210,31613,52401,36167,-3750,-624,485,4208,-548,585,220,492,-136,1,0,34,57,520,0,53298,1
2,28760,30198,31600,52402,36176,-3202,-1783,152,176,-516,498,228,492,-134,1,0,34,57,560,0,53298,1
2,28766,30387,31621,52403,36185,-3812,-731,-454,-1123,161,53,228,488,-138,1,0,34,57,600,0,53298,1
2,28882,29915,31655,52404,36193,-7228,-401,-701,-4308,809,-564,227,489,-127,1,0,34,57,640,0,53298,1
2,28863,29786,31622,52405,36201,-4720,-612,385,2407,60,-28,230,494,-132,1,0,34,57,680,0,53298,1
2,28847,29824,31594,52406,36209,-3673,-1123,-45,1868,-550,325,231,493,-137,1,0,34,57,720,0,53298,1
2,28741,29806,31610,52407,36218,-3522,-1891,176,563,123,187,225,489,-137,1,0,34,57,760,0,53298,1
2,28833,30202,31648,52408,36227,-6643,251,-983,-2712,344,-55,220,490,-134,1,0,34,57,800,0,53298,1
2,28830,30320,31637,52409,36236,-4809,-991,162,517,-195,-137,224,504,-124,1,0,34,57,840,0,53298,1
2,28766,30263,31613,52410,36245,-4015,-948,-133,1072,-363,170,224,488,-136,1,0,34,57,880,0,53298,1
2,28752,30065,31619,52411,36254,-4362,-1045,-214,-88,51,87,230,484,-132,1,0,34,57,920,0,53298,1
2,28806,29717,31631,52412,36264,-5566,-721,-379,-2802,-38,-350,227,493,-141,1,0,34,57,960,0,53298,1
1,28822,29833,31609,52413,0,-4474,-758,316,1399,10,46,233,493,-133,1,0,34,58,0,1,53298,1
2,28831,29866,31598,52414,35604,-3718,-1134,114,1378,-275,326,222,488,-138,1,0,34,58,40,1,53298,1
2,28704,30232,31602,52415,35614,-3176,-1998,526,1601,253,279,229,491,-135,1,0,34,58,80,1,53298,1
2,28818,30375,31652,52416,35623,-6906,270,-1922,-4741,362,-522,234,498,-128,1,0,34,58,120,1,53298,1
2,28797,30328,31643,52417,35633,-5394,-753,352,677,352,-323,231,489,-139,1,0,34,58,160,1,53298,1
2,28787,30355,31614,52418,35642,-3943,-763,216,2627,-481,372,229,495,-131,1,0,34,58,200,1,53298,1
2,28639,30385,31602,52419,35651,-3051,-1914,197,1299,-191,396,227,487,-129,1,0,34,58,240,1,53298,1
2,28774,29900,31618,52420,35659,-6331,964,-2478,-3424,54,-198,230,490,-124,1,0,34,58,280,1,53298,1
2,28805,29710,31631,52421,35668,-5600,-955,295,-1369,296,-486,229,499,-123,1,0,34,58,320,1,53298,1
2,28754,29802,31594,52422,35678,-4005,-404,519,3556,-363,420,224,492,-134,1,0,34,58,360,1,53298,1
2,28733,29797,31575,52423,35687,-3240,-1571,138,1117,-591,480,225,491,-131,1,0,34,58,400,1,53298,1
2,28689,29948,31601,52424,35697,-3446,-1360,85,43,126,194,225,493,-133,1,0,34,58,440,1,53298,1
2,28838,30099,31661,52425,35706,-7647,-620,-1117,-6115,669,-787,236,494,-128,1,0,34,58,480,1,53298,1
2,28804,30053,31628,52426,35716,-4889,-530,580,2867,263,-117,221,491,-129,1,0,34,58,520,1,53298,1
2,28759,30054,31588,52427,35725,-3502,-1026,275,3118,-671,560,223,483,-133,1,0,34,58,560,1,53298,1
2,28580,30183,31589,52428,35734,-2677,-2278,545,1688,-23,498,226,488,-132,1,0,34,58,600,1,53298,1
2,28823,29934,31648,52429,35743,-7749,1096,-3134,-6745,293,-535,222,490,-126,1,0,34,58,640,1,53298,1
2,28788,29870,31650,52430,35753,-5579,-972,514,667,462,-439,221,495,-129,1,0,34,58,680,1,53298,1
2,28735,29963,31603,52431,35763,-3887,-522,413,3784,-515,490,230,492,-140,1,0,34,58,720,1,53298,1
2,28492,29976,31589,52432,35772,-2704,-2133,493,2033,-303,529,225,485,-123,1,0,34,58,760,1,53298,1
2,28780,30031,31645,52433,35783,-6217,1177,-2972,-4312,-56,-202,221,499,-121,1,0,34,58,800,1,53298,1
2,28819,29959,31655,52434,35792,-5321,-1036,498,-1891,472,-571,233,495,-127,1,0,34,58,840,1,53298,1
2,28720,29893,31610,52435,35801,-4068,-287,556,3486,-248,301,231,497,-133,1,0,34,58,880,1,53298,1
2,28682,29901,31591,52436,35811,-3059,-1763,213,1539,-482,411,227,487,-137,1,0,34,58,920,1,53298,1
2,28565,30038,31615,52437,35820,-3859,-760,-634,-498,125,112,229,499,-137,1,0,34,58,960,1,53298,1
1,28756,30023,31668,52438,0,-6560,-895,-155,-4933,631,-596,232,494,-136,1,0,34,59,0,0,53298,1
2,28724,30052,31618,52439,35145,-4456,-467,550,2700,6,-10,224,488,-128,1,0,34,59,40,0,53298,1
2,28637,30030,31588,52440,35153,-3261,-1321,156,2358,-565,441,243,493,-131,1,0,34,59,80,0,53298,1
2,28437,29970,31585,52441,35162,-3097,-2281,382,1951,100,386,223,497,-135,1,0,34,59,120,0,53298,1
2,28738,29974,31651,52442,35170,-7751,-818,-1100,-7031,602,-555,227,487,-135,1,0,34,59,160,0,53298,1
2,28726,29939,31614,52443,35180,-4618,-724,610,2385,-74,-273,236,498,-138,1,0,34,59,200,0,53298,1
2,28684,29902,31583,52444,35190,-3486,-1076,125,2557,-671,443,231,495,-139,1,0,34,59,240,0,53298,1
2,28449,29882,31581,52445,35199,-2942,-2244,526,2059,164,461,229,493,-129,1,0,34,59,280,0,53298,1
2,28674,29816,31632,52446,35207,-8316,34,-1875,-6221,498,-215,232,498,-128,1,0,34,59,320,0,53298,1
2,28638,29807,31604,52447,35215,-4828,-1032,589,1609,-217,-404,220,486,-128,1,0,34,59,360,0,53298,1
2,28637,29812,31578,52448,35224,-3683,-906,103,2300,-596,329,229,495,-131,1,0,34,59,400,0,53298,1
2,28435,30014,31575,52449,35233,-2945,-2076,528,2374,210,420,223,485,-135,1,0,34,59,440,0,53298,1
2,28681,29925,31636,52450,35242,-8379,379,-2131,-5309,548,-12,224,490,-128,1,0,34,59,480,0,53298,1
2,28630,29908,31609,52451,35251,-4817,-1181,559,1074,-350,-537,224,490,-126,1,0,34,59,520,0,53298,1
2,28644,29907,31585,52452,35260,-3739,-840,107,1899,-472,215,230,492,-130,1,0,34,59,560,0,53298,1
2,28500,29896,31577,52453,35268,-3140,-1939,415,1810,312,353,227,493,-137,1,0,34,59,600,0,53298,1
2,28700,29990,31628,52454,35277,-8005,662,-1997,-3808,609,200,230,492,-130,1,0,34,59,640,0,53298,1
2,28688,29823,31603,52455,35286,-4686,-1218,468,539,-461,-594,229,499,-137,1,0,34,59,680,0,53298,1
2,28703,29832,31582,52456,35295,-3777,-851,97,1514,-406,149,228,490,-124,1,0,34,59,720,0,53298,1
2,28640,30027,31576,52457,35303,-3230,-1789,444,2015,346,375,219,487,-129,1,0,34,59,760,0,53298,1
2,28726,29882,31625,52458,35311,-7828,670,-2034,-3096,558,340,229,489,-129,1,0,34,59,800,0,53298,1
2,28678,29946,31600,52459,35320,-4596,-1227,455,138,-594,-686,230,492,-130,1,0,34,59,840,0,53298,1
2,28708,29956,31577,52460,35329,-3769,-828,106,1123,-359,86,230,490,-142,1,0,34,59,880,0,53298,1
2,28617,30033,31585,52461,35339,-3466,-1690,307,1454,403,342,227,499,-117,1,0,34,59,920,0,53298,1
2,28756,30120,31619,52462,35347,-7416,642,-1869,-2436,439,387,222,490,-122,1,0,34,59,960,0,53298,1
1,28731,30029,31593,52463,0,-4509,-1202,419,33,-536,-694,227,495,-133,1,0,35,0,0,0,53298,1
2,28754,30029,31573,52464,34687,-3745,-870,85,1036,-310,80,226,482,-136,1,0,35,0,40,0,53298,1
2,28631,30072,31585,52465,34695,-3516,-1706,217,1700,386,422,214,488,-128,1,0,35,0,80,0,53298,1
2,28844,29967,31619,52466,34704,-6442,-480,-1343,-4044,232,-26,225,489,-125,1,0,35,0,120,0,53298,1
2,28814,29838,31593,52467,34713,-4562,-957,347,137,-452,-572,234,492,-132,1,0,35,0,160,0,53298,1
2,28883,29854,31577,52468,34722,-3745,-962,150,1404,-415,220,222,486,-130,1,0,35,0,200,0,53298,1
2,28845,29853,31580,52469,34732,-3580,-1618,-20,-137,91,173,220,494,-126,1,0,35,0,240,0,53298,1
2,28795,29886,31604,52470,34741,-5137,274,-1064,150,434,52,222,498,-140,1,0,35,0,280,0,53298,1
2,28860,29891,31619,52471,34749,-5392,-879,68,-2451,259,-443,229,489,-123,1,0,35,0,320,0,53298,1
2,28826,29879,31585,52472,34758,-4087,-630,327,1849,-206,104,219,489,-125,1,0,35,0,360,0,53298,1
2,28716,29870,31570,52473,34766,-2938,-1845,405,2244,-254,378,226,496,-132,1,0,35,0,400,0,53298,1
2,28663,30378,31623,52474,34774,-5003,627,-1838,-573,8,180,225,483,-127,1,0,35,0,440,0,53298,1
2,28725,30336,31637,52475,34783,-4777,-1135,453,-3330,297,-473,224,506,-126,1,0,35,0,480,0,53298,1
2,28657,30261,31602,52476,34792,-4036,-379,425,2114,-242,93,226,492,-134,1,0,35,0,520,0,53298,1
2,28582,30253,31589,52477,34800,-2919,-1812,382,2389,-316,423,231,493,-139,1,0,35,0,560,0,53298,1
2,28677,30279,31636,52478,34809,-5939,1271,-2145,-1118,342,353,226,490,-140,1,0,35,0,600,0,53298,1
2,28704,29834,31641,52479,34819,-4749,-1268,415,-2815,-52,-568,231,493,-139,1,0,35,0,640,0,53298,1
2,28670,29872,31589,52480,34828,-4086,-451,355,1538,-261,-14,229,489,-127,1,0,35,0,680,0,53298,1
2,28668,29828,31580,52481,34838,-3309,-1656,126,1091,-244,188,222,492,-128,1,0,35,0,720,0,53298,1
2,28600,29855,31616,52482,34846,-4072,-1282,-162,817,526,276,226,486,-134,1,0,35,0,760,0,53298,1
2,28709,29873,31632,52483,34856,-5605,-1040,-312,-3969,214,-355,234,496,-136,1,0,35,0,800,0,53298,1
2,28698,30028,31604,52484,34866,-4144,-638,400,1561,-262,-173,231,495,-135,1,0,35,0,840,0,53298,1
2,28711,30162,31586,52485,34875,-3281,-1388,99,1542,-460,330,224,488,-138,1,0,35,0,880,0,53298,1
2,28666,30172,31602,52486,34885,-3723,-1954,157,907,297,321,221,491,-133,1,0,35,0,920,0,53298,1
2,29338,30153,31645,52487,34896,-6248,-1085,-477,-5743,242,-489,216,502,-132,1,0,35,0,960,0,53298,1
1,29394,30310,31603,52488,0,-4366,-515,625,2080,-72,-106,231,491,-133,1,0,35,1,0,1,53298,1
2,29136,30054,31575,52489,34230,-3418,-1150,184,2129,-658,507,222,490,-138,1,0,35,1,40,1,53298,1
2,28752,29978,31570,52490,34240,-3087,-2034,111,283,21,347,230,484,-136,1,0,35,1,80,1,53298,1
2,28726,29899,31622,52491,34249,-7155,933,-2370,-3800,442,-398,227,487,-141,1,0,35,1,120,1,53298,1
2,28724,29887,31619,52492,34258,-5511,-828,416,407,403,-398,225,495,-129,1,0,35,1,160,1,53298,1
2,28697,29845,31569,52493,34267,-3880,-588,370,3464,-433,505,227,495,-133,1,0,35,1,200,1,53298,1
2,28430,30069,31555,52494,34276,-2543,-2124,691,3082,-201,557,221,497,-129,1,0,35,1,240,1,53298,1
2,28662,30313,31616,52495,34286,-7085,1614,-3439,-5084,148,-262,230,490,-124,1,0,35,1,280,1,53298,1
2,28659,30319,31627,52496,34296,-5331,-1191,539,-1295,263,-625,226,492,-130,1,0,35,1,320,1,53298,1
2,28628,30284,31580,52497,34306,-4003,-324,475,3446,-317,356,221,497,-137,1,0,35,1,360,1,53298,1
2,28533,30253,31571,52498,34316,-2732,-1974,494,2358,-271,439,228,490,-134,1,0,35,1,400,1,53298,1
2,28656,30135,31623,52499,34325,-5355,1049,-2057,-2184,186,49,220,494,-124,1,0,35,1,440,1,53298,1
2,28729,30238,31639,52500,34335,-4835,-1128,477,-3431,328,-593,225,495,-135,1,0,35,1,480,1,53298,1
2,28712,30277,31593,52501,34345,-4093,-311,489,2538,-127,93,221,493,-131,1,0,35,1,520,1,53298,1
2,28598,30286,31580,52502,34354,-2958,-1777,334,2099,-368,335,227,491,-131,1,0,35,1,560,1,53298,1
2,28541,30279,31596,52503,34364,-4015,-1105,-614,208,291,257,226,496,-126,1,0,35,1,600,1,53298,1
2,28715,30182,31635,52504,34374,-5407,-1140,-31,-4286,331,-324,232,490,-132,1,0,35,1,640,1,53298,1
2,28733,30201,31597,52505,34384,-4071,-571,450,1769,-311,-179,225,497,-133,1,0,35,1,680,1,53298,1
2,28691,30246,31576,52506,34394,-3113,-1559,242,2010,-434,337,229,493,-137,1,0,35,1,720,1,53298,1
2,28562,30244,31604,52507,34403,-3837,-1859,-235,1798,405,574,221,491,-127,1,0,35,1,760,1,53298,1
2,28657,30091,31633,52508,34413,-5038,-930,-439,-2892,374,177,221,493,-127,1,0,35,1,800,1,53298,1
2,28694,30004,31601,52509,34423,-4015,-868,293,628,-727,-460,227,495,-125,1,0,35,1,840,1,53298,1
2,29270,30012,31610,52510,34433,-3344,-1292,353,-113,-514,1054,222,496,-126,1,0,35,1,880,1,53298,1
2,29310,30579,31627,52511,34444,-5674,-512,-421,1812,391,1491,218,502,-132,1,0,35,1,920,1,53298,1
2,29318,30522,31622,52512,34456,-5026,-2004,738,2247,-1294,809,224,496,-128,1,0,35,1,960,1,53298,1
1,29398,30386,31628,52513,0,-4253,474,-1147,63,-1281,-429,212,504,-126,1,0,35,2,0,1,53298,1
2,29117,29870,31612,52514,33775,-4261,-439,-437,-1,-595,-50,218,484,-124,1,0,35,2,40,1,53298,1
2,29048,29886,31632,52515,33788,-4535,-529,-349,192,293,-25,209,499,-119,1,0,35,2,80,1,53298,1
2,28976,30547,31604,52516,33801,-4370,235,-771,1665,716,-140,219,499,-121,1,0,35,2,120,1,53298,1
2,28752,30155,31612,52517,33814,-5755,-4559,2130,-282,345,317,214,494,-124,1,0,35,2,160,1,53298,1
2,29217,30083,31630,52518,33827,-4509,689,-1149,-1873,-598,-25,219,493,-129,1,0,35,2,200,1,53298,1
2,29247,30041,31624,52519,33841,-4003,-473,-357,-439,-190,-356,220,496,-120,1,0,35,2,240,1,53298,1
2,29235,30108,31605,52520,33854,-5211,-1865,770,-2020,528,-52,222,500,-122,1,0,35,2,280,1,53298,1
2,29237,30287,31607,52521,33868,-4669,-623,-321,-619,-599,170,220,490,-122,1,0,35,2,320,1,53298,1
2,28988,29913,31658,52522,33883,-4329,-417,-224,1216,-640,244,217,493,-133,1,0,35,2,360,1,53298,1
2,29215,30470,31768,52523,33897,-4658,-733,-139,23,-178,146,217,495,-131,1,0,35,2,400,1,53298,1
2,29102,30298,31860,52524,33912,-4925,-704,-58,747,-758,206,214,494,-122,1,0,35,2,440,1,53298,1
2,29582,30301,32183,52525,33928,-4260,-220,-404,639,-669,227,221,495,-133,1,0,35,2,480,1,53298,1
2,29656,30692,32608,52526,33943,-4343,-489,-510,-53,461,-337,222,494,-128,1,0,35,2,520,1,53298,1
2,29592,30415,32440,52527,33957,-5608,-2672,1223,102,674,-213,221,491,-113,1,0,35,2,560,1,53298,1
2,29499,30556,32465,52528,33971,-4417,3,-472,-313,-390,204,214,502,-122,1,0,35,2,600,1,53298,1
2,29428,30376,32386,52529,33987,-4346,-488,-345,551,-273,83,216,494,-116,1,0,35,2,640,1,53298,1
2,29383,30521,32349,52530,34000,-4536,-508,-411,-357,462,-237,228,498,-126,1,0,35,2,680,1,53298,1
2,29235,30668,32085,52531,34014,-4218,430,-964,1008,1221,-261,215,483,-125,1,0,35,2,720,1,53298,1
2,29460,30771,32274,52532,34026,-6275,-5502,3003,42,318,565,211,489,-127,1,0,35,2,760,1,53298,1
2,29727,30749,32306,52533,34039,-4394,1173,-1576,-1160,-1100,3,225,491,-127,1,0,35,2,800,1,53298,1
2,29682,30704,32261,52534,34054,-3884,-30,-598,1525,-802,179,219,495,-129,1,0,35,2,840,1,53298,1
2,29559,30760,32169,52535,34067,-4375,178,-978,-1005,1292,-373,220,492,-124,1,0,35,2,880,1,53298,1
2,29605,30766,32255,52536,34080,-6108,-4854,2678,1416,943,549,216,484,-124,1,0,35,2,920,1,53298,1
2,29720,30648,32283,52537,34093,-4369,1083,-810,-1282,-778,-277,215,485,-121,1,0,35,2,960,1,53298,1
1,29723,30687,32282,52538,0,-3675,-89,-1082,1136,-530,150,222,498,-116,1,0,35,3,0,0,53298,1
2,29708,30730,32161,52539,33317,-4493,-210,-717,-1283,688,-231,219,493,-127,1,0,35,3,40,0,53298,1
2,29559,30712,32155,52540,33329,-6135,-4392,2386,668,446,483,215,499,-127,1,0,35,3,80,0,53298,1
2,29636,30670,32185,52541,33342,-4441,742,-1055,-379,-685,-190,220,492,-124,1,0,35,3,120,0,53298,1
2,29637,30690,32168,52542,33355,-3955,-157,-745,864,-367,75,222,494,-132,1,0,35,3,160,0,53298,1
2,29585,30769,32110,52543,33367,-4523,-446,-589,-1164,541,-168,220,498,-132,1,0,35,3,200,0,53298,1
2,29507,30733,32046,52544,33379,-5801,-3556,1890,466,380,238,220,494,-122,1,0,35,3,240,0,53298,1
2,29477,30643,32085,52545,33391,-4459,422,-831,-137,-569,-20,226,494,-126,1,0,35,3,280,0,53298,1
2,29489,30673,32071,52546,33403,-4121,-397,-651,500,-251,64,217,485,-121,1,0,35,3,320,0,53298,1
2,29493,30759,32021,52547,33415,-4502,-349,-575,-603,437,-97,214,496,-116,1,0,35,3,360,0,53298,1
2,29492,30750,32041,52548,33426,-5521,-3577,1783,126,53,209,217,499,-115,1,0,35,3,400,0,53298,1
2,29497,30687,32079,52549,33439,-4378,509,-1013,-15,-555,81,220,494,-122,1,0,35,3,440,0,53298,1
2,29523,30716,32077,52550,33453,-4184,-416,-506,342,-265,24,224,490,-134,1,0,35,3,480,0,53298,1
2,29509,30770,32026,52551,33465,-4462,-251,-760,-354,587,-130,220,486,-124,1,0,35,3,520,0,53298,1
2,29511,30752,32034,52552,33476,-5705,-3614,1883,292,237,184,215,497,-123,1,0,35,3,560,0,53298,1
2,29486,30718,32027,52553,33488,-4437,328,-911,-204,-377,46,218,494,-130,1,0,35,3,600,0,53298,1
2,29474,30723,32007,52554,33500,-4285,-482,-484,236,-113,-59,215,491,-117,1,0,35,3,640,0,53298,1
2,29443,30747,31995,52555,33511,-4825,-629,31,-318,356,3,216,496,-130,1,0,35,3,680,0,53298,1
2,29553,30690,32028,52556,33523,-4771,-1327,359,-283,-517,197,223,495,-121,1,0,35,3,720,0,53298,1
2,29519,30696,32020,52557,33536,-4220,17,-747,584,-376,172,215,495,-129,1,0,35,3,760,0,53298,1
2,29542,30750,32045,52558,33548,-4397,-448,-411,-396,104,-128,222,494,-124,1,0,35,3,800,0,53298,1
2,29464,30720,31993,52559,33560,-4640,-62,-489,418,932,-161,222,500,-124,1,0,35,3,840,0,53298,1
2,29423,30681,32025,52560,33572,-4998,-2493,1318,-227,-315,207,209,499,-123,1,0,35,3,880,0,53298,1
2,29451,30663,32029,52561,33584,-4248,307,-1096,147,-365,139,221,491,-123,1,0,35,3,920,0,53298,1
2,29462,30658,32023,52562,33597,-4399,-436,-269,-83,-129,-78,206,484,-132,1,0,35,3,960,0,53298,1
1,29488,30630,31976,52563,0,-4774,-373,-150,-18,584,-43,212,498,-118,1,0,35,4,0,0,53298,1
2,29503,30653,32004,52564,32859,-4781,-1475,579,-246,-520,170,221,493,-127,1,0,35,4,40,0,53298,1
2,29566,30659,32014,52565,32872,-4240,14,-790,386,-356,188,217,495,-125,1,0,35,4,80,0,53298,1
2,29585,30674,32009,52566,32884,-4452,-505,-283,-221,8,-96,219,497,-125,1,0,35,4,120,0,53298,1
2,29539,30721,31974,52567,32897,-4681,-184,-334,252,725,-131,215,499,-115,1,0,35,4,160,0,53298,1
2,29510,30691,32006,52568,32909,-4960,-2183,952,-158,-362,220,216,494,-128,1,0,35,4,200,0,53298,1
2,29552,30706,32017,52569,32922,-4262,212,-925,113,-353,171,217,495,-129,1,0,35,4,240,0,53298,1
2,29560,30710,31996,52570,32935,-4405,-457,-308,-210,-60,-111,219,493,-125,1,0,35,4,280,0,53298,1
2,29535,30759,31960,52571,32946,-4519,-160,-769,104,801,-156,219,489,-117,1,0,35,4,320,0,53298,1
2,29437,30705,31991,52572,32958,-5220,-3361,1844,81,-66,187,216,492,-124,1,0,35,4,360,0,53298,1
2,29495,30722,32007,52573,32970,-4409,361,-1088,-211,-476,154,210,500,-118,1,0,35,4,400,0,53298,1
2,29495,30710,31998,52574,32983,-4312,-448,-378,110,-185,-53,224,498,-122,1,0,35,4,440,0,53298,1
2,29476,30643,31972,52575,32995,-4661,-453,-325,-197,493,-57,218,498,-126,1,0,35,4,480,0,53298,1
2,29527,30653,32000,52576,33007,-4889,-2080,831,-89,-348,175,222,496,-122,1,0,35,4,520,0,53298,1
2,29641,30665,32015,52577,33020,-4332,119,-765,340,-365,194,219,499,-133,1,0,35,4,560,0,53298,1
2,29616,30638,31997,52578,33033,-4398,-484,-337,-188,-55,-77,213,495,-121,1,0,35,4,600,0,53298,1
2,29572,30451,31953,52579,33045,-4603,-218,-436,171,644,-137,216,486,-124,1,0,35,4,640,0,53298,1
2,29574,30235,31992,52580,33057,-5015,-2332,1086,-77,-378,235,206,498,-110,1,0,35,4,680,0,53298,1
2,29590,30213,31992,52581,33069,-4280,195,-928,115,-393,173,209,493,-133,1,0,35,4,720,0,53298,1
2,29620,30111,31997,52582,33082,-4382,-464,-312,-209,-116,-93,215,491,-133,1,0,35,4,760,0,53298,1
2,29601,30373,31953,52583,33094,-4493,-204,-738,11,726,-146,221,493,-127,1,0,35,4,800,0,53298,1
2,29508,30316,31967,52584,33106,-5091,-2845,1497,145,-161,193,211,493,-127,1,0,35,4,840,0,53298,1
2,29607,30240,31974,52585,33118,-4330,222,-964,-87,-414,191,220,496,-130,1,0,35,4,880,0,53298,1
2,29450,30263,31980,52586,33129,-4414,-493,-257,86,-135,-46,210,498,-126,1,0,35,4,920,0,53298,1
2,29449,30298,31965,52587,33141,-4912,-916,273,-11,355,4,213,493,-123,1,0,35,4,960,0,53298,1
1,29498,30252,31989,52588,0,-4651,-859,122,5,-540,193,205,489,-113,1,0,35,5,0,0,53298,1
2,29568,30278,31989,52589,32403,-4291,-260,-561,337,-390,173,208,488,-114,1,0,35,5,40,0,53298,1
2,29595,30150,32000,52590,32416,-4417,-456,-405,-205,65,-83,218,490,-122,1,0,35,5,80,0,53298,1
2,29528,30273,31947,52591,32429,-4818,-632,308,304,696,-174,212,498,-116,1,0,35,5,120,0,53298,1
2,29541,30278,31991,52592,32442,-4727,-754,187,-289,-525,208,221,493,-119,1,0,35,5,160,0,53298,1
2,29626,30404,31994,52593,32456,-4138,-240,-747,266,-397,159,223,495,-121,1,0,35,5,200,0,53298,1
2,29586,30366,31965,52594,32470,-4429,-433,-386,-452,218,-193,213,497,-127,1,0,35,5,240,0,53298,1
2,29498,30426,31925,52595,32482,-4710,-230,-296,356,1122,-231,224,492,-124,1,0,35,5,280,0,53298,1
2,29415,30426,31948,52596,32494,-4999,-2380,1307,-247,-270,226,216,490,-122,1,0,35,5,320,0,53298,1
2,29580,30419,31941,52597,32507,-4290,201,-1095,61,-290,146,212,494,-124,1,0,35,5,360,0,53298,1
2,29586,30426,31936,52598,32520,-4451,-476,-258,-214,-45,-123,225,501,-133,1,0,35,5,400,0,53298,1
2,29530,30472,31942,52599,32532,-5014,-1071,421,-165,482,4,216,484,-128,1,0,35,5,440,0,53298,1
2,29591,30410,31991,52600,32545,-4655,-571,-11,-134,-680,187,216,490,-122,1,0,35,5,480,0,53298,1
2,29667,30380,31974,52601,32559,-4171,-151,-691,571,-402,167,211,501,-123,1,0,35,5,520,0,53298,1
2,29713,30423,31965,52602,32572,-4436,-458,-417,-526,214,-153,224,486,-122,1,0,35,5,560,0,53298,1
2,29576,30379,31929,52603,32584,-5252,-1765,930,417,654,-82,219,493,-117,1,0,35,5,600,0,53298,1
2,29629,30341,31952,52604,32598,-4678,100,-228,-308,-533,129,220,494,-118,1,0,35,5,640,0,53298,1
2,29582,30343,31947,52605,32611,-4124,-411,-682,578,-416,153,220,504,-128,1,0,35,5,680,0,53298,1
2,29600,30360,31932,52606,32624,-4457,-439,-449,-506,299,-152,214,490,-126,1,0,35,5,720,0,53298,1
2,29538,30323,31917,52607,32635,-4830,-536,140,788,1014,-163,215,507,-119,1,0,35,5,760,0,53298,1
2,29515,30260,31953,52608,32648,-4916,-1742,1027,-437,-608,254,218,500,-126,1,0,35,5,800,0,53298,1
2,29572,30262,31949,52609,32660,-4085,200,-1187,330,-441,195,218,494,-132,1,0,35,5,840,0,53298,1
2,29580,30290,31930,52610,32672,-4443,-436,-271,-362,-12,-145,216,496,-122,1,0,35,5,880,0,53298,1
2,29523,30294,31893,52611,32683,-4625,-92,-662,263,991,-131,220,484,-124,1,0,35,5,920,0,53298,1
2,29569,30285,31908,52612,32695,-5181,-3295,1931,14,-332,282,217,503,-127,1,0,35,5,960,0,53298,1
1,29558,30258,31926,52613,0,-4343,683,-1287,-16,-554,159,215,497,-113,1,0,35,6,0,1,53298,1
2,29592,30268,31920,52614,31946,-4256,-421,-359,-2,-260,-77,219,489,-127,1,0,35,6,40,1,53298,1
2,29507,30147,31867,52615,31957,-4539,-295,-726,-206,738,-136,212,490,-120,1,0,35,6,80,1,53298,1
2,29426,30165,31877,52616,31968,-5602,-3631,2113,473,208,165,215,493,-125,1,0,35,6,120,1,53298,1
2,29565,30160,31874,52617,31980,-4515,391,-970,-237,-624,137,218,496,-120,1,0,35,6,160,1,53298,1
2,29609,30155,31868,52618,31992,-4128,-410,-601,141,-286,-2,218,488,-130,1,0,35,6,200,1,53298,1
2,29540,30198,31830,52619,32003,-4517,-352,-653,-406,593,-153,220,502,-122,1,0,35,6,240,1,53298,1
2,29494,30185,31858,52620,32013,-5551,-3105,1934,444,539,70,210,488,-118,1,0,35,6,280,1,53298,1
2,29531,30159,31894,52621,32025,-4733,-8,-566,-406,-985,169,212,494,-128,1,0,35,6,320,1,53298,1
2,29626,30157,31884,52622,32037,-3938,-144,-894,523,-632,192,211,495,-131,1,0,35,6,360,1,53298,1
2,29601,30180,31878,52623,32050,-4392,-245,-592,-695,322,-207,213,495,-113,1,0,35,6,400,1,53298,1
2,29471,30169,31861,52624,32060,-4827,-301,-422,952,1406,-228,198,486,-118,1,0,35,6,440,1,53298,1
2,29447,30016,31849,52625,32071,-4952,-2769,2137,-252,-429,369,219,495,-127,1,0,35,6,480,1,53298,1
2,29509,30044,31882,52626,32083,-4351,581,-1565,-101,-566,146,214,492,-122,1,0,35,6,520,1,53298,1
2,29617,30062,31860,52627,32095,-4268,-378,-366,-119,-260,-124,216,490,-120,1,0,35,6,560,1,53298,1
2,29492,30127,31813,52628,32107,-4600,-136,-797,-20,945,-166,222,492,-120,1,0,35,6,600,1,53298,1
2,29489,30133,31834,52629,32118,-5436,-3757,2408,203,413,172,220,498,-122,1,0,35,6,640,1,53298,1
2,29656,30199,31877,52630,32130,-4628,332,-1139,4,-1052,222,214,498,-122,1,0,35,6,680,1,53298,1
2,29756,30160,31859,52631,32142,-4018,-330,-807,114,-353,63,219,489,-119,1,0,35,6,720,1,53298,1
2,29676,30189,31856,52632,32153,-4574,-454,-375,-555,282,-119,215,497,-123,1,0,35,6,760,1,53298,1
2,29660,30164,31856,52633,32165,-5401,-2693,1372,356,388,113,209,489,-113,1,0,35,6,800,1,53298,1
2,29719,30146,31866,52634,32177,-4497,101,-608,302,-462,178,208,496,-132,1,0,35,6,840,1,53298,1
2,29715,30145,31869,52635,32189,-4296,-532,-523,483,-152,174,200,490,-120,1,0,35,6,880,1,53298,1
2,29716,30174,31854,52636,32201,-4554,-463,-503,-242,293,-43,220,484,-124,1,0,35,6,920,1,53298,1
2,29676,30182,31846,52637,32212,-5236,-2517,1377,372,204,140,218,496,-128,1,0,35,6,960,1,53298,1
1,29715,30169,31875,52638,0,-4529,-131,-613,101,-396,239,215,499,-121,1,0,35,7,0,0,53298,1
2,29726,30152,31860,52639,31487,-4371,-566,-384,128,-162,53,216,500,-122,1,0,35,7,40,0,53298,1
2,29773,30158,31852,52640,31499,-4710,-660,-59,-266,172,-65,222,494,-124,1,0,35,7,80,0,53298,1
2,29810,30160,31888,52641,31511,-4736,-1361,334,-196,-301,159,214,492,-124,1,0,35,7,120,0,53298,1
2,29835,30156,31883,52642,31523,-4440,-175,-523,425,-256,167,217,495,-119,1,0,35,7,160,0,53298,1
2,29871,30166,31883,52643,31536,-4493,-538,-287,55,-15,-13,213,497,-127,1,0,35,7,200,0,53298,1
2,29862,30150,31855,52644,31548,-4472,-346,-632,44,510,-159,206,488,-124,1,0,35,7,240,0,53298,1
2,29826,30150,31854,52645,31561,-5355,-2651,1539,101,342,29,217,497,-125,1,0,35,7,280,0,53298,1
2,29786,30157,31878,52646,31572,-4580,-114,-649,-576,-622,173,215,489,-133,1,0,35,7,320,0,53298,1
2,29923,30170,31877,52647,31584,-4246,-379,-563,448,-263,111,214,500,-130,1,0,35,7,360,0,53298,1
2,29986,30174,31870,52648,31596,-4625,-612,-255,-315,189,-89,207,487,-133,1,0,35,7,400,0,53298,1
2,29995,30182,31869,52649,31607,-5053,-1487,689,158,440,-79,216,486,-126,1,0,35,7,440,0,53298,1
2,29911,30202,31886,52650,31619,-4722,-569,35,-377,-581,149,214,494,-122,1,0,35,7,480,0,53298,1
2,29919,30195,31888,52651,31632,-4280,-289,-684,89,-267,70,223,485,-119,1,0,35,7,520,0,53298,1
2,30070,30206,31882,52652,31645,-4541,-559,-261,-206,61,-81,213,499,-129,1,0,35,7,560,0,53298,1
2,30226,30149,31871,52653,31656,-4859,-776,222,354,516,-110,214,494,-110,1,0,35,7,600,0,53298,1
2,30249,30180,31921,52654,31668,-4768,-874,239,-273,-578,207,217,493,-125,1,0,35,7,640,0,53298,1
2,30062,30212,31944,52655,31681,-4243,-168,-712,97,-385,115,222,504,-118,1,0,35,7,680,0,53298,1
2,30261,30214,32028,52656,31693,-4461,-461,-323,-218,-12,-67,212,486,-124,1,0,35,7,720,0,53298,1
2,30226,30036,32026,52657,31704,-4815,-655,215,271,559,-104,211,493,-123,1,0,35,7,760,0,53298,1
2,30220,30044,32051,52658,31716,-4750,-988,274,-288,-603,214,216,500,-118,1,0,35,7,800,0,53298,1
2,30276,30056,32063,52659,31728,-4221,-166,-700,228,-480,179,216,488,-122,1,0,35,7,840,0,53298,1
2,30278,30025,32058,52660,31742,-4422,-400,-364,-196,24,-88,212,496,-116,1,0,35,7,880,0,53298,1
2,30117,29944,31950,52661,31753,-4356,123,-1015,338,1041,-296,214,500,-120,1,0,35,7,920,0,53298,1
2,29952,29959,31920,52662,31764,-5830,-3635,2264,116,398,231,210,488,-126,1,0,35,7,960,0,53298,1
1,30097,29961,31948,52663,0,-4577,-85,-818,-747,-634,85,217,493,-121,1,0,35,8,0,0,53298,1
2,30127,29956,31957,52664,31031,-4088,-235,-630,567,-405,60,215,491,-127,1,0,35,8,40,0,53298,1
2,30144,30027,31924,52665,31042,-4599,-545,-379,-572,340,-90,224,494,-118,1,0,35,8,80,0,53298,1
2,30135,30319,31904,52666,31053,-5028,-1300,630,497,781,-92,208,492,-126,1,0,35,8,120,0,53298,1
2,30205,30218,31949,52667,31064,-4776,-577,313,-487,-630,201,210,482,-114,1,0,35,8,160,0,53298,1
2,30111,30235,31966,52668,31077,-4179,-159,-918,213,-307,123,213,493,-117,1,0,35,8,200,0,53298,1
2,30098,30218,31995,52669,31089,-4565,-548,-235,-346,66,-104,207,495,-113,1,0,35,8,240,0,53298,1
2,29976,30301,31916,52670,31099,-4576,-216,-806,623,956,-222,216,494,-116,1,0,35,8,280,0,53298,1
2,29843,30102,31912,52671,31109,-4954,-2050,990,605,982,-108,218,498,-122,1,0,35,8,320,0,53298,1
2,29896,30166,31918,52672,31119,-4610,-249,197,-139,-684,299,217,497,-125,1,0,35,8,360,0,53298,1
2,29859,30178,31915,52673,31129,-4418,-410,-1124,-191,12,231,212,496,-124,1,0,35,8,400,0,53298,1
2,29939,30203,31947,52674,31140,-5084,-1554,912,-825,-108,-94,211,495,-123,1,0,35,8,440,0,53298,1
2,29920,30151,31984,52675,31151,-4563,-499,-545,-1091,-726,214,218,492,-124,1,0,35,8,480,0,53298,1
2,29849,30158,32032,52676,31163,-4323,-231,-467,891,-286,68,213,491,-133,1,0,35,8,520,0,53298,1
2,29850,30114,32008,52677,31176,-4554,-559,-291,-44,204,-106,223,493,-125,1,0,35,8,560,0,53298,1
2,29817,29976,31923,52678,31187,-4557,-319,-678,707,757,-209,214,488,-124,1,0,35,8,600,0,53298,1
2,29845,29985,31902,52679,31197,-4913,-2351,1682,-185,-183,190,214,494,-124,1,0,35,8,640,0,53298,1
2,29811,30010,31958,52680,31209,-4454,75,-1087,11,-445,249,219,493,-119,1,0,35,8,680,0,53298,1
2,29964,30001,31950,52681,31222,-4352,-437,-322,111,-193,-31,215,495,-125,1,0,35,8,720,0,53298,1
2,29895,29971,31923,52682,31233,-4570,-471,-509,-71,452,-113,215,491,-123,1,0,35,8,760,0,53298,1
2,29837,29922,31867,52683,31244,-4973,-1685,639,405,681,-132,214,496,-132,1,0,35,8,800,0,53298,1
2,29851,29981,31913,52684,31255,-4655,-332,147,-286,-670,229,213,495,-121,1,0,35,8,840,0,53298,1
2,29860,29967,31885,52685,31266,-4331,-408,-891,8,-91,213,211,501,-119,1,0,35,8,880,0,53298,1
2,29930,29942,31895,52686,31277,-4678,-719,-28,-286,16,-106,209,493,-131,1,0,35,8,920,0,53298,1
2,30010,29984,31919,52687,31287,-4997,-1962,784,-186,58,19,206,490,-130,1,0,35,8,960,0,53298,1
1,29888,29990,31929,52688,0,-4584,-186,-537,98,-527,126,207,491,-123,1,0,35,9,0,1,53298,1
2,29908,29998,31926,52689,30574,-4326,-440,-445,-97,-163,-15,210,496,-122,1,0,35,9,40,1,53298,1
2,29948,29973,31915,52690,30585,-4573,-603,-368,-93,245,-104,210,500,-122,1,0,35,9,80,1,53298,1
2,29901,29919,31882,52691,30596,-4823,-675,58,385,710,-158,204,484,-128,1,0,35,9,120,1,53298,1
2,29980,29937,31926,52692,30606,-4849,-1140,835,-472,-535,252,215,495,-125,1,0,35,9,160,1,53298,1
2,29925,29925,31940,52693,30618,-4383,-64,-947,116,-365,229,217,495,-129,1,0,35,9,200,1,53298,1
2,29919,29924,31931,52694,30630,-4520,-551,-165,-152,-141,-34,216,494,-124,1,0,35,9,240,1,53298,1
2,29960,29910,31908,52695,30641,-4568,-452,-418,115,452,-137,215,491,-131,1,0,35,9,280,1,53298,1
2,30015,29937,31950,52696,30653,-4857,-1819,856,-84,-357,153,220,500,-110,1,0,35,9,320,1,53298,1
2,29987,29947,32000,52697,30665,-4434,76,-743,-98,-389,130,212,482,-126,1,0,35,9,360,1,53298,1
2,29990,29940,31985,52698,30676,-4385,-440,-305,-94,-188,-44,215,491,-125,1,0,35,9,400,1,53298,1
2,30117,29921,31939,52699,30689,-4490,-395,-614,124,507,-132,217,499,-125,1,0,35,9,440,1,53298,1
2,29980,29902,31959,52700,30700,-5237,-2079,1210,411,581,-14,219,499,-119,1,0,35,9,480,1,53298,1
2,29912,29899,31946,52701,30711,-4672,-178,-294,-772,-517,125,215,491,-121,1,0,35,9,520,1,53298,1
2,30040,29900,31925,52702,30723,-4189,-382,-729,332,-210,96,209,497,-127,1,0,35,9,560,1,53298,1
2,30171,29897,31946,52703,30735,-4659,-664,-172,-292,148,-69,211,481,-125,1,0,35,9,600,1,53298,1
2,30176,29886,31906,52704,30746,-4791,-811,102,335,552,-128,213,493,-121,1,0,35,9,640,1,53298,1
2,30222,29911,31946,52705,30757,-4738,-841,385,-287,-544,212,218,492,-126,1,0,35,9,680,1,53298,1
2,30131,29911,31954,52706,30769,-4307,-182,-783,11,-217,137,222,494,-126,1,0,35,9,720,1,53298,1
2,30062,29909,31955,52707,30781,-4585,-637,-167,-130,1,-61,220,496,-122,1,0,35,9,760,1,53298,1
2,30110,29883,31898,52708,30792,-4498,-275,-652,382,625,-174,210,484,-134,1,0,35,9,800,1,53298,1
2,30126,29893,31911,52709,30802,-4989,-2661,1495,-58,-79,122,213,493,-121,1,0,35,9,840,1,53298,1
2,30167,29932,31925,52710,30813,-4442,73,-918,-242,-398,197,215,499,-111,1,0,35,9,880,1,53298,1
2,30154,29922,31933,52711,30824,-4372,-467,-316,-57,-126,-69,215,491,-121,1,0,35,9,920,1,53298,1
2,30132,29902,31911,52712,30834,-4592,-574,-397,-189,378,-109,208,506,-120,1,0,35,9,960,1,53298,1
1,30107,29909,31890,52713,0,-5157,-2264,1084,225,369,-38,218,494,-126,1,0,35,10,0,0,53298,1
2,30236,29915,31911,52714,30117,-4620,-160,-429,-405,-591,229,208,488,-124,1,0,35,10,40,0,53298,1
2,30170,29910,31908,52715,30129,-4294,-511,-580,65,-175,93,218,492,-122,1,0,35,10,80,0,53298,1
2,30419,29912,31911,52716,30142,-4788,-728,94,8,95,-26,212,492,-124,1,0,35,10,120,0,53298,1
2,30445,29930,31957,52717,30154,-4789,-1501,342,-233,-524,227,211,495,-125,1,0,35,10,160,0,53298,1
2,30271,29934,31979,52718,30167,-4348,57,-614,393,-490,72,210,488,-120,1,0,35,10,200,0,53298,1
2,30017,29928,31957,52719,30180,-4359,-398,-457,-135,-25,-72,210,492,-130,1,0,35,10,240,0,53298,1
2,29925,29872,31900,52720,30193,-4416,-125,-852,297,794,-223,206,486,-126,1,0,35,10,280,0,53298,1
2,29878,29877,31925,52721,30204,-5763,-3219,2181,376,624,153,209,493,-119,1,0,35,10,320,0,53298,1
2,29986,29895,31926,52722,30216,-4608,54,-730,-828,-712,120,220,492,-132,1,0,35,10,360,0,53298,1
2,30036,29889,31967,52723,30228,-4088,-288,-693,698,-350,114,210,488,-130,1,0,35,10,400,0,53298,1
2,30038,29888,31985,52724,30240,-4649,-596,-251,-415,258,-49,209,495,-123,1,0,35,10,440,0,53298,1
2,30013,29866,31884,52725,30251,-4615,-447,-688,584,1017,-280,211,495,-121,1,0,35,10,480,0,53298,1
2,30219,29921,31892,52726,30261,-5047,-2613,1905,-4,328,50,217,495,-129,1,0,35,10,520,0,53298,1
2,30142,29931,31945,52727,30273,-4594,-279,-771,-148,-841,390,207,499,-123,1,0,35,10,560,0,53298,1
2,30143,29937,31944,52728,30286,-4283,-405,-630,-204,-169,88,210,496,-114,1,0,35,10,600,0,53298,1
2,30187,29914,31947,52729,30298,-4631,-624,-145,-35,136,-117,216,492,-122,1,0,35,10,640,0,53298,1
2,30147,29940,31945,52730,30309,-5082,-1779,726,112,366,-85,217,501,-131,1,0,35,10,680,0,53298,1
2,30219,29973,31995,52731,30321,-4638,-405,-176,55,-708,245,210,494,-116,1,0,35,10,720,0,53298,1
2,30165,29961,31944,52732,30334,-4293,-377,-693,-176,-208,33,215,493,-115,1,0,35,10,760,0,53298,1
2,30136,29942,31944,52733,30346,-4582,-584,-257,-146,88,-78,220,492,-128,1,0,35,10,800,0,53298,1
2,30137,29925,31934,52734,30357,-4935,-1215,446,208,381,-59,211,493,-119,1,0,35,10,840,0,53298,1
2,30144,29955,31948,52735,30370,-4692,-668,-21,-184,-409,166,207,505,-119,1,0,35,10,880,0,53298,1
2,30211,29962,31932,52736,30383,-4338,-335,-577,-40,-178,60,213,499,-131,1,0,35,10,920,0,53298,1
2,30191,29953,31955,52737,30395,-4607,-665,-194,-107,113,-67,206,496,-120,1,0,35,10,960,0,53298,1
1,30223,29939,31930,52738,0,-4611,-327,-419,469,630,-188,207,487,-127,1,0,35,11,0,0,53298,1
2,30290,29958,31947,52739,29661,-4849,-1822,1057,-211,-278,163,208,494,-128,1,0,35,11,40,0,53298,1
2,30208,29956,31944,52740,29673,-4444,-84,-864,-183,-300,239,209,495,-123,1,0,35,11,80,0,53298,1
2,30112,29953,31944,52741,29685,-4478,-535,-225,-80,-71,-27,215,505,-119,1,0,35,11,120,0,53298,1
2,30108,29934,31930,52742,29696,-4554,-552,-443,5,402,-122,217,489,-123,1,0,35,11,160,0,53298,1
2,30086,29933,31925,52743,29708,-4947,-1356,688,468,576,-124,210,492,-130,1,0,35,11,200,0,53298,1
2,30199,29978,31958,52744,29720,-4683,-304,56,-669,-863,338,203,487,-117,1,0,35,11,240,0,53298,1
2,30312,29959,31982,52745,29732,-4226,-324,-912,84,-230,171,206,492,-122,1,0,35,11,280,0,53298,1
2,30225,29947,31965,52746,29743,-4621,-602,-139,-119,28,-79,215,497,-121,1,0,35,11,320,0,53298,1
2,30255,29911,31949,52747,29754,-4551,-420,-731,578,754,-227,214,482,-128,1,0,35,11,360,0,53298,1
2,29980,30255,31850,52748,29765,-4836,-1294,278,683,900,-333,217,489,-123,1,0,35,11,400,0,53298,1
2,29914,29969,31855,52749,29775,-4606,-705,422,78,269,-256,217,493,-125,1,0,35,11,440,0,53298,1
2,29898,30914,31861,52750,29785,-4625,-744,-302,-225,110,-19,210,500,-122,1,0,35,11,480,0,53298,1
2,29954,30051,31900,52751,29796,-4786,-1399,1245,-982,-1008,823,210,494,-110,1,0,35,11,520,0,53298,1
2,30029,29951,31971,52752,29807,-4551,-147,-1402,-757,-722,220,213,501,-125,1,0,35,11,560,0,53298,1
2,30033,29943,31970,52753,29820,-4566,-845,75,-34,-288,-102,207,497,-125,1,0,35,11,600,0,53298,1
2,30000,31442,31965,52754,29833,-4595,-544,-388,-46,-21,-20,215,483,-129,1,0,35,11,640,0,53298,1
2,30065,31358,31931,52755,29846,-4504,-587,-316,616,218,-87,215,491,-125,1,0,35,11,680,0,53298,1
2,30053,30778,31866,52756,29858,-4591,-260,-511,327,591,-121,220,488,-118,1,0,35,11,720,0,53298,1
2,30147,30475,31929,52757,29870,-4998,-2582,1611,-789,-375,212,219,485,-123,1,0,35,11,760,0,53298,1
2,30278,30308,31975,52758,29882,-4463,388,-1125,-175,-658,127,220,496,-124,1,0,35,11,800,0,53298,1
2,30215,30175,31976,52759,29894,-4344,-438,-338,229,-297,-80,212,490,-126,1,0,35,11,840,0,53298,1
2,30368,30194,31916,52760,29906,-4535,-430,-568,-38,441,-111,216,488,-122,1,0,35,11,880,0,53298,1
2,30372,29851,31894,52761,29916,-4855,-533,-87,866,970,-129,213,489,-127,1,0,35,11,920,0,53298,1
2,30310,29989,31908,52762,29927,-4742,-1583,1408,-810,-682,273,210,496,-124,1,0,35,11,960,0,53298,1
1,30506,30005,31914,52763,0,-4283,273,-1365,50,-466,225,214,480,-126,1,0,35,12,0,1,53298,1
2,30490,29897,31912,52764,29205,-4447,-407,-155,-122,-139,-113,215,485,-121,1,0,35,12,40,1,53298,1
2,30400,29820,31854,52765,29217,-4528,-309,-746,290,788,-171,211,487,-133,1,0,35,12,80,1,53298,1
2,30381,29798,31848,52766,29228,-5009,-1545,532,803,1067,-197,199,493,-131,1,0,35,12,120,1,53298,1
2,30555,29967,31848,52767,29239,-4690,-762,1042,-502,-977,307,209,491,-125,1,0,35,12,160,1,53298,1
2,30505,29883,31888,52768,29251,-4277,40,-1466,-195,-324,246,221,485,-119,1,0,35,12,200,1,53298,1
2,30547,29806,31879,52769,29262,-4550,-486,-100,-352,-134,-140,214,500,-104,1,0,35,12,240,1,53298,1
2,30550,29772,31820,52770,29273,-4596,-419,-698,400,729,-166,210,492,-116,1,0,35,12,280,1,53298,1
2,30591,29789,31851,52771,29283,-5122,-2336,1242,289,512,-70,219,489,-129,1,0,35,12,320,1,53298,1
2,30681,29805,31929,52772,29294,-4731,-359,-37,-308,-1219,388,211,493,-119,1,0,35,12,360,1,53298,1
2,30698,29818,31932,52773,29306,-4143,-120,-1057,-382,-190,151,217,489,-127,1,0,35,12,400,1,53298,1
2,30728,29803,31920,52774,29316,-4605,-533,-127,-233,44,-145,210,490,-134,1,0,35,12,440,1,53298,1
2,30689,29770,31830,52775,29326,-4678,-495,-729,716,958,-197,223,497,-129,1,0,35,12,480,1,53298,1
2,30703,29799,31847,52776,29335,-4908,-1743,963,485,628,-216,211,491,-129,1,0,35,12,520,1,53298,1
2,30774,29805,31870,52777,29345,-4587,-618,395,-319,-1214,512,216,490,-128,1,0,35,12,560,1,53298,1
2,30773,29802,31895,52778,29356,-4193,-23,-1235,-537,-256,240,218,494,-124,1,0,35,12,600,1,53298,1
2,30860,29791,31884,52779,29366,-4591,-556,-79,-221,-49,-169,216,498,-118,1,0,35,12,640,1,53298,1
2,30770,29772,31849,52780,29376,-4660,-535,-707,607,847,-189,213,495,-119,1,0,35,12,680,1,53298,1
2,30718,29770,31825,52781,29386,-4768,-1435,382,710,720,-314,208,490,-128,1,0,35,12,720,1,53298,1
2,30704,31525,31784,52782,29396,-4594,-905,588,150,-187,131,209,489,-131,1,0,35,12,760,1,53298,1
2,30770,30100,31832,52783,29406,-4612,-557,-681,-350,-128,415,205,491,-111,1,0,35,12,800,1,53298,1
2,30780,29875,31860,52784,29416,-5031,-1955,1433,-835,-546,318,210,498,-118,1,0,35,12,840,1,53298,1
2,30886,30372,31961,52785,29428,-4689,-243,-1231,-719,-1067,42,215,491,-119,1,0,35,12,880,1,53298,1
2,30943,30401,31946,52786,29441,-4196,-208,-506,338,-302,-109,216,494,-128,1,0,35,12,920,1,53298,1
2,30868,30639,31898,52787,29453,-4472,-361,-496,-96,366,-187,211,489,-119,1,0,35,12,960,1,53298,1
1,30804,29950,31836,52788,0,-4703,-382,-669,843,1169,-197,208,494,-118,1,0,35,13,0,1,53298,1
2,30943,30326,31857,52789,28747,-4914,-2227,1323,65,697,-160,203,497,-123,1,0,35,13,40,1,53298,1
2,30971,30216,31845,52790,28757,-4529,-716,307,92,-1184,557,217,493,-125,1,0,35,13,80,1,53298,1
2,30960,30199,31865,52791,28767,-4255,72,-1196,-189,-262,252,215,491,-125,1,0,35,13,120,1,53298,1
2,30935,30226,31846,52792,28778,-4569,-421,-160,-702,-42,-278,219,487,-125,1,0,35,13,160,1,53298,1
2,30907,30296,31824,52793,28789,-4700,-802,-596,-264,855,-238,212,492,-130,1,0,35,13,200,1,53298,1
2,30882,30382,31848,52794,28799,-4695,-1147,374,480,632,-365,207,493,-133,1,0,35,13,240,1,53298,1
2,30868,29764,31832,52795,28808,-4565,-711,73,436,58,-175,211,497,-127,1,0,35,13,280,1,53298,1
2,30920,29845,31835,52796,28818,-4633,-818,-308,-411,112,-4,214,492,-126,1,0,35,13,320,1,53298,1
2,30883,29945,31818,52797,28827,-4632,-762,-73,-369,13,-67,211,495,-127,1,0,35,13,360,1,53298,1
2,30918,30065,31823,52798,28836,-4590,-818,-197,-16,68,-95,209,497,-131,1,0,35,13,400,1,53298,1
2,30903,30200,31778,52799,28844,-4622,-748,-121,101,48,-59,208,490,-126,1,0,35,13,440,1,53298,1
2,30954,29850,31803,52800,28854,-4768,-1310,710,-921,-541,742,213,491,-129,1,0,35,13,480,1,53298,1
2,31006,30443,31827,52801,28865,-4818,-599,-443,-330,-1099,663,211,487,-121,1,0,35,13,520,1,53298,1
2,31011,30397,31854,52802,28876,-4376,-231,-741,-109,-367,46,212,490,-130,1,0,35,13,560,1,53298,1
2,31049,30019,31833,52803,28888,-4478,-395,-206,414,-153,-49,221,489,-127,1,0,35,13,600,1,53298,1
2,30949,29797,31779,52804,28898,-4529,-371,-612,657,492,-107,215,491,-131,1,0,35,13,640,1,53298,1
2,30910,31291,31766,52805,28908,-4967,-1652,622,322,606,-65,206,498,-122,1,0,35,13,680,1,53298,1
2,30962,30286,31797,52806,28919,-4606,-548,222,-481,-737,283,217,495,-123,1,0,35,13,720,1,53298,1
2,30966,30354,31781,52807,28929,-4344,-193,-916,50,-198,234,216,496,-128,1,0,35,13,760,1,53298,1
2,30945,30454,31782,52808,28940,-4687,-761,-3,-233,6,-125,210,488,-128,1,0,35,13,800,1,53298,1
2,30965,31090,31788,52809,28949,-4569,-564,-520,1,412,-156,208,496,-114,1,0,35,13,840,1,53298,1
2,30935,30745,31763,52810,28959,-4728,-1076,-77,490,663,-305,209,501,-129,1,0,35,13,880,1,53298,1
2,30938,29853,31773,52811,28969,-4678,-771,182,-396,365,-433,217,491,-125,1,0,35,13,920,1,53298,1
2,30914,30111,31747,52812,28978,-4719,-472,-263,-767,48,-285,219,491,-123,1,0,35,13,960,1,53298,1
1,30902,30119,31751,52813,0,-4607,-921,-65,-1433,3,-330,209,489,-127,1,0,35,14,0,0,53298,1
2,30879,29824,31740,52814,28291,-4629,-717,-65,-848,-52,-218,226,486,-130,1,0,35,14,40,0,53298,1
2,30868,29735,31705,52815,28300,-4684,-671,-435,-1563,-80,-328,226,496,-128,1,0,35,14,80,0,53298,1
2,30669,30320,31526,52816,28309,-4512,-955,119,-614,3,-210,219,493,-135,1,0,35,14,120,0,53298,1
2,30676,30161,31524,52817,28318,-4534,-793,-154,-489,-36,-97,223,493,-133,1,0,35,14,160,0,53298,1
2,30665,29868,31516,52818,28327,-4598,-832,-111,-262,4,-22,223,487,-131,1,0,35,14,200,0,53298,1
2,30682,29815,31511,52819,28336,-4567,-806,-132,153,76,51,217,497,-137,1,0,35,14,240,0,53298,1
2,30689,29841,31523,52820,28345,-4548,-816,-137,408,156,107,218,504,-126,1,0,35,14,280,0,53298,1
2,30667,29742,31510,52821,28354,-4743,-798,-120,778,200,207,218,488,-136,1,0,35,14,320,0,53298,1
2,30686,29867,31536,52822,28363,-5314,-148,-968,-2929,-342,-549,217,491,-131,1,0,35,14,360,0,53298,1
2,30715,30431,31597,52823,28372,-4596,-1034,137,-930,-21,-250,224,502,-132,1,0,35,14,400,0,53298,1
2,30765,30563,31615,52824,28381,-4030,-910,339,1101,31,312,217,487,-117,1,0,35,14,440,0,53298,1
2,30780,30202,31626,52825,28390,-4042,-1120,-86,-225,-128,230,215,497,-131,1,0,35,14,480,0,53298,1
2,30776,30239,31625,52826,28398,-3826,-1442,240,1087,440,193,218,494,-132,1,0,35,14,520,0,53298,1
2,30777,29713,31649,52827,28406,-6582,342,-1375,-2886,398,-319,218,490,-128,1,0,35,14,560,0,53298,1
2,30718,30226,31620,52828,28414,-5019,-899,181,336,152,-340,219,501,-135,1,0,35,14,600,0,53298,1
2,30804,29749,31622,52829,28422,-3935,-804,169,1824,-339,215,226,492,-134,1,0,35,14,640,0,53298,1
2,30810,29768,31629,52830,28431,-3455,-1615,158,587,-16,249,226,494,-132,1,0,35,14,680,0,53298,1
2,30866,29681,31671,52831,28439,-5943,510,-1735,-2120,158,-64,217,499,-129,1,0,35,14,720,0,53298,1
2,30832,30152,31639,52832,28448,-5323,-926,101,-1279,185,-365,226,496,-126,1,0,35,14,760,0,53298,1
2,30829,29707,31640,52833,28457,-4069,-579,299,2297,-338,294,220,494,-128,1,0,35,14,800,0,53298,1
2,30827,29687,31628,52834,28466,-3366,-1572,215,888,-296,319,221,489,-137,1,0,35,14,840,0,53298,1
2,30888,29704,31673,52835,28474,-4532,-270,-948,-897,83,67,230,490,-132,1,0,35,14,880,0,53298,1
2,30910,30288,31701,52836,28483,-5647,-886,-61,-3102,431,-550,225,495,-137,1,0,35,14,920,0,53298,1
2,30852,30426,31668,52837,28492,-4240,-470,413,2406,-104,113,226,494,-132,1,0,35,14,960,0,53298,1
1,30867,30450,31662,52838,0,-3377,-1357,124,1507,-418,355,217,491,-139,1,0,35,15,0,0,53298,1
2,30897,30491,31688,52839,27835,-3633,-1461,118,530,219,244,217,499,-127,1,0,35,15,40,0,53298,1
2,30945,30667,31721,52840,27845,-6876,-643,-815,-4522,507,-413,228,494,-130,1,0,35,15,80,0,53298,1
2,30894,30667,31690,52841,27854,-4456,-660,406,1887,-170,-110,221,501,-127,1,0,35,15,120,0,53298,1
2,30891,30539,31679,52842,27864,-3552,-1137,29,1774,-504,336,210,492,-128,1,0,35,15,160,0,53298,1
2,30929,30639,31701,52843,27872,-3360,-2031,500,1508,271,326,215,491,-131,1,0,35,15,200,0,53298,1
2,30973,30664,31735,52844,27881,-7308,-207,-1352,-4550,375,-218,225,503,-133,1,0,35,15,240,0,53298,1
2,30907,30490,31702,52845,27890,-4595,-899,425,1284,-297,-326,218,490,-136,1,0,35,15,280,0,53298,1
2,30899,30352,31683,52846,27900,-3697,-959,37,1675,-531,295,218,484,-116,1,0,35,15,320,0,53298,1
2,30922,30239,31706,52847,27909,-3441,-1755,214,1028,230,262,219,497,-135,1,0,35,15,360,0,53298,1
2,30962,30365,31743,52848,27918,-7529,751,-1778,-3987,392,-139,232,500,-132,1,0,35,15,400,0,53298,1
2,30907,30476,31707,52849,27929,-5066,-943,348,362,-109,-433,219,491,-139,1,0,35,15,440,0,53298,1
2,30883,30342,31669,52850,27939,-3804,-759,216,2261,-509,379,216,486,-136,1,0,35,15,480,0,53298,1
2,30912,30470,31689,52851,27949,-3380,-1763,125,66,-160,295,224,498,-140,1,0,35,15,520,0,53298,1
2,30949,30576,31720,52852,27960,-4531,-286,-868,-745,333,10,224,494,-132,1,0,35,15,560,0,53298,1
2,30978,30226,31749,52853,27971,-5877,-613,105,-2044,507,-363,230,500,-128,1,0,35,15,600,0,53298,1
2,30939,30199,31720,52854,27982,-4297,-625,143,1725,-250,123,225,497,-127,1,0,35,15,640,0,53298,1
2,30976,30249,31725,52855,27993,-3615,-1357,-118,1018,-295,220,226,492,-130,1,0,35,15,680,0,53298,1
2,31019,30438,31743,52856,28002,-4717,-260,-553,-125,275,138,221,497,-137,1,0,35,15,720,0,53298,1
2,31036,30101,31745,52857,28012,-5259,-740,-72,-1566,28,-140,212,494,-128,1,0,35,15,760,0,53298,1
2,30999,30023,31730,52858,28023,-4281,-755,37,869,-296,33,218,492,-132,1,0,35,15,800,0,53298,1
2,30999,30174,31728,52859,28033,-3851,-1272,-43,679,-94,140,230,492,-130,1,0,35,15,840,0,53298,1
2,31022,30126,31744,52860,28043,-5200,-93,-655,-294,250,181,216,492,-134,1,0,35,15,880,0,53298,1
2,31032,30354,31760,52861,28053,-5236,-797,-221,-1845,-139,-354,224,498,-136,1,0,35,15,920,0,53298,1
2,30987,30620,31722,52862,28063,-4227,-747,130,916,-210,-17,229,495,-135,1,0,35,15,960,0,53298,1
1,31020,30640,31717,52863,0,-3745,-1260,8,693,-143,160,221,499,-127,1,0,35,16,0,1,53298,1
2,31046,30651,31729,52864,27380,-3832,-1499,277,1012,391,226,215,489,-133,1,0,35,16,40,1,53298,1
2,31069,30281,31768,52865,27390,-6599,-342,-895,-3167,325,-274,221,493,-135,1,0,35,16,80,1,53298,1
2,31020,30286,31733,52866,27401,-4582,-798,271,1016,-173,-141,212,494,-132,1,0,35,16,120,1,53298,1
2,31037,29836,31725,52867,27412,-3724,-1078,-22,1424,-466,298,220,494,-140,1,0,35,16,160,1,53298,1
2,31047,30550,31725,52868,27421,-3346,-1705,249,1176,257,279,222,494,-130,1,0,35,16,200,1,53298,1
2,31104,30436,31794,52869,27430,-7609,1744,-1820,-1487,539,322,221,499,-131,1,0,35,16,240,1,53298,1
2,31061,30426,31760,52870,27440,-4857,-1260,269,-1,-287,-402,216,492,-134,1,0,35,16,280,1,53298,1
2,31052,30457,31734,52871,27450,-3960,-775,-5,1049,-421,36,221,489,-119,1,0,35,16,320,1,53298,1
2,31088,30542,31771,52872,27461,-3923,-1400,100,657,171,206,226,492,-140,1,0,35,16,360,1,53298,1
2,31095,30196,31780,52873,27471,-6211,73,-1119,-2774,5,-35,228,490,-130,1,0,35,16,400,1,53298,1
2,31048,29975,31739,52874,27481,-4689,-930,201,-157,-276,-360,216,498,-120,1,0,35,16,440,1,53298,1
2,31034,29931,31725,52875,27492,-3866,-918,126,1180,-320,234,214,504,-128,1,0,35,16,480,1,53298,1
2,31034,29900,31715,52876,27502,-3542,-1527,98,353,140,172,217,493,-135,1,0,35,16,520,1,53298,1
2,31096,30181,31780,52877,27513,-5763,714,-1388,-572,415,17,224,494,-138,1,0,35,16,560,1,53298,1
2,31071,30476,31768,52878,27525,-5169,-871,39,-1729,181,-465,220,488,-134,1,0,35,16,600,1,53298,1
2,31029,30522,31723,52879,27535,-4047,-641,211,1655,-309,143,219,495,-133,1,0,35,16,640,1,53298,1
2,31031,30542,31714,52880,27546,-3239,-1694,168,1175,-184,274,221,489,-137,1,0,35,16,680,1,53298,1
2,31101,30528,31765,52881,27556,-4467,-627,-518,1147,276,333,216,494,-126,1,0,35,16,720,1,53298,1
2,31089,30113,31756,52882,27567,-5082,-1082,-23,-3315,242,-331,230,496,-124,1,0,35,16,760,1,53298,1
2,31013,30178,31712,52883,27578,-3949,-577,320,1293,-381,-83,217,503,-137,1,0,35,16,800,1,53298,1
2,31049,30232,31713,52884,27588,-3349,-1491,53,1245,-321,260,218,498,-122,1,0,35,16,840,1,53298,1
2,31090,30360,31757,52885,27598,-4480,-1210,-221,1486,427,488,219,497,-125,1,0,35,16,880,1,53298,1
2,31091,30366,31750,52886,27608,-5265,-963,-376,-3806,96,-398,219,491,-127,1,0,35,16,920,1,53298,1
2,31036,30048,31704,52887,27619,-4129,-695,326,683,-329,-302,228,490,-122,1,0,35,16,960,1,53298,1
1,31025,30010,31685,52888,0,-3636,-1152,38,895,-400,181,212,488,-136,1,0,35,17,0,0,53298,1
2,31042,29955,31706,52889,26925,-3548,-1600,167,548,398,216,222,490,-138,1,0,35,17,40,0,53298,1
2,31075,30005,31742,52890,26935,-7610,827,-1679,-3062,400,-139,219,497,-135,1,0,35,17,80,0,53298,1
2,31019,29918,31716,52891,26946,-4938,-1031,352,362,-96,-404,224,498,-132,1,0,35,17,120,0,53298,1
2,31002,29932,31685,52892,26955,-3709,-839,109,2046,-535,358,221,491,-133,1,0,35,17,160,0,53298,1
2,31017,29926,31704,52893,26964,-3109,-1895,332,1269,12,309,218,494,-140,1,0,35,17,200,0,53298,1
2,31093,30017,31745,52894,26974,-7285,2022,-2724,-2735,385,-34,221,499,-125,1,0,35,17,240,0,53298,1
2,31041,29968,31712,52895,26985,-5161,-1075,390,-1003,50,-502,221,493,-125,1,0,35,17,280,0,53298,1
2,31027,29955,31700,52896,26996,-3889,-575,248,2287,-506,366,218,496,-136,1,0,35,17,320,0,53298,1
2,31043,29942,31689,52897,27006,-2857,-1982,472,1981,-81,405,220,492,-138,1,0,35,17,360,0,53298,1
2,31108,30235,31754,52898,27015,-7269,2135,-2905,-3199,305,52,221,491,-133,1,0,35,17,400,0,53298,1
2,31063,30153,31734,52899,27027,-5090,-1180,481,-994,14,-562,231,495,-123,1,0,35,17,440,0,53298,1
2,31051,30166,31708,52900,27037,-3957,-485,254,2157,-388,259,221,489,-137,1,0,35,17,480,0,53298,1
2,31068,30139,31717,52901,27048,-3011,-1853,359,1784,29,314,218,494,-138,1,0,35,17,520,0,53298,1
2,31120,30227,31759,52902,27058,-7102,1545,-2430,-3127,419,6,221,489,-137,1,0,35,17,560,0,53298,1
2,31086,30273,31763,52903,27069,-5154,-1058,374,-991,-11,-591,225,497,-137,1,0,35,17,600,0,53298,1
2,31057,30266,31730,52904,27080,-3979,-519,302,2200,-397,248,211,495,-133,1,0,35,17,640,0,53298,1
2,31070,30277,31725,52905,27091,-3225,-1765,223,761,-123,235,216,494,-132,1,0,35,17,680,0,53298,1
2,31101,30360,31772,52906,27102,-5303,133,-1453,-1896,292,-4,224,490,-136,1,0,35,17,720,0,53298,1
2,31092,30464,31752,52907,27114,-5492,-738,145,-1940,227,-461,221,501,-133,1,0,35,17,760,0,53298,1
2,31053,30393,31725,52908,27124,-4146,-495,370,2336,-252,218,228,498,-130,1,0,35,17,800,0,53298,1
2,31070,30379,31709,52909,27135,-3109,-1714,324,1620,-291,368,225,495,-137,1,0,35,17,840,0,53298,1
2,31124,30456,31765,52910,27145,-4724,-30,-1458,-1733,11,36,220,492,-130,1,0,35,17,880,0,53298,1
2,31111,30170,31760,52911,27156,-5688,-783,96,-3223,345,-619,222,498,-132,1,0,35,17,920,0,53298,1
2,31063,30265,31713,52912,27166,-4216,-335,591,3087,-123,232,219,499,-125,1,0,35,17,960,0,53298,1
1,31057,30301,31702,52913,0,-3213,-1444,261,1626,-534,503,221,485,-135,1,0,35,18,0,1,53298,1
2,31092,30273,31743,52914,26471,-3520,-1435,-290,-613,-59,243,224,492,-138,1,0,35,18,40,1,53298,1
2,31144,30272,31792,52915,26481,-7139,-599,-864,-5179,620,-683,220,500,-132,1,0,35,18,80,1,53298,1
2,31075,30234,31746,52916,26492,-4743,-505,573,2881,135,-52,227,501,-131,1,0,35,18,120,1,53298,1
2,31052,30282,31708,52917,26503,-3439,-1126,200,2658,-560,487,218,486,-138,1,0,35,18,160,1,53298,1
2,31087,30295,31734,52918,26513,-2966,-2290,521,1570,89,392,224,494,-132,1,0,35,18,200,1,53298,1
2,31121,29854,31787,52919,26523,-8194,-126,-1971,-7201,485,-609,225,501,-135,1,0,35,18,240,1,53298,1
2,31073,29779,31753,52920,26534,-5063,-736,626,2389,100,-303,215,491,-139,1,0,35,18,280,1,53298,1
2,31036,29784,31732,52921,26544,-3659,-839,286,3155,-683,551,213,497,-133,1,0,35,18,320,1,53298,1
2,31059,29753,31735,52922,26554,-3026,-1969,266,765,-57,424,221,497,-141,1,0,35,18,360,1,53298,1
2,31125,29840,31805,52923,26564,-6817,755,-2265,-4903,255,-345,219,493,-123,1,0,35,18,400,1,53298,1
2,31096,29795,31786,52924,26574,-5477,-698,446,188,348,-458,226,490,-134,1,0,35,18,440,1,53298,1
2,31072,29788,31756,52925,26585,-3938,-558,336,3048,-456,419,218,494,-138,1,0,35,18,480,1,53298,1
2,31075,29804,31749,52926,26595,-2883,-1902,358,1758,-158,427,208,484,-144,1,0,35,18,520,1,53298,1
2,31178,29866,31820,52927,26604,-5150,173,-1721,-1803,218,38,225,495,-139,1,0,35,18,560,1,53298,1
2,31153,29914,31820,52928,26613,-5013,-825,390,-1796,351,-237,220,492,-132,1,0,35,18,600,1,53298,1
2,31101,29915,31791,52929,26623,-4078,-523,127,1709,-384,7,211,491,-127,1,0,35,18,640,1,53298,1
2,31133,29919,31803,52930,26632,-3579,-1427,-112,833,-138,148,221,485,-125,1,0,35,18,680,1,53298,1
2,31171,29820,31845,52931,26641,-5881,222,-1120,-1476,242,176,225,487,-129,1,0,35,18,720,1,53298,1
2,31143,29780,31814,52932,26652,-4971,-828,56,-985,-258,-308,216,500,-140,1,0,35,18,760,1,53298,1
2,31143,29760,31800,52933,26661,-4156,-716,112,1024,-254,89,220,494,-132,1,0,35,18,800,1,53298,1
2,31109,29790,31779,52934,26671,-3543,-1491,145,762,86,129,221,495,-137,1,0,35,18,840,1,53298,1
2,31158,29833,31804,52935,26680,-5005,19,-736,426,396,210,221,489,-135,1,0,35,18,880,1,53298,1
2,31153,29797,31808,52936,26689,-5193,-931,-98,-2391,96,-405,219,489,-135,1,0,35,18,920,1,53298,1
2,31103,29806,31778,52937,26699,-4153,-588,276,1327,-239,-71,220,496,-142,1,0,35,18,960,1,53298,1
1,31105,29849,31763,52938,0,-3434,-1488,85,992,-187,190,214,498,-130,1,0,35,19,0,1,53298,1
2,31148,29787,31783,52939,26016,-3792,-1436,118,1938,458,429,217,495,-139,1,0,35,19,40,1,53298,1
2,31155,30031,31799,52940,26025,-5978,-349,-899,-2382,442,219,211,497,-125,1,0,35,19,80,1,53298,1
2,31108,29785,31773,52941,26033,-4142,-928,256,494,-610,-518,217,489,-131,1,0,35,19,120,1,53298,1
2,31108,29798,31767,52942,26042,-3707,-1162,-68,654,-266,113,219,489,-133,1,0,35,19,160,1,53298,1
2,31138,29793,31796,52943,26051,-5161,-626,-447,560,338,530,220,498,-134,1,0,35,19,200,1,53298,1
2,31113,29859,31790,52944,26061,-5102,-1006,-190,-3505,-307,-510,224,488,-132,1,0,35,19,240,1,53298,1
2,31102,29892,31783,52945,26070,-4170,-705,311,696,-224,-109,226,498,-134,1,0,35,19,280,1,53298,1
2,31114,29892,31778,52946,26080,-3707,-1222,45,662,-261,213,219,501,-137,1,0,35,19,320,1,53298,1
2,31122,29873,31788,52947,26089,-3363,-1625,319,1429,463,233,213,485,-125,1,0,35,19,360,1,53298,1
2,31180,29941,31820,52948,26099,-8026,989,-1933,-2808,584,-51,224,498,-136,1,0,35,19,400,1,53298,1
2,31130,29904,31775,52949,26109,-4836,-1088,349,461,-197,-544,219,497,-135,1,0,35,19,440,1,53298,1
2,31134,29906,31811,52950,26118,-3767,-844,35,1700,-499,220,226,500,-126,1,0,35,19,480,1,53298,1
2,31117,30103,31763,52951,26128,-3050,-1940,492,2124,230,365,221,499,-139,1,0,35,19,520,1,53298,1
2,31200,30105,31838,52952,26137,-8553,2334,-2008,-476,789,844,219,497,-131,1,0,35,19,560,1,53298,1
2,31144,29884,31824,52953,26147,-4796,-1529,429,-593,-640,-723,219,497,-131,1,0,35,19,600,1,53298,1
2,31143,29846,31818,52954,26157,-3845,-737,38,294,-427,-128,221,495,-145,1,0,35,19,640,1,53298,1
2,31151,29859,31803,52955,26166,-3884,-1273,139,1043,270,394,219,497,-135,1,0,35,19,680,1,53298,1
2,31158,29782,31812,52956,26176,-6370,629,-1524,-1629,154,356,218,494,-134,1,0,35,19,720,1,53298,1
2,31140,29842,31800,52957,26185,-4470,-1043,244,-1051,-513,-723,218,486,-126,1,0,35,19,760,1,53298,1
2,31108,29845,31782,52958,26195,-3919,-854,62,319,-178,7,213,491,-125,1,0,35,19,800,1,53298,1
2,31075,29840,31764,52959,26204,-3665,-1440,249,1097,372,195,214,502,-126,1,0,35,19,840,1,53298,1
2,31103,29924,31786,52960,26214,-7216,1136,-1635,-283,599,476,216,490,-136,1,0,35,19,880,1,53298,1
2,31030,29924,31757,52961,26224,-4710,-1249,171,-1151,-378,-750,223,493,-137,1,0,35,19,920,1,53298,1
2,31023,29872,31737,52962,26233,-3889,-750,134,713,-250,-31,218,496,-132,1,0,35,19,960,1,53298,1
1,31045,29898,31737,52963,0,-3416,-1651,364,1625,291,308,211,497,-139,1,0,35,20,0,0,53298,1
2,31096,29801,31772,52964,25561,-7766,1806,-1807,41,638,802,208,502,-126,1,0,35,20,40,0,53298,1
2,31066,29792,31745,52965,25570,-4650,-1427,347,-1455,-684,-833,222,490,-132,1,0,35,20,80,0,53298,1
2,31073,29859,31743,52966,25580,-3846,-752,107,303,-374,-25,216,494,-136,1,0,35,20,120,0,53298,1
2,31087,29958,31778,52967,25589,-3674,-1413,245,1365,227,371,215,487,-141,1,0,35,20,160,0,53298,1
2,31147,30003,31802,52968,25598,-6996,965,-1375,589,560,903,220,492,-130,1,0,35,20,200,0,53298,1
2,31086,29840,31782,52969,25609,-4568,-1316,188,-1501,-658,-841,202,496,-132,1,0,35,20,240,0,53298,1
2,31061,29799,31765,52970,25619,-3899,-847,88,-151,-238,-217,215,491,-139,1,0,35,20,280,0,53298,1
2,31128,29816,31795,52971,25627,-3969,-1204,152,1257,396,374,216,488,-128,1,0,35,20,320,0,53298,1
2,31111,29845,31796,52972,25637,-6372,738,-1583,-1075,264,328,218,490,-134,1,0,35,20,360,0,53298,1
2,31097,29794,31793,52973,25648,-4478,-1064,239,-1277,-511,-811,225,505,-127,1,0,35,20,400,0,53298,1
2,31116,29776,31808,52974,25658,-3936,-866,52,191,-193,-14,224,496,-126,1,0,35,20,440,0,53298,1
2,31097,29770,31792,52975,25668,-3880,-1259,54,452,258,177,210,496,-136,1,0,35,20,480,0,53298,1
2,31150,29803,31825,52976,25679,-5724,-314,-288,1979,626,703,215,507,-117,1,0,35,20,520,0,53298,1
2,31115,29872,31799,52977,25689,-4825,-999,-187,-1450,-244,-379,219,495,-133,1,0,35,20,560,0,53298,1
2,31096,29866,31784,52978,25700,-3994,-920,69,-182,-418,-333,220,488,-134,1,0,35,20,600,0,53298,1
2,31106,29853,31779,52979,25710,-4015,-1119,50,727,74,228,218,496,-132,1,0,35,20,640,0,53298,1
2,31164,29925,31824,52980,25720,-6348,548,-1100,781,284,688,219,485,-133,1,0,35,20,680,0,53298,1
2,31125,29785,31812,52981,25731,-4677,-1217,64,-2731,-528,-790,223,495,-137,1,0,35,20,720,0,53298,1
2,31096,29786,31784,52982,25741,-3975,-850,145,74,-282,-58,209,491,-131,1,0,35,20,760,0,53298,1
2,31099,29797,31796,52983,25751,-3641,-1528,152,785,106,181,219,495,-135,1,0,35,20,800,0,53298,1
2,31161,29821,31826,52984,25761,-6379,863,-1305,-129,467,309,220,490,-140,1,0,35,20,840,0,53298,1
2,31119,29850,31830,52985,25772,-4935,-1114,27,-2003,-121,-547,216,490,-126,1,0,35,20,880,0,53298,1
2,31106,29849,31798,52986,25784,-3988,-699,173,1330,-254,91,214,498,-130,1,0,35,20,920,0,53298,1
2,31149,29870,31811,52987,25795,-3369,-1661,271,1016,-13,185,216,498,-140,1,0,35,20,960,0,53298,1
1,31200,29890,31860,52988,0,-5267,162,-972,-204,385,170,222,498,-134,1,0,35,21,0,0,53298,1
2,31172,29902,31849,52989,25108,-5201,-939,-58,-2422,14,-391,231,497,-139,1,0,35,21,40,0,53298,1
2,31130,29879,31799,52990,25119,-4057,-621,251,1521,-362,95,222,500,-122,1,0,35,21,80,0,53298,1
2,31144,29913,31816,52991,25129,-3123,-1709,314,1667,-156,292,209,495,-135,1,0,35,21,120,0,53298,1
2,31158,29943,31858,52992,25140,-5311,514,-1526,51,348,320,225,493,-139,1,0,35,21,160,0,53298,1
2,31156,29866,31836,52993,25150,-4866,-1133,160,-2797,52,-477,220,502,-136,1,0,35,21,200,0,53298,1
2,31082,29840,31783,52994,25161,-3969,-522,307,1328,-332,-28,219,499,-129,1,0,35,21,240,0,53298,1
2,31124,29844,31801,52995,25172,-3204,-1738,210,1387,-166,231,211,491,-141,1,0,35,21,280,0,53298,1
2,31120,29849,31825,52996,25182,-5218,-150,-937,431,571,395,212,502,-130,1,0,35,21,320,0,53298,1
2,31072,29822,31810,52997,25193,-4914,-1074,-13,-2635,-23,-385,224,494,-126,1,0,35,21,360,0,53298,1
2,31024,29798,31780,52998,25205,-3952,-677,251,959,-372,-136,219,493,-131,1,0,35,21,400,0,53298,1
2,31051,29803,31775,52999,25217,-3231,-1644,200,1512,-68,216,216,490,-132,1,0,35,21,440,0,53298,1
2,31110,30008,31836,53000,25228,-6146,370,-1358,438,650,605,214,492,-136,1,0,35,21,480,0,53298,1
2,31084,29963,31834,53001,25239,-4786,-1258,147,-2134,-294,-538,219,491,-131,1,0,35,21,520,0,53298,1
2,31064,29955,31816,53002,25249,-3951,-679,233,649,-387,-168,212,500,-130,1,0,35,21,560,0,53298,1
2,31065,29964,31802,53003,25259,-3433,-1538,135,1159,0,186,227,497,-135,1,0,35,21,600,0,53298,1
2,31090,30015,31833,53004,25269,-6492,524,-1129,379,596,717,218,498,-138,1,0,35,21,640,0,53298,1
2,31084,30057,31836,53005,25279,-4815,-1234,49,-1630,-452,-546,222,496,-130,1,0,35,21,680,0,53298,1
2,31102,30047,31823,53006,25290,-3946,-757,192,420,-368,-166,217,501,-133,1,0,35,21,720,0,53298,1
2,31123,30050,31849,53007,25300,-3563,-1449,241,1039,171,209,213,501,-139,1,0,35,21,760,0,53298,1
2,31178,30008,31887,53008,25310,-6740,675,-1266,797,683,845,211,497,-137,1,0,35,21,800,0,53298,1
2,31138,30150,31900,53009,25321,-4700,-1280,108,-1560,-515,-703,217,491,-131,1,0,35,21,840,0,53298,1
2,31147,30235,31911,53010,25331,-3925,-788,170,247,-262,-214,216,492,-132,1,0,35,21,880,0,53298,1
2,31158,30231,31885,53011,25342,-3787,-1271,187,1012,251,262,212,492,-138,1,0,35,21,920,0,53298,1
2,31145,30076,31883,53012,25350,-6737,1003,-1667,-1009,317,479,216,486,-142,1,0,35,21,960,0,53298,1
1,31108,29783,31842,53013,0,-4608,-1088,225,-1228,-528,-740,219,489,-143,1,0,35,22,0,0,53298,1
2,31091,29784,31820,53014,24653,-3948,-798,76,336,-252,-3,213,503,-119,1,0,35,22,40,0,53298,1
2,31119,29815,31846,53015,24664,-3846,-1281,80,526,290,164,220,494,-136,1,0,35,22,80,0,53298,1
2,31160,29823,31885,53016,24674,-6452,629,-998,647,555,612,212,488,-132,1,0,35,22,120,0,53298,1
2,31110,29846,31850,53017,24684,-4725,-1151,16,-934,-374,-540,225,505,-137,1,0,35,22,160,0,53298,1
2,31100,29806,31849,53018,24694,-3978,-860,57,318,-247,-144,211,497,-125,1,0,35,22,200,0,53298,1
2,31170,29854,31893,53019,24705,-3847,-1260,163,1071,274,284,212,490,-136,1,0,35,22,240,0,53298,1
2,31202,30070,31917,53020,24714,-6683,873,-1527,-394,291,541,210,492,-140,1,0,35,22,280,0,53298,1
2,31112,30059,31853,53021,24724,-4536,-1113,197,-1332,-593,-707,219,499,-127,1,0,35,22,320,0,53298,1
2,31136,30087,31856,53022,24735,-3934,-853,36,227,-297,-1,221,491,-129,1,0,35,22,360,0,53298,1
2,31155,30164,31889,53023,24746,-3781,-1321,189,1070,293,289,215,493,-133,1,0,35,22,400,0,53298,1
2,31182,30232,31878,53024,24756,-6864,878,-1266,481,554,694,216,502,-136,1,0,35,22,440,0,53298,1
2,31154,30323,31873,53025,24767,-4591,-1259,84,-1203,-518,-707,217,487,-135,1,0,35,22,480,0,53298,1
2,31134,30339,31862,53026,24777,-3938,-863,50,219,-257,-139,219,499,-141,1,0,35,22,520,0,53298,1
2,31170,30345,31889,53027,24787,-3925,-1229,166,1267,333,351,210,496,-136,1,0,35,22,560,0,53298,1
2,31182,30448,31888,53028,24797,-6467,647,-1468,-359,338,507,204,498,-134,1,0,35,22,600,0,53298,1
2,31143,30084,31853,53029,24808,-4446,-1162,192,-1384,-566,-770,221,497,-129,1,0,35,22,640,0,53298,1
2,31132,30026,31845,53030,24818,-3922,-865,-24,63,-222,-38,221,495,-135,1,0,35,22,680,0,53298,1
2,31153,29909,31868,53031,24828,-4029,-1155,123,1011,390,286,214,496,-130,1,0,35,22,720,0,53298,1
2,31164,29945,31850,53032,24838,-6430,412,-1304,-400,353,427,223,493,-135,1,0,35,22,760,0,53298,1
2,31107,30079,31840,53033,24848,-4447,-1075,143,-1079,-494,-675,219,489,-137,1,0,35,22,800,0,53298,1
2,31100,30042,31813,53034,24857,-3885,-930,18,298,-224,-19,216,496,-132,1,0,35,22,840,0,53298,1
2,31122,30102,31830,53035,24868,-3900,-1309,155,1436,384,354,217,499,-135,1,0,35,22,880,0,53298,1
2,31151,30122,31854,53036,24878,-6390,361,-1369,-1192,274,348,222,500,-136,1,0,35,22,920,0,53298,1
2,31110,30171,31833,53037,24889,-4369,-1051,246,-628,-525,-631,226,496,-136,1,0,35,22,960,0,53298,1
1,31118,30164,31839,53038,0,-3782,-999,-67,428,-268,58,219,499,-137,1,0,35,23,0,0,53298,1
2,31129,30157,31835,53039,24200,-4114,-1121,90,1316,442,376,218,494,-140,1,0,35,23,40,0,53298,1
2,31141,30201,31836,53040,24210,-6070,23,-1170,-1579,200,203,213,493,-121,1,0,35,23,80,0,53298,1
2,31114,30171,31831,53041,24221,-4258,-967,233,-252,-506,-563,221,495,-123,1,0,35,23,120,0,53298,1
2,31115,30163,31826,53042,24231,-3737,-1117,-38,569,-208,45,218,496,-128,1,0,35,23,160,0,53298,1
2,31148,30172,31861,53043,24241,-4310,-1093,24,1357,507,386,222,496,-124,1,0,35,23,200,0,53298,1
2,31148,30167,31858,53044,24252,-5685,-338,-798,-2238,105,-18,220,494,-134,1,0,35,23,240,0,53298,1
2,31093,30130,31822,53045,24262,-4204,-893,229,-43,-453,-443,210,488,-124,1,0,35,23,280,0,53298,1
2,31111,30156,31812,53046,24273,-3732,-1120,-40,552,-250,83,227,495,-137,1,0,35,23,320,0,53298,1
2,31095,30176,31840,53047,24283,-4181,-1096,-97,722,372,254,218,488,-130,1,0,35,23,360,0,53298,1
2,31103,30146,31838,53048,24295,-6321,248,-998,-683,306,359,214,496,-138,1,0,35,23,400,0,53298,1
2,31045,30150,31820,53049,24304,-4425,-977,97,-379,-447,-483,216,486,-134,1,0,35,23,440,0,53298,1
2,31048,30155,31809,53050,24314,-3867,-1049,-43,415,-251,-5,221,495,-141,1,0,35,23,480,0,53298,1
2,31062,30161,31835,53051,24324,-4141,-1192,131,1438,405,412,209,497,-121,1,0,35,23,520,0,53298,1
2,31076,30191,31837,53052,24334,-5888,-44,-978,-1889,105,100,208,496,-132,1,0,35,23,560,0,53298,1
2,31060,30162,31817,53053,24344,-4283,-926,203,-430,-461,-508,218,490,-134,1,0,35,23,600,0,53298,1
2,31085,30125,31818,53054,24353,-3779,-1067,-40,504,-246,92,218,488,-130,1,0,35,23,640,0,53298,1
2,31111,30165,31853,53055,24363,-3817,-1294,166,1488,473,317,215,499,-131,1,0,35,23,680,0,53298,1
2,31147,30189,31852,53056,24373,-6577,250,-1278,-1576,349,258,218,494,-136,1,0,35,23,720,0,53298,1
2,31076,30167,31828,53057,24383,-4366,-1014,191,-409,-485,-587,228,504,-132,1,0,35,23,760,0,53298,1
2,31079,30173,31815,53058,24394,-3754,-1021,-21,725,-315,70,210,494,-126,1,0,35,23,800,0,53298,1
2,31101,30190,31837,53059,24404,-3804,-1399,146,1436,407,305,213,497,-127,1,0,35,23,840,0,53298,1
2,31141,30230,31865,53060,24414,-6488,153,-1217,-1903,342,248,216,494,-128,1,0,35,23,880,0,53298,1
2,31084,30272,31833,53061,24425,-4343,-1015,226,-304,-511,-562,226,494,-134,1,0,35,23,920,0,53298,1
2,31057,30249,31808,53062,24437,-3712,-1036,-59,739,-319,111,217,497,-139,1,0,35,23,960,0,53298,1
1,31077,30300,31817,53063,0,-3888,-1294,101,1307,482,309,216,492,-130,1,0,35,24,0,1,53298,1
2,31085,30340,31824,53064,23747,-6443,245,-1222,-1487,296,322,225,499,-141,1,0,35,24,40,1,53298,1
2,31029,30340,31795,53065,23756,-4341,-987,209,-361,-531,-582,215,487,-127,1,0,35,24,80,1,53298,1
2,31037,30384,31783,53066,23767,-3719,-1046,-33,672,-288,63,213,497,-131,1,0,35,24,120,1,53298,1
2,31069,30411,31810,53067,23777,-3881,-1368,228,1840,431,423,213,503,-131,1,0,35,24,160,1,53298,1
2,31082,30452,31825,53068,23788,-5919,-299,-921,-2476,249,72,210,494,-140,1,0,35,24,200,1,53298,1
2,30981,30458,31791,53069,23798,-4205,-920,259,-38,-484,-521,220,498,-130,1,0,35,24,240,1,53298,1
2,31027,30457,31803,53070,23808,-3651,-1179,-59,662,-237,95,225,499,-139,1,0,35,24,280,1,53298,1
2,31065,30486,31815,53071,23818,-4206,-1074,-98,1106,541,376,207,501,-125,1,0,35,24,320,1,53298,1
2,31079,30537,31850,53072,23828,-6002,43,-1024,130,449,585,214,494,-124,1,0,35,24,360,1,53298,1
2,31060,30553,31831,53073,23838,-4304,-966,59,21,-530,-562,217,491,-135,1,0,35,24,400,1,53298,1
2,31094,30547,31835,53074,23848,-4157,-974,-141,11,-114,-49,213,485,-139,1,0,35,24,440,1,53298,1
2,31092,30545,31829,53075,23859,-4745,-940,-182,658,298,454,212,492,-136,1,0,35,24,480,1,53298,1
2,31078,30539,31818,53076,23870,-5085,-538,-420,-583,-175,1,216,494,-136,1,0,35,24,520,1,53298,1
2,31083,30530,31823,53077,23881,-4263,-945,9,-504,-347,-344,217,491,-127,1,0,35,24,560,1,53298,1
2,31070,30536,31806,53078,23892,-4337,-904,-102,-69,52,56,220,496,-132,1,0,35,24,600,1,53298,1
2,31076,30532,31807,53079,23902,-4759,-775,-169,963,316,367,216,496,-138,1,0,35,24,640,1,53298,1
2,31072,30526,31825,53080,23913,-4992,-625,-418,-559,-66,-94,215,495,-141,1,0,35,24,680,1,53298,1
2,31066,30530,31815,53081,23924,-4294,-915,-31,-568,-285,-321,212,492,-136,1,0,35,24,720,1,53298,1
2,31058,30549,31850,53082,23935,-4411,-887,-122,140,32,84,216,492,-132,1,0,35,24,760,1,53298,1
2,31065,30552,31809,53083,23945,-4962,-608,-276,610,207,294,212,494,-130,1,0,35,24,800,1,53298,1
2,31045,30546,31815,53084,23956,-4711,-817,-206,-1161,-246,-287,212,492,-136,1,0,35,24,840,1,53298,1
2,31045,30430,31809,53085,23966,-4286,-902,-73,-341,-189,-157,217,499,-119,1,0,35,24,880,1,53298,1
2,31037,30436,31816,53086,23977,-4389,-913,-73,386,83,117,214,498,-128,1,0,35,24,920,1,53298,1
2,31044,30476,31827,53087,23985,-4821,-660,-170,899,279,312,221,489,-131,1,0,35,24,960,1,53298,1
1,31044,30470,31822,53088,0,-4770,-775,-282,-735,-108,-89,218,484,-136,1,0,35,25,0,0,53298,1
2,31036,30468,31831,53089,23292,-4342,-870,-73,-80,-231,-132,209,497,-131,1,0,35,25,40,0,53298,1
2,31052,30471,31834,53090,23302,-4525,-795,-138,347,66,137,211,491,-133,1,0,35,25,80,0,53298,1
2,31063,30478,31838,53091,23312,-4988,-638,-320,273,177,228,214,494,-122,1,0,35,25,120,0,53298,1
2,31037,30483,31822,53092,23321,-4767,-869,-255,-1584,-298,-372,216,496,-126,1,0,35,25,160,0,53298,1
2,31057,30497,31834,53093,23331,-4280,-910,-19,-277,-185,-140,215,495,-131,1,0,35,25,200,0,53298,1
2,31057,30498,31853,53094,23341,-4278,-985,-17,207,67,64,213,493,-129,1,0,35,25,240,0,53298,1
2,31071,30479,31846,53095,23351,-4597,-807,-120,698,334,265,222,496,-128,1,0,35,25,280,0,53298,1
2,31080,30473,31836,53096,23361,-5143,-581,-603,-441,44,93,215,495,-137,1,0,35,25,320,0,53298,1
2,31073,30460,31840,53097,23370,-4366,-885,-20,54,-284,-222,216,502,-134,1,0,35,25,360,0,53298,1
2,31079,30437,31833,53098,23380,-4342,-925,-66,387,-54,60,209,497,-135,1,0,35,25,400,0,53298,1
2,31085,30437,31832,53099,23390,-4723,-770,-119,658,212,314,210,488,-122,1,0,35,25,440,0,53298,1
2,31058,30426,31821,53100,23400,-5007,-602,-439,-946,-135,-89,227,489,-135,1,0,35,25,480,0,53298,1
2,31048,30398,31820,53101,23410,-4310,-898,-20,-248,-251,-219,214,488,-134,1,0,35,25,520,0,53298,1
2,31046,30380,31808,53102,23420,-4251,-951,-48,252,36,53,221,489,-129,1,0,35,25,560,0,53298,1
2,31066,30401,31815,53103,23430,-4851,-668,-208,486,301,254,220,496,-130,1,0,35,25,600,0,53298,1
2,31067,30447,31807,53104,23440,-5080,-684,-439,-1331,-150,-196,217,499,-141,1,0,35,25,640,0,53298,1
2,31058,30445,31815,53105,23451,-4298,-893,1,-136,-287,-201,221,487,-129,1,0,35,25,680,0,53298,1
2,31064,30456,31811,53106,23462,-4109,-1097,-11,249,-58,41,218,496,-136,1,0,35,25,720,0,53298,1
2,31055,30445,31805,53107,23472,-4568,-805,-116,542,279,244,214,494,-142,1,0,35,25,760,0,53298,1
2,31063,30451,31808,53108,23482,-5469,-398,-755,-418,111,174,218,500,-132,1,0,35,25,800,0,53298,1
2,31049,30450,31797,53109,23493,-4410,-895,-2,-82,-266,-244,225,493,-121,1,0,35,25,840,0,53298,1
2,31059,30439,31801,53110,23503,-4141,-1015,-27,429,-92,24,221,487,-139,1,0,35,25,880,0,53298,1
2,31063,30459,31806,53111,23514,-4616,-829,-77,590,285,273,218,492,-138,1,0,35,25,920,0,53298,1
2,31066,30470,31807,53112,23524,-5264,-449,-569,-950,-14,9,217,491,-123,1,0,35,25,960,0,53298,1
1,31057,30464,31795,53113,0,-4311,-893,-9,-169,-299,-255,210,492,-142,1,0,35,26,0,0,53298,1
2,31045,30426,31802,53114,22839,-4106,-1054,-16,339,-50,43,213,493,-135,1,0,35,26,40,0,53298,1
2,31064,30390,31818,53115,22850,-4663,-811,-111,589,315,276,223,503,-125,1,0,35,26,80,0,53298,1
2,31045,30425,31795,53116,22860,-5345,-539,-592,-1458,-96,-115,221,497,-121,1,0,35,26,120,0,53298,1
2,31036,30405,31792,53117,22870,-4343,-849,30,-172,-358,-255,220,500,-128,1,0,35,26,160,0,53298,1
2,31045,30443,31786,53118,22881,-4032,-1040,-29,377,-167,34,217,495,-141,1,0,35,26,200,0,53298,1
2,31034,30434,31790,53119,22892,-4330,-886,-164,398,218,135,216,498,-130,1,0,35,26,240,0,53298,1
2,31030,30424,31790,53120,22902,-5718,-177,-706,-444,281,129,216,490,-124,1,0,35,26,280,0,53298,1
2,31026,30428,31784,53121,22913,-4759,-881,-111,-629,-216,-223,214,498,-138,1,0,35,26,320,0,53298,1
2,31010,30417,31770,53122,22923,-4058,-924,23,717,-244,45,219,493,-129,1,0,35,26,360,0,53298,1
2,31026,30428,31780,53123,22934,-4014,-1083,-34,552,164,132,220,494,-132,1,0,35,26,400,0,53298,1
2,31058,30451,31805,53124,22945,-5890,153,-837,-150,369,294,221,505,-137,1,0,35,26,440,0,53298,1
2,31019,30413,31799,53125,22956,-4934,-983,-128,-1260,-278,-386,213,497,-135,1,0,35,26,480,0,53298,1
2,30950,30411,31770,53126,22967,-4052,-825,91,858,-345,6,211,495,-129,1,0,35,26,520,0,53298,1
2,30974,30422,31781,53127,22978,-3768,-1381,72,428,42,103,221,489,-137,1,0,35,26,560,0,53298,1
2,31008,30432,31800,53128,22988,-4803,-608,-76,713,504,270,218,494,-132,1,0,35,26,600,0,53298,1
2,30997,30430,31810,53129,22997,-5505,-719,-591,-2026,10,-191,217,501,-119,1,0,35,26,640,0,53298,1
2,30956,30429,31780,53130,23007,-4220,-770,151,650,-382,-154,215,493,-133,1,0,35,26,680,0,53298,1
2,30986,30419,31793,53131,23018,-3732,-1251,5,669,-248,97,214,490,-142,1,0,35,26,720,0,53298,1
2,30986,30405,31807,53132,23028,-4083,-1134,-11,594,359,199,220,496,-142,1,0,35,26,760,0,53298,1
2,31009,30421,31808,53133,23038,-6475,82,-1076,-1959,260,43,209,493,-125,1,0,35,26,800,0,53298,1
2,30946,30418,31793,53134,23049,-4546,-860,135,109,-341,-298,223,499,-141,1,0,35,26,840,0,53298,1
2,30961,30389,31780,53135,23058,-3783,-1018,-7,1009,-386,148,219,501,-129,1,0,35,26,880,0,53298,1
2,30984,30430,31804,53136,23067,-3786,-1304,50,413,253,136,206,494,-128,1,0,35,26,920,0,53298,1
2,31022,30414,31822,53137,23076,-6773,777,-1294,-998,433,226,216,496,-140,1,0,35,26,960,0,53298,1
1,30972,30399,31796,53138,0,-4855,-1020,59,-576,-230,-390,215,499,-129,1,0,35,27,0,0,53298,1
2,30957,30383,31766,53139,22385,-3930,-839,41,1181,-399,111,217,495,-127,1,0,35,27,40,0,53298,1
2,30966,30384,31781,53140,22395,-3475,-1546,199,906,194,185,220,490,-142,1,0,35,27,80,0,53298,1
2,31006,30416,31810,53141,22404,-6894,1075,-1315,190,571,568,218,496,-132,1,0,35,27,120,0,53298,1
2,30978,30387,31795,53142,22415,-4842,-1339,58,-1291,-358,-554,228,490,-132,1,0,35,27,160,0,53298,1
2,30951,30384,31768,53143,22425,-3950,-760,109,695,-413,-68,218,492,-140,1,0,35,27,200,0,53298,1
2,30977,30385,31782,53144,22435,-3604,-1453,160,804,127,189,214,498,-134,1,0,35,27,240,0,53298,1
2,31013,30400,31815,53145,22445,-6821,899,-1213,397,527,699,218,494,-120,1,0,35,27,280,0,53298,1
2,31018,30354,31819,53146,22455,-4785,-1271,67,-1952,-444,-728,215,493,-137,1,0,35,27,320,0,53298,1
2,31006,30313,31821,53147,22465,-3997,-787,98,286,-337,-112,223,495,-141,1,0,35,27,360,0,53298,1
2,31038,30336,31846,53148,22475,-3728,-1449,89,303,69,75,219,485,-135,1,0,35,27,400,0,53298,1
2,31053,30351,31860,53149,22485,-5312,-246,-376,815,474,433,212,496,-132,1,0,35,27,440,0,53298,1
2,31015,30338,31813,53150,22496,-5207,-911,-288,-1949,-120,-348,216,486,-128,1,0,35,27,480,0,53298,1
2,30978,30309,31800,53151,22506,-4064,-840,128,352,-352,-151,223,495,-133,1,0,35,27,520,0,53298,1
2,31009,30325,31804,53152,22516,-3557,-1505,131,812,-85,129,220,496,-132,1,0,35,27,560,0,53298,1
2,31052,30374,31862,53153,22525,-4909,-476,-299,1335,494,428,224,490,-136,1,0,35,27,600,0,53298,1
2,31016,30335,31838,53154,22535,-5225,-937,-245,-2656,-14,-327,215,499,-119,1,0,35,27,640,0,53298,1
2,30998,30376,31820,53155,22545,-4040,-767,162,495,-443,-171,220,492,-140,1,0,35,27,680,0,53298,1
2,31032,30392,31827,53156,22555,-3512,-1510,64,880,-191,131,223,495,-127,1,0,35,27,720,0,53298,1
2,31058,30390,31852,53157,22564,-4357,-863,-65,1405,529,361,214,498,-132,1,0,35,27,760,0,53298,1
2,31047,30422,31855,53158,22575,-5959,-83,-971,-1780,264,151,218,496,-122,1,0,35,27,800,0,53298,1
2,31016,30420,31829,53159,22585,-4140,-897,171,-201,-516,-509,211,493,-125,1,0,35,27,840,0,53298,1
2,31019,30445,31827,53160,22595,-3587,-1237,-2,758,-254,83,214,500,-126,1,0,35,27,880,0,53298,1
2,31041,30453,31836,53161,22606,-4229,-1209,14,1974,483,505,211,501,-137,1,0,35,27,920,0,53298,1
2,31029,30335,31832,53162,22616,-5519,-499,-670,-2718,132,-66,218,502,-126,1,0,35,27,960,0,53298,1
1,31000,30367,31832,53163,0,-4106,-868,226,-138,-505,-484,223,491,-141,1,0,35,28,0,1,53298,1
2,30961,30339,31785,53164,21933,-3668,-1202,-81,556,-285,75,220,498,-132,1,0,35,28,40,1,53298,1
2,31010,30339,31795,53165,21944,-4213,-999,-90,849,465,288,219,503,-127,1,0,35,28,80,1,53298,1
2,31024,30341,31823,53166,21955,-6234,182,-1045,-1273,269,198,219,493,-125,1,0,35,28,120,1,53298,1
2,30991,30365,31829,53167,21967,-4342,-967,165,-505,-414,-499,215,501,-137,1,0,35,28,160,1,53298,1
2,30960,30390,31807,53168,21978,-3668,-1108,-16,813,-289,86,212,498,-130,1,0,35,28,200,1,53298,1
2,30965,30396,31849,53169,21989,-3662,-1427,247,2160,430,387,206,494,-134,1,0,35,28,240,1,53298,1
2,30999,30435,31853,53170,22000,-6418,-21,-1221,-2520,381,183,225,493,-135,1,0,35,28,280,1,53298,1
2,30920,30333,31802,53171,22012,-4228,-971,277,-152,-561,-583,211,495,-123,1,0,35,28,320,1,53298,1
2,30916,30300,31798,53172,22024,-3583,-1121,-73,750,-324,135,214,488,-134,1,0,35,28,360,1,53298,1
2,30957,30251,31822,53173,22035,-4052,-1244,-48,1234,491,394,213,493,-127,1,0,35,28,400,1,53298,1
2,30940,30095,31819,53174,22047,-6014,28,-969,-1416,275,232,211,495,-133,1,0,35,28,440,1,53298,1
2,30888,30129,31786,53175,22059,-4212,-978,197,-350,-529,-599,214,490,-138,1,0,35,28,480,1,53298,1
2,30933,30146,31783,53176,22069,-3659,-1186,-30,656,-220,56,213,497,-131,1,0,35,28,520,1,53298,1
2,30949,30198,31810,53177,22079,-4325,-1026,-9,1910,516,543,213,491,-139,1,0,35,28,560,1,53298,1
2,30938,30344,31795,53178,22090,-5440,-441,-648,-2003,111,10,217,501,-133,1,0,35,28,600,1,53298,1
2,30915,30405,31783,53179,22101,-4087,-874,215,-147,-527,-496,206,502,-124,1,0,35,28,640,1,53298,1
2,30938,30417,31816,53180,22112,-3660,-1294,12,488,-126,77,209,491,-137,1,0,35,28,680,1,53298,1
2,30969,30468,31830,53181,22122,-5028,-598,-326,1260,544,616,216,504,-136,1,0,35,28,720,1,53298,1
2,30945,30445,31808,53182,22133,-5164,-703,-370,-1681,-83,-211,218,496,-132,1,0,35,28,760,1,53298,1
2,30918,30447,31804,53183,22143,-4039,-886,142,-53,-410,-384,221,493,-129,1,0,35,28,800,1,53298,1
2,30936,30464,31827,53184,22152,-3726,-1302,78,544,36,106,216,488,-138,1,0,35,28,840,1,53298,1
2,30949,30478,31859,53185,22162,-5710,-92,-671,952,535,677,222,494,-136,1,0,35,28,880,1,53298,1
2,30907,30437,31829,53186,22172,-4935,-1002,-132,-1496,-286,-438,215,491,-133,1,0,35,28,920,1,53298,1
2,30930,30438,31799,53187,22183,-4029,-858,88,-18,-367,-252,215,495,-137,1,0,35,28,960,1,53298,1
1,30908,30426,31814,53188,0,-3851,-1274,95,442,95,140,211,489,-131,1,0,35,29,0,1,53298,1
2,30943,30459,31845,53189,21480,-5836,-30,-691,801,450,647,222,496,-132,1,0,35,29,40,1,53298,1
2,30934,30446,31839,53190,21490,-4803,-960,-122,-887,-315,-414,222,496,-130,1,0,35,29,80,1,53298,1
2,30579,30430,31790,53191,21500,-4067,-868,9,-62,-280,-226,219,487,-131,1,0,35,29,120,1,53298,1
2,29885,30424,31793,53192,21510,-4122,-1052,1,500,188,211,212,496,-140,1,0,35,29,160,1,53298,1
2,30442,30446,31822,53193,21520,-5876,55,-884,308,301,514,215,485,-131,1,0,35,29,200,1,53298,1
2,30545,30442,31803,53194,21531,-4619,-1022,-47,-1196,-445,-529,223,497,-135,1,0,35,29,240,1,53298,1
2,30543,30426,31784,53195,21542,-4075,-879,-28,-220,-226,-129,212,496,-132,1,0,35,29,280,1,53298,1
2,30551,30405,31793,53196,21554,-4225,-965,-15,490,224,217,223,495,-135,1,0,35,29,320,1,53298,1
2,30560,30433,31806,53197,21565,-5745,36,-718,760,364,513,215,507,-137,1,0,35,29,360,1,53298,1
2,30484,30436,31806,53198,21576,-4598,-977,-110,-623,-309,-400,221,485,-135,1,0,35,29,400,1,53298,1
2,30148,30427,31795,53199,21586,-4154,-898,-75,-36,-181,-150,212,492,-138,1,0,35,29,440,1,53298,1
2,30160,30431,31810,53200,21596,-4513,-897,-120,593,217,264,207,505,-127,1,0,35,29,480,1,53298,1
2,30187,30441,31818,53201,21607,-5519,-46,-832,-239,84,218,216,500,-128,1,0,35,29,520,1,53298,1
2,30159,30420,31813,53202,21618,-4511,-986,-2,-1568,-378,-530,227,501,-127,1,0,35,29,560,1,53298,1
2,30153,30407,31798,53203,21629,-4109,-940,-53,-140,-184,-38,215,489,-127,1,0,35,29,600,1,53298,1
2,30155,30438,31820,53204,21641,-4235,-985,-42,519,247,193,212,496,-134,1,0,35,29,640,1,53298,1
2,30148,30428,31820,53205,21653,-5581,-165,-537,595,400,395,213,489,-129,1,0,35,29,680,1,53298,1
2,30094,30407,31804,53206,21664,-4778,-1019,-218,-1312,-333,-442,213,485,-133,1,0,35,29,720,1,53298,1
2,29966,30391,31781,53207,21676,-4097,-905,43,353,-311,-118,216,494,-140,1,0,35,29,760,1,53298,1
2,30101,30397,31794,53208,21686,-4003,-1117,56,667,130,167,209,491,-139,1,0,35,29,800,1,53298,1
2,30103,30420,31795,53209,21697,-5692,-105,-535,1063,446,599,213,499,-141,1,0,35,29,840,1,53298,1
2,30137,30413,31795,53210,21708,-5001,-1047,-283,-2358,-398,-549,215,495,-135,1,0,35,29,880,1,53298,1
2,29866,30168,31781,53211,21720,-4107,-816,122,120,-384,-172,232,492,-130,1,0,35,29,920,1,53298,1
2,29805,30330,31766,53212,21731,-3893,-1284,-16,201,-96,71,206,496,-130,1,0,35,29,960,1,53298,1
1,29939,30401,31790,53213,0,-4268,-983,-22,753,418,223,228,492,-132,1,0,35,30,0,0,53298,1
2,29774,30354,31786,53214,21028,-6303,73,-1131,-1207,267,108,226,498,-136,1,0,35,30,40,0,53298,1
2,29910,30356,31765,53215,21039,-4478,-929,118,-102,-344,-378,219,493,-133,1,0,35,30,80,0,53298,1
2,29888,30365,31771,53216,21049,-3799,-1032,16,887,-315,92,222,488,-134,1,0,35,30,120,0,53298,1
2,29881,30390,31780,53217,21059,-3667,-1423,181,1353,335,260,220,494,-134,1,0,35,30,160,0,53298,1
2,29990,30371,31800,53218,21070,-7076,578,-1536,-1888,414,261,221,491,-133,1,0,35,30,200,0,53298,1
2,29919,30344,31789,53219,21081,-4541,-1008,198,-295,-491,-557,225,501,-139,1,0,35,30,240,0,53298,1
2,29927,30320,31780,53220,21092,-3776,-949,-11,999,-407,133,215,505,-137,1,0,35,30,280,0,53298,1
2,29945,30406,31804,53221,21104,-3676,-1388,152,733,346,196,216,496,-136,1,0,35,30,320,0,53298,1
2,29785,30381,31833,53222,21115,-7253,1054,-1446,-788,511,449,211,497,-121,1,0,35,30,360,0,53298,1
2,30099,30359,31814,53223,21126,-4763,-1157,123,-941,-429,-621,214,492,-118,1,0,35,30,400,0,53298,1
2,29931,30374,31805,53224,21138,-3890,-874,71,947,-394,33,227,489,-131,1,0,35,30,440,0,53298,1
2,29841,30383,31840,53225,21149,-3509,-1500,206,896,237,146,217,493,-137,1,0,35,30,480,0,53298,1
2,30075,30394,31844,53226,21160,-7039,1065,-1357,-163,576,544,215,497,-137,1,0,35,30,520,0,53298,1
2,29828,30378,31825,53227,21173,-4858,-1252,89,-1342,-415,-590,217,497,-133,1,0,35,30,560,0,53298,1
2,29919,30386,31803,53228,21184,-3930,-823,67,655,-395,-20,217,491,-125,1,0,35,30,600,0,53298,1
2,29828,30396,31819,53229,21195,-3459,-1575,261,1153,207,200,217,495,-137,1,0,35,30,640,0,53298,1
2,30234,30412,31849,53230,21206,-7282,1182,-1516,-147,560,631,218,502,-134,1,0,35,30,680,0,53298,1
2,29834,30405,31812,53231,21218,-4735,-1312,177,-1442,-478,-709,220,496,-126,1,0,35,30,720,0,53298,1
2,30171,30415,31796,53232,21230,-3920,-786,45,501,-354,-38,222,494,-142,1,0,35,30,760,0,53298,1
2,30092,30412,31807,53233,21241,-3597,-1466,181,961,245,187,213,491,-135,1,0,35,30,800,0,53298,1
2,30130,30416,31820,53234,21252,-6873,588,-1228,362,618,715,225,499,-137,1,0,35,30,840,0,53298,1
2,30131,30411,31810,53235,21263,-4727,-1278,65,-1195,-446,-638,220,496,-138,1,0,35,30,880,0,53298,1
2,30094,30379,31809,53236,21274,-3939,-886,8,177,-291,-169,221,487,-135,1,0,35,30,920,0,53298,1
2,30092,30395,31821,53237,21286,-3818,-1317,175,1045,298,260,216,490,-132,1,0,35,30,960,0,53298,1
1,30163,30408,31833,53238,0,-6667,725,-1356,-175,405,567,219,487,-125,1,0,35,31,0,1,53298,1
2,30087,30395,31790,53239,20576,-4483,-1120,180,-1216,-551,-738,221,493,-127,1,0,35,31,40,1,53298,1
2,30108,30375,31802,53240,20587,-3925,-891,2,73,-244,-69,222,492,-140,1,0,35,31,80,1,53298,1
2,30203,30384,31809,53241,20599,-3937,-1251,111,1073,338,296,219,501,-125,1,0,35,31,120,1,53298,1
2,30222,30377,31815,53242,20610,-6656,636,-1268,149,444,600,221,497,-133,1,0,35,31,160,1,53298,1
2,30211,30371,31810,53243,20621,-4478,-1150,126,-1154,-518,-726,214,498,-122,1,0,35,31,200,1,53298,1
2,30229,30375,31798,53244,20632,-3907,-933,-16,65,-236,-84,226,490,-138,1,0,35,31,240,1,53298,1
2,30233,30358,31808,53245,20643,-4063,-1184,78,1285,360,392,218,500,-136,1,0,35,31,280,1,53298,1
2,30269,30395,31807,53246,20654,-6161,285,-1169,-58,309,529,213,503,-129,1,0,35,31,320,1,53298,1
2,30212,30333,31800,53247,20666,-4354,-1081,141,-975,-563,-688,218,500,-128,1,0,35,31,360,1,53298,1
2,30236,30340,31802,53248,20677,-3922,-1002,-54,22,-176,-66,222,496,-134,1,0,35,31,400,1,53298,1
2,30269,30350,31815,53249,20689,-4269,-1077,13,1406,418,476,208,494,-144,1,0,35,31,440,1,53298,1
2,30248,30345,31823,53250,20700,-5790,231,-1035,-533,213,286,204,496,-126,1,0,35,31,480,1,53298,1
2,30227,30328,31800,53251,20712,-4259,-1018,162,-998,-520,-677,220,494,-128,1,0,35,31,520,1,53298,1
2,30247,30321,31789,53252,20723,-3917,-1062,-78,-3,-141,-19,221,501,-141,1,0,35,31,560,1,53298,1
2,30276,30330,31823,53253,20733,-4613,-973,-141,1248,420,486,212,494,-126,1,0,35,31,600,1,53298,1
2,30276,30339,31818,53254,20744,-5376,-429,-576,-1209,-17,-12,214,482,-140,1,0,35,31,640,1,53298,1
2,30239,30294,31803,53255,20755,-4173,-922,120,-464,-401,-420,211,499,-131,1,0,35,31,680,1,53298,1
2,30245,30322,31807,53256,20766,-3902,-1196,-8,261,-57,43,227,493,-137,1,0,35,31,720,1,53298,1
2,30267,30332,31843,53257,20778,-4978,-597,-275,1019,431,459,217,487,-133,1,0,35,31,760,1,53298,1
2,30240,30318,31814,53258,20790,-5105,-697,-364,-1459,-162,-208,218,494,-136,1,0,35,31,800,1,53298,1
2,29891,30312,31802,53259,20801,-4107,-856,93,-75,-355,-257,221,493,-131,1,0,35,31,840,1,53298,1
2,29909,30313,31765,53260,20814,-3837,-1272,77,441,11,97,217,497,-137,1,0,35,31,880,1,53298,1
2,29906,30319,31783,53261,20825,-5295,-268,-444,957,438,524,217,497,-135,1,0,35,31,920,1,53298,1
2,29793,30290,31785,53262,20837,-5063,-833,-306,-1536,-182,-317,215,493,-131,1,0,35,31,960,1,53298,1
1,29962,30275,31762,53263,0,-4081,-864,97,-12,-355,-229,216,492,-140,1,0,35,32,0,1,53298,1
2,30001,30285,31758,53264,20124,-3815,-1315,83,463,33,112,211,497,-125,1,0,35,32,40,1,53298,1
2,30019,30283,31797,53265,20136,-5379,-361,-403,956,457,544,217,497,-127,1,0,35,32,80,1,53298,1
2,29643,30293,31775,53266,20148,-5042,-880,-257,-1644,-248,-347,217,503,-129,1,0,35,32,120,1,53298,1
2,29516,30278,31750,53267,20159,-4062,-868,89,-48,-364,-218,219,495,-141,1,0,35,32,160,1,53298,1
2,29408,30302,31774,53268,20171,-3804,-1349,93,359,15,104,215,501,-131,1,0,35,32,200,1,53298,1
2,29586,30310,31799,53269,20182,-5287,-281,-372,631,462,457,217,495,-145,1,0,35,32,240,1,53298,1
2,29462,30290,31814,53270,20193,-5135,-889,-340,-1466,-171,-300,226,494,-138,1,0,35,32,280,1,53298,1
2,29512,30248,31789,53271,20205,-4104,-864,99,282,-334,-180,219,493,-139,1,0,35,32,320,1,53298,1
2,29527,30294,31795,53272,20217,-3738,-1374,105,544,17,96,217,497,-139,1,0,35,32,360,1,53298,1
2,29647,30304,31821,53273,20228,-5400,-95,-567,434,436,409,211,499,-137,1,0,35,32,400,1,53298,1
2,29579,30278,31818,53274,20240,-5060,-923,-237,-1683,-209,-343,224,496,-142,1,0,35,32,440,1,53298,1
2,29570,30171,31788,53275,20251,-4089,-793,100,408,-364,-106,216,496,-132,1,0,35,32,480,1,53298,1
2,29580,30310,31784,53276,20263,-3659,-1474,142,552,-21,121,233,499,-135,1,0,35,32,520,1,53298,1
2,29542,30314,31821,53277,20275,-5080,-379,-357,511,439,347,218,488,-120,1,0,35,32,560,1,53298,1
2,29492,30304,31818,53278,20286,-5262,-683,-405,-1216,-55,-160,219,489,-129,1,0,35,32,600,1,53298,1
2,29443,30305,31773,53279,20298,-4138,-826,86,357,-346,-198,219,491,-129,1,0,35,32,640,1,53298,1
2,29433,30315,31792,53280,20310,-3684,-1358,116,684,-36,88,215,497,-129,1,0,35,32,680,1,53298,1
2,29459,30309,31798,53281,20322,-5487,114,-694,441,422,445,222,492,-132,1,0,35,32,720,1,53298,1
2,29426,30270,31793,53282,20334,-5071,-995,-189,-1898,-204,-385,219,491,-137,1,0,35,32,760,1,53298,1
2,29420,30301,31778,53283,20346,-4083,-757,91,504,-389,-89,223,493,-141,1,0,35,32,800,1,53298,1
2,29475,30324,31796,53284,20358,-3619,-1482,117,519,-61,99,222,502,-132,1,0,35,32,840,1,53298,1
2,29443,30342,31848,53285,20370,-4997,-411,-384,344,425,286,222,492,-136,1,0,35,32,880,1,53298,1
2,29483,30302,31831,53286,20382,-5349,-670,-370,-1618,17,-195,225,499,-135,1,0,35,32,920,1,53298,1
2,29440,30256,31777,53287,20394,-4179,-773,69,535,-333,-134,217,497,-127,1,0,35,32,960,1,53298,1
1,29464,30334,31775,53288,0,-3568,-1444,108,802,-93,108,215,493,-127,1,0,35,33,0,1,53298,1
2,29488,30335,31810,53289,19671,-4832,-456,-405,651,460,319,222,494,-142,1,0,35,33,40,1,53298,1
2,29770,30331,31801,53290,19682,-5315,-700,-319,-1972,-17,-219,221,499,-133,1,0,35,33,80,1,53298,1
2,29775,30327,31776,53291,19692,-4126,-705,121,589,-396,-144,220,496,-136,1,0,35,33,120,1,53298,1
2,29798,30335,31766,53292,19702,-3544,-1479,89,810,-151,131,216,492,-136,1,0,35,33,160,1,53298,1
2,29798,30326,31802,53293,19713,-4536,-695,-133,920,506,351,217,489,-123,1,0,35,33,200,1,53298,1
2,29793,30321,31790,53294,19724,-5635,-450,-663,-2043,61,-84,219,491,-129,1,0,35,33,240,1,53298,1
2,29761,30313,31752,53295,19735,-4194,-774,168,99,-491,-349,217,499,-127,1,0,35,33,280,1,53298,1
2,29778,30311,31752,53296,19746,-3696,-1187,-30,603,-306,95,225,493,-141,1,0,35,33,320,1,53298,1
2,29783,30322,31770,53297,19757,-3999,-1153,-37,578,330,211,220,492,-126,1,0,35,33,360,1,53298,1
2,29819,30317,31766,53298,19767,-6669,256,-1071,-1303,361,165,214,504,-130,1,0,35,33,400,1,53298,1
2,29792,30333,31751,53299,19777,-4569,-951,94,-225,-318,-381,216,490,-126,1,0,35,33,440,1,53298,1
2,29791,30323,31725,53300,19787,-3765,-1046,-9,996,-351,111,220,490,-134,1,0,35,33,480,1,53298,1
2,29739,30332,31750,53301,19797,-3560,-1477,276,1374,331,230,219,501,-125,1,0,35,33,520,1,53298,1
2,29821,30305,31778,53302,19807,-7210,572,-1476,-2069,419,223,212,496,-136,1,0,35,33,560,1,53298,1
2,29819,30331,31767,53303,19817,-4581,-1006,212,-187,-451,-489,222,488,-136,1,0,35,33,600,1,53298,1
2,29650,30331,31758,53304,19827,-3768,-999,-30,1013,-419,139,220,498,-128,1,0,35,33,640,1,53298,1
2,29611,30346,31771,53305,19837,-3564,-1530,205,1066,350,245,214,490,-132,1,0,35,33,680,1,53298,1
2,29232,30331,31770,53306,19848,-7364,832,-1531,-1163,515,443,222,484,-136,1,0,35,33,720,1,53298,1
2,29324,30315,31758,53307,19859,-4641,-1152,181,-628,-505,-667,212,494,-126,1,0,35,33,760,1,53298,1
2,29266,30318,31755,53308,19871,-3833,-939,-16,793,-369,32,213,493,-137,1,0,35,33,800,1,53298,1
2,29391,30338,31773,53309,19881,-3639,-1477,196,1121,324,220,216,500,-134,1,0,35,33,840,1,53298,1
2,29401,30323,31785,53310,19891,-7162,940,-1427,-982,477,473,215,489,-133,1,0,35,33,880,1,53298,1
2,29382,30300,31764,53311,19901,-4643,-1132,141,-876,-486,-633,222,490,-136,1,0,35,33,920,1,53298,1
2,29480,30291,31738,53312,19911,-3846,-944,5,581,-354,30,208,502,-136,1,0,35,33,960,1,53298,1
1,29408,30317,31776,53313,0,-3672,-1437,185,964,330,227,213,493,-135,1,0,35,34,0,1,53298,1
2,29420,30324,31785,53314,19219,-7075,796,-1355,-796,456,456,215,493,-127,1,0,35,34,40,1,53298,1
2,29398,30312,31764,53315,19230,-4630,-1128,163,-799,-466,-634,222,492,-128,1,0,35,34,80,1,53298,1
2,29407,30311,31746,53316,19240,-3843,-938,-16,559,-349,9,217,495,-135,1,0,35,34,120,1,53298,1
2,29381,30325,31750,53317,19251,-3625,-1442,193,1117,333,260,219,491,-137,1,0,35,34,160,1,53298,1
2,29430,30311,31785,53318,19261,-7047,809,-1406,-899,406,480,222,496,-136,1,0,35,34,200,1,53298,1
2,29463,30302,31762,53319,19272,-4548,-1115,190,-743,-514,-655,221,499,-139,1,0,35,34,240,1,53298,1
2,29467,30279,31747,53320,19283,-3819,-967,-47,520,-340,33,221,489,-135,1,0,35,34,280,1,53298,1
2,29412,30317,31753,53321,19293,-3735,-1396,171,1133,384,250,215,505,-137,1,0,35,34,320,1,53298,1
2,29440,30308,31777,53322,19304,-6864,610,-1364,-987,407,410,225,493,-135,1,0,35,34,360,1,53298,1
2,29396,30312,31751,53323,19314,-4513,-1064,197,-545,-497,-620,216,506,-142,1,0,35,34,400,1,53298,1
2,29367,30289,31745,53324,19324,-3806,-985,-35,543,-285,27,213,495,-135,1,0,35,34,440,1,53298,1
2,29406,30281,31749,53325,19335,-3775,-1404,143,1225,410,291,213,493,-135,1,0,35,34,480,1,53298,1
2,29437,30269,31760,53326,19345,-6517,294,-1245,-1270,335,352,218,504,-130,1,0,35,34,520,1,53298,1
2,29410,30280,31730,53327,19355,-4390,-1004,205,-392,-494,-601,215,495,-131,1,0,35,34,560,1,53298,1
2,29416,30258,31737,53328,19366,-3736,-1045,-59,544,-261,40,212,490,-132,1,0,35,34,600,1,53298,1
2,29416,30303,31760,53329,19377,-4046,-1217,73,1306,457,359,217,489,-141,1,0,35,34,640,1,53298,1
2,29430,30248,31786,53330,19387,-5912,-281,-868,-1957,145,99,221,495,-139,1,0,35,34,680,1,53298,1
2,29384,30279,31768,53331,19398,-4238,-879,201,164,-434,-371,226,494,-136,1,0,35,34,720,1,53298,1
2,29410,30274,31735,53332,19409,-3639,-1175,-17,783,-237,144,217,497,-135,1,0,35,34,760,1,53298,1
2,29416,30297,31771,53333,19420,-4190,-1103,-72,1012,446,337,211,493,-121,1,0,35,34,800,1,53298,1
2,29408,30280,31778,53334,19431,-5948,-147,-919,-1204,182,213,205,495,-121,1,0,35,34,840,1,53298,1
2,29396,30265,31754,53335,19443,-4248,-913,145,-240,-520,-505,212,500,-128,1,0,35,34,880,1,53298,1
2,29405,30304,31755,53336,19454,-3703,-1147,-27,545,-201,41,217,495,-135,1,0,35,34,920,1,53298,1
2,29343,30309,31760,53337,19465,-4269,-1128,-40,1525,449,449,215,497,-139,1,0,35,34,960,1,53298,1
1,29372,30309,31792,53338,0,-5577,-364,-692,-1717,157,33,215,491,-127,1,0,35,35,0,0,53298,1
2,29205,30292,31772,53339,18767,-4171,-893,171,-317,-436,-491,209,499,-125,1,0,35,35,40,0,53298,1
2,29212,30282,31740,53340,18779,-3720,-1215,-37,395,-170,37,216,498,-126,1,0,35,35,80,0,53298,1
2,29241,30290,31780,53341,18789,-4553,-948,-158,981,449,407,220,490,-128,1,0,35,35,120,0,53298,1
2,29259,30293,31788,53342,18800,-5531,-439,-611,-1570,44,-36,223,497,-131,1,0,35,35,160,0,53298,1
2,29226,30327,31763,53343,18811,-4177,-894,136,-245,-387,-381,221,489,-141,1,0,35,35,200,0,53298,1
2,29250,30305,31760,53344,18822,-3695,-1282,7,488,-162,79,220,496,-136,1,0,35,35,240,0,53298,1
2,29229,30329,31772,53345,18833,-4683,-771,-317,793,404,379,216,492,-140,1,0,35,35,280,0,53298,1
2,29236,30312,31758,53346,18844,-5435,-617,-444,-1814,-51,-148,220,500,-122,1,0,35,35,320,0,53298,1
2,29172,30305,31732,53347,18856,-4129,-799,140,398,-380,-168,218,496,-138,1,0,35,35,360,0,53298,1
2,29206,30316,31747,53348,18867,-3586,-1386,94,812,-148,157,219,497,-137,1,0,35,35,400,0,53298,1
2,29201,30332,31784,53349,18879,-4441,-926,-218,1198,405,357,219,497,-133,1,0,35,35,440,0,53298,1
2,29203,30330,31782,53350,18891,-5624,-506,-532,-2112,142,-117,219,493,-135,1,0,35,35,480,0,53298,1
2,29196,30335,31755,53351,18903,-4101,-852,170,203,-436,-322,228,500,-128,1,0,35,35,520,0,53298,1
2,29173,30351,31756,53352,18916,-3535,-1398,60,871,-172,135,222,502,-128,1,0,35,35,560,0,53298,1
2,29244,30352,31773,53353,18927,-4709,-652,-355,1050,497,409,217,483,-129,1,0,35,35,600,0,53298,1
2,29256,30343,31760,53354,18939,-5352,-622,-338,-2140,64,-169,217,499,-127,1,0,35,35,640,0,53298,1
2,29204,30310,31740,53355,18951,-4074,-759,146,344,-401,-184,221,487,-131,1,0,35,35,680,0,53298,1
2,29182,30320,31720,53356,18963,-3514,-1456,105,878,-93,173,222,494,-140,1,0,35,35,720,0,53298,1
2,29248,30311,31792,53357,18974,-5309,-93,-812,418,494,426,216,496,-138,1,0,35,35,760,0,53298,1
2,29198,30291,31754,53358,18986,-5061,-888,-93,-1802,-78,-279,221,485,-129,1,0,35,35,800,0,53298,1
2,29194,30304,31733,53359,18997,-4085,-703,106,732,-422,43,221,495,-129,1,0,35,35,840,0,53298,1
2,29218,30330,31729,53360,19009,-3442,-1533,185,966,-96,296,215,491,-133,1,0,35,35,880,0,53298,1
2,29248,30312,31782,53361,19021,-6060,507,-1219,-267,371,529,220,490,-132,1,0,35,35,920,0,53298,1
2,29180,30314,31750,53362,19034,-4965,-1005,17,-1341,-504,-275,213,493,-129,1,0,35,35,960,0,53298,1
1,29245,30325,31729,53363,0,-4029,-738,37,586,-847,218,211,489,-131,1,0,35,36,0,0,53298,1
2,29210,30329,31746,53364,18316,-3472,-1516,236,997,-613,550,214,488,-134,1,0,35,36,40,0,53298,1
2,29256,30338,31789,53365,18327,-6801,1037,-1352,-837,-514,947,213,495,-127,1,0,35,36,80,0,53298,1
2,29264,30322,31766,53366,18340,-4810,-1105,193,-1053,-1430,34,213,497,-119,1,0,35,36,120,0,53298,1
2,29240,30346,31754,53367,18352,-4001,-728,107,563,-1333,452,211,497,-133,1,0,35,36,160,0,53298,1
2,29264,30374,31770,53368,18363,-3611,-1380,390,1046,-780,661,211,485,-123,1,0,35,36,200,0,53298,1
2,29268,30332,31791,53369,18375,-6706,638,-1144,-1240,-787,943,209,499,-119,1,0,35,36,240,0,53298,1
2,29267,30339,31744,53370,18388,-4623,-1028,207,-562,-1314,-143,212,498,-120,1,0,35,36,280,0,53298,1
2,29278,30335,31740,53371,18399,-3950,-745,289,738,-1012,257,208,496,-122,1,0,35,36,320,0,53298,1
2,29279,30358,31758,53372,18411,-4146,-1057,251,777,-480,589,211,493,-113,1,0,35,36,360,0,53298,1
2,29302,30347,31778,53373,18423,-5728,-224,-598,-1517,-809,566,217,499,-111,1,0,35,36,400,0,53298,1
2,29196,30374,31768,53374,18435,-4413,-773,256,-148,-980,-31,207,491,-115,1,0,35,36,440,0,53298,1
2,29229,30371,31748,53375,18447,-4008,-918,339,451,-883,375,202,484,-112,1,0,35,36,480,0,53298,1
2,29185,30355,31764,53376,18459,-4892,-410,-57,-406,-704,704,209,495,-115,1,0,35,36,520,0,53298,1
2,29201,30342,31766,53377,18471,-4959,-562,-113,-796,-1101,485,199,493,-109,1,0,35,36,560,0,53298,1
2,29179,30352,31775,53378,18482,-4399,-623,278,194,-960,181,209,489,-109,1,0,35,36,600,0,53298,1
2,29445,30356,31796,53379,18494,-4594,-559,179,-401,-908,260,210,484,-108,1,0,35,36,640,0,53298,1
2,29532,30313,31760,53380,18505,-4885,-612,50,-1512,-1067,327,213,493,-103,1,0,35,36,680,0,53298,1
2,29569,30288,31736,53381,18516,-4485,-677,269,-241,-1020,483,203,497,-97,1,0,35,36,720,0,53298,1
2,29791,30311,31750,53382,18527,-4606,-543,219,-539,-945,441,208,484,-108,1,0,35,36,760,0,53298,1
2,29938,30322,31732,53383,18538,-4530,-647,289,-585,-802,408,205,487,-103,1,0,35,36,800,0,53298,1
2,29884,30323,31744,53384,18549,-4292,-771,322,157,-473,297,191,487,-93,1,0,35,36,840,0,53298,1
2,29928,30300,31736,53385,18561,-4746,-404,239,-198,-130,128,198,490,-86,1,0,35,36,880,0,53298,1
2,29862,30297,31737,53386,18572,-4749,-526,207,-275,13,-15,216,482,-108,1,0,35,36,920,0,53298,1
2,29851,30293,31725,53387,18584,-4465,-647,293,336,237,-139,201,481,-99,1,0,35,36,960,0,53298,1
1,29847,30280,31749,53388,0,-4357,-693,377,441,448,-214,207,495,-101,1,0,35,37,0,1,53298,1
2,29706,30258,31732,53389,17864,-5230,-206,-56,-687,379,-254,210,484,-102,1,0,35,37,40,1,53298,1
2,29615,30260,31735,53390,17875,-4935,-574,129,-571,385,-378,216,482,-112,1,0,35,37,80,1,53298,1
2,29595,30246,31726,53391,17887,-4192,-741,408,1030,588,-272,209,481,-95,1,0,35,37,120,1,53298,1
2,29595,30239,31721,53392,17898,-3853,-1003,500,844,842,-193,206,488,-104,1,0,35,37,160,1,53298,1
2,29549,30255,31759,53393,17909,-4470,-487,133,189,1090,-215,210,486,-106,1,0,35,37,200,1,53298,1
2,29488,30220,31745,53394,17920,-5725,-489,-177,-2091,965,-483,205,505,-105,1,0,35,37,240,1,53298,1
2,29398,30234,31730,53395,17932,-4347,-653,283,1205,1041,-566,207,487,-115,1,0,35,37,280,1,53298,1
