sensorStatus,cap1,cap2,cap3,counter,microseconds_since_last_tick,accX,accY,accZ,gyroX,gyroY,gyroZ,magnetX,magnetY,magnetZ,day,hour,min,sec,msec,sync,battery_fuel,crc_good
2,27978,34126,31415,89814,36426,-4576,-1288,-488,-3,-16,14,241,495,-201,1,0,59,54,40,0,53298,1
2,27977,34122,31415,89815,36440,-4565,-1287,-494,-7,-18,19,243,497,-193,1,0,59,54,80,0,53298,1
2,27983,34120,31415,89816,36454,-4565,-1281,-487,-5,-33,26,246,500,-200,1,0,59,54,120,0,53298,1
2,28003,34118,31413,89817,36468,-4563,-1269,-479,-7,-24,21,246,500,-188,1,0,59,54,160,0,53298,1
2,27948,34123,31415,89818,36481,-4558,-1282,-482,-5,-11,30,242,496,-198,1,0,59,54,200,0,53298,1
2,27954,34123,31416,89819,36494,-4566,-1277,-493,-8,-5,26,238,500,-192,1,0,59,54,240,0,53298,1
2,27948,34122,31411,89820,36507,-4572,-1277,-493,-9,2,23,243,493,-197,1,0,59,54,280,0,53298,1
2,27959,34121,31418,89821,36520,-4565,-1281,-496,-8,-18,20,237,503,-197,1,0,59,54,320,0,53298,1
2,27949,34120,31414,89822,36533,-4584,-1291,-484,-2,-14,19,243,499,-197,1,0,59,54,360,0,53298,1
2,27964,34121,31415,89823,36546,-4565,-1281,-480,-10,-21,20,240,500,-196,1,0,59,54,400,0,53298,1
2,27962,34126,31414,89824,36559,-4579,-1280,-479,-12,-7,18,237,497,-181,1,0,59,54,440,0,53298,1
2,27961,34120,31412,89825,36573,-4584,-1287,-486,-4,5,17,233,495,-193,1,0,59,54,480,0,53298,1
2,27959,34118,31415,89826,36587,-4564,-1277,-494,-13,-1,7,240,502,-188,1,0,59,54,520,0,53298,1
2,27947,34120,31417,89827,36601,-4574,-1284,-499,-7,-10,21,244,498,-190,1,0,59,54,560,0,53298,1
2,27946,34122,31421,89828,36615,-4568,-1283,-491,-2,-19,24,241,495,-197,1,0,59,54,600,0,53298,1
2,27950,34122,31414,89829,36629,-4565,-1267,-486,-11,-14,29,238,500,-182,1,0,59,54,640,0,53298,1
2,27951,34121,31415,89830,36642,-4578,-1297,-497,-9,1,26,241,505,-193,1,0,59,54,680,0,53298,1
2,27942,34128,31417,89831,36656,-4568,-1274,-494,-9,-1,21,245,491,-197,1,0,59,54,720,0,53298,1
2,27929,34123,31417,89832,36670,-4576,-1289,-492,-10,-18,19,250,498,-204,1,0,59,54,760,0,53298,1
2,27911,34124,31417,89833,36683,-4566,-1290,-487,2,-29,26,240,496,-186,1,0,59,54,800,0,53298,1
2,27937,34122,31421,89834,36696,-4572,-1276,-488,-1,-17,23,241,495,-197,1,0,59,54,840,0,53298,1
2,27940,34131,31421,89835,36709,-4567,-1282,-490,-7,-2,20,244,500,-200,1,0,59,54,880,0,53298,1
2,27949,34122,31416,89836,36722,-4575,-1288,-487,-7,3,20,242,500,-190,1,0,59,54,920,0,53298,1
2,27960,34127,31420,89837,36735,-4569,-1284,-491,-11,-3,25,243,499,-185,1,0,59,54,960,0,53298,1
1,27960,34123,31417,89838,0,-4573,-1286,-486,-7,-21,25,243,497,-197,1,0,59,55,0,0,53298,1
2,27939,34129,31417,89839,35974,-4585,-1295,-483,-3,-33,21,242,506,-194,1,0,59,55,40,0,53298,1
2,27945,34128,31419,89840,35987,-4563,-1268,-491,-10,-35,36,241,505,-185,1,0,59,55,80,0,53298,1
2,27947,34126,31421,89841,35999,-4565,-1281,-477,-4,-21,21,241,499,-189,1,0,59,55,120,0,53298,1
2,27916,34126,31417,89842,36012,-4573,-1280,-483,-10,-9,16,247,495,-197,1,0,59,55,160,0,53298,1
2,27926,34130,31417,89843,36025,-4578,-1283,-488,-8,2,10,241,495,-177,1,0,59,55,200,0,53298,1
2,27889,34124,31420,89844,36037,-4580,-1279,-483,-6,-9,15,244,504,-192,1,0,59,55,240,0,53298,1
2,27887,34126,31421,89845,36050,-4582,-1302,-488,-11,-22,17,245,505,-195,1,0,59,55,280,0,53298,1
2,27884,34126,31421,89846,36063,-4577,-1280,-473,-7,-26,18,244,496,-190,1,0,59,55,320,0,53298,1
2,27888,34126,31417,89847,36076,-4570,-1288,-499,-13,-13,21,245,485,-197,1,0,59,55,360,0,53298,1
2,27874,34128,31418,89848,36089,-4568,-1281,-483,-6,-15,19,237,499,-197,1,0,59,55,400,0,53298,1
2,27852,34124,31422,89849,36103,-4578,-1289,-487,-3,-6,19,241,499,-179,1,0,59,55,440,0,53298,1
2,27851,34128,31421,89850,36116,-4559,-1271,-497,-6,-1,20,238,502,-192,1,0,59,55,480,0,53298,1
2,27860,34131,31417,89851,36129,-4558,-1283,-495,-11,-23,21,236,502,-196,1,0,59,55,520,0,53298,1
2,27854,34120,31415,89852,36142,-4568,-1282,-491,1,-30,28,240,492,-196,1,0,59,55,560,0,53298,1
2,27862,34129,31417,89853,36155,-4568,-1281,-483,-3,-22,20,248,500,-188,1,0,59,55,600,0,53298,1
2,27843,34129,31420,89854,36168,-4567,-1274,-487,1,-7,20,242,496,-190,1,0,59,55,640,0,53298,1
2,27842,34128,31421,89855,36181,-4572,-1279,-501,-5,13,20,240,502,-196,1,0,59,55,680,0,53298,1
2,27847,34127,31417,89856,36193,-4567,-1275,-497,1,6,15,242,494,-192,1,0,59,55,720,0,53298,1
2,27845,34128,31417,89857,36205,-4576,-1280,-490,-14,-9,20,230,502,-184,1,0,59,55,760,0,53298,1
2,27843,34126,31417,89858,36217,-4586,-1284,-483,-6,-22,22,239,501,-179,1,0,59,55,800,0,53298,1
2,27847,34127,31418,89859,36229,-4563,-1280,-481,-6,-27,14,238,502,-200,1,0,59,55,840,0,53298,1
2,27841,34127,31425,89860,36242,-4575,-1281,-477,-8,-15,18,243,499,-191,1,0,59,55,880,0,53298,1
2,27856,34130,31417,89861,36254,-4575,-1284,-478,-8,-17,26,244,502,-196,1,0,59,55,920,0,53298,1
2,27854,34128,31423,89862,36267,-4566,-1283,-502,-6,-11,28,239,503,-191,1,0,59,55,960,0,53298,1
1,27853,34128,31422,89863,0,-4562,-1276,-483,-6,-14,31,244,490,-196,1,0,59,56,0,0,53298,1
2,27858,34128,31420,89864,35522,-4570,-1282,-491,2,-3,16,252,500,-200,1,0,59,56,40,0,53298,1
2,27847,34132,31421,89865,35535,-4573,-1287,-489,-14,-4,11,252,502,-194,1,0,59,56,80,0,53298,1
2,27848,34127,31424,89866,35548,-4569,-1284,-490,-8,-16,21,243,495,-197,1,0,59,56,120,0,53298,1
2,27837,34131,31428,89867,35561,-4569,-1277,-495,8,-17,18,238,494,-190,1,0,59,56,160,0,53298,1
2,27825,34131,31424,89868,35574,-4560,-1275,-485,-7,-12,23,246,500,-196,1,0,59,56,200,0,53298,1
2,27846,34126,31418,89869,35587,-4566,-1271,-501,-5,-3,20,248,502,-192,1,0,59,56,240,0,53298,1
2,27832,34130,31422,89870,35600,-4560,-1284,-490,-9,8,24,246,506,-198,1,0,59,56,280,0,53298,1
2,27833,34128,31424,89871,35614,-4567,-1278,-490,10,1,23,255,495,-197,1,0,59,56,320,0,53298,1
2,27850,34130,31422,89872,35627,-4568,-1274,-495,1,-9,26,244,500,-200,1,0,59,56,360,0,53298,1
2,27806,34131,31418,89873,35640,-4575,-1281,-488,2,-18,41,242,502,-198,1,0,59,56,400,0,53298,1
2,27812,34128,31423,89874,35653,-4578,-1280,-496,0,-22,41,246,500,-202,1,0,59,56,440,0,53298,1
2,27813,34126,31421,89875,35666,-4581,-1288,-489,1,-13,45,245,499,-187,1,0,59,56,480,0,53298,1
2,27818,34125,31418,89876,35679,-4563,-1272,-477,0,-12,36,245,495,-193,1,0,59,56,520,0,53298,1
2,27828,34125,31422,89877,35692,-4575,-1284,-485,-1,-4,31,246,502,-194,1,0,59,56,560,0,53298,1
2,27793,34127,31419,89878,35705,-4574,-1284,-478,0,-19,31,247,497,-195,1,0,59,56,600,0,53298,1
2,27810,34123,31417,89879,35718,-4580,-1286,-477,-1,-30,34,245,497,-197,1,0,59,56,640,0,53298,1
2,27803,34127,31418,89880,35731,-4561,-1278,-479,-13,-19,24,247,501,-191,1,0,59,56,680,0,53298,1
2,27811,34130,31417,89881,35744,-4566,-1281,-484,-6,-23,21,245,497,-191,1,0,59,56,720,0,53298,1
2,27793,34128,31420,89882,35758,-4572,-1272,-510,-9,-10,15,241,489,-193,1,0,59,56,760,0,53298,1
2,27809,34129,31420,89883,35771,-4573,-1283,-481,-1,7,4,251,503,-191,1,0,59,56,800,0,53298,1
2,27821,34126,31421,89884,35785,-4565,-1277,-491,-10,-1,12,244,494,-200,1,0,59,56,840,0,53298,1
2,27818,34130,31417,89885,35798,-4571,-1279,-486,-5,0,19,244,504,-198,1,0,59,56,880,0,53298,1
2,27808,34125,31418,89886,35811,-4569,-1273,-485,-5,-16,22,241,497,-185,1,0,59,56,920,0,53298,1
2,27789,34125,31417,89887,35824,-4581,-1285,-492,-3,-14,33,240,498,-196,1,0,59,56,960,0,53298,1
1,27796,34132,31421,89888,0,-4585,-1286,-499,1,-21,37,244,494,-188,1,0,59,57,0,0,53298,1
2,27814,34134,31421,89889,35071,-4566,-1279,-492,-3,-20,18,236,500,-196,1,0,59,57,40,0,53298,1
2,27812,34128,31422,89890,35085,-4558,-1271,-488,-10,-28,26,247,501,-187,1,0,59,57,80,0,53298,1
2,27802,34128,31417,89891,35098,-4583,-1281,-487,-16,-28,24,244,494,-188,1,0,59,57,120,0,53298,1
2,27810,34127,31417,89892,35112,-4575,-1279,-496,-16,-17,28,244,502,-190,1,0,59,57,160,0,53298,1
2,27810,34127,31417,89893,35126,-4565,-1273,-484,-4,-14,20,248,498,-192,1,0,59,57,200,0,53298,1
2,27823,34124,31417,89894,35140,-4552,-1271,-501,-5,-12,21,245,499,-193,1,0,59,57,240,0,53298,1
2,27811,34128,31415,89895,35153,-4571,-1283,-478,4,-14,15,236,504,-192,1,0,59,57,280,0,53298,1
2,27813,34127,31417,89896,35166,-4558,-1281,-498,-4,-17,31,246,500,-188,1,0,59,57,320,0,53298,1
2,27818,34128,31420,89897,35180,-4573,-1289,-482,4,-37,33,245,505,-191,1,0,59,57,360,0,53298,1
2,27806,34129,31415,89898,35194,-4573,-1260,-495,1,-16,18,233,497,-187,1,0,59,57,400,0,53298,1
2,27813,34128,31417,89899,35208,-4577,-1278,-496,-5,-9,17,242,496,-194,1,0,59,57,440,0,53298,1
2,27815,34127,31422,89900,35221,-4568,-1266,-488,-4,-5,32,242,504,-190,1,0,59,57,480,0,53298,1
2,27802,34125,31420,89901,35235,-4575,-1287,-501,7,-8,31,240,494,-202,1,0,59,57,520,0,53298,1
2,27800,34126,31416,89902,35248,-4578,-1282,-485,-4,-8,20,249,501,-201,1,0,59,57,560,0,53298,1
2,27810,34127,31419,89903,35261,-4574,-1281,-484,-4,-7,28,235,501,-191,1,0,59,57,600,0,53298,1
2,27793,34122,31419,89904,35275,-4571,-1281,-497,2,-19,26,235,501,-189,1,0,59,57,640,0,53298,1
2,27795,34123,31415,89905,35288,-4573,-1273,-503,-6,-23,30,243,497,-185,1,0,59,57,680,0,53298,1
2,27794,34125,31419,89906,35302,-4567,-1271,-482,-4,-21,16,241,499,-189,1,0,59,57,720,0,53298,1
2,27777,34127,31417,89907,35315,-4566,-1277,-497,-7,-7,12,239,503,-193,1,0,59,57,760,0,53298,1
2,27774,34126,31418,89908,35329,-4586,-1287,-498,-8,8,11,242,492,-184,1,0,59,57,800,0,53298,1
2,27763,34127,31415,89909,35343,-4565,-1279,-482,-3,1,14,237,497,-187,1,0,59,57,840,0,53298,1
2,27789,34121,31420,89910,35357,-4558,-1281,-480,2,-4,20,238,502,-192,1,0,59,57,880,0,53298,1
2,27778,34132,31420,89911,35371,-4571,-1281,-500,-5,-11,30,235,503,-195,1,0,59,57,920,0,53298,1
2,27783,34127,31419,89912,35385,-4575,-1283,-491,-4,-26,39,240,502,-186,1,0,59,57,960,0,53298,1
1,27802,34126,31420,89913,0,-4565,-1272,-487,-5,-29,31,240,500,-198,1,0,59,58,0,1,53298,1
2,27781,34129,31423,89914,34622,-4582,-1287,-481,-3,-29,28,248,500,-196,1,0,59,58,40,1,53298,1
2,27781,34134,31422,89915,34635,-4574,-1279,-496,-5,-24,24,240,494,-180,1,0,59,58,80,1,53298,1
2,27771,34131,31424,89916,34648,-4568,-1273,-492,-8,-20,16,240,506,-206,1,0,59,58,120,1,53298,1
2,27757,34129,31420,89917,34662,-4582,-1281,-484,0,-19,19,244,500,-190,1,0,59,58,160,1,53298,1
2,27752,34130,31423,89918,34676,-4586,-1298,-484,-3,-6,24,243,497,-195,1,0,59,58,200,1,53298,1
2,27786,34120,31419,89919,34690,-4565,-1268,-493,-7,1,20,245,499,-193,1,0,59,58,240,1,53298,1
2,27763,34130,31417,89920,34704,-4562,-1283,-493,-12,12,8,244,492,-196,1,0,59,58,280,1,53298,1
2,27765,34132,31417,89921,34719,-4567,-1270,-490,-9,9,9,244,500,-192,1,0,59,58,320,1,53298,1
2,27756,34125,31417,89922,34732,-4567,-1274,-488,-11,14,6,243,497,-185,1,0,59,58,360,1,53298,1
2,27770,34129,31416,89923,34746,-4574,-1268,-492,-16,20,8,245,501,-197,1,0,59,58,400,1,53298,1
2,27778,34126,31419,89924,34759,-4580,-1283,-506,-11,18,8,241,495,-183,1,0,59,58,440,1,53298,1
2,27773,34126,31419,89925,34773,-4572,-1273,-485,1,-3,27,242,500,-190,1,0,59,58,480,1,53298,1
2,27762,34125,31415,89926,34786,-4557,-1266,-486,-7,-31,32,248,490,-194,1,0,59,58,520,1,53298,1
2,27753,34123,31413,89927,34800,-4565,-1288,-485,5,-53,33,245,493,-201,1,0,59,58,560,1,53298,1
2,27766,34120,31415,89928,34814,-4570,-1269,-496,-5,-64,40,242,496,-188,1,0,59,58,600,1,53298,1
2,27772,34127,31414,89929,34828,-4575,-1281,-485,-2,-59,42,239,499,-189,1,0,59,58,640,1,53298,1
2,27762,34125,31418,89930,34842,-4578,-1292,-489,-8,-36,31,244,494,-192,1,0,59,58,680,1,53298,1
2,27772,34124,31415,89931,34856,-4556,-1268,-495,-10,-19,30,250,500,-184,1,0,59,58,720,1,53298,1
2,27795,34127,31415,89932,34869,-4564,-1286,-493,-1,-8,17,249,493,-189,1,0,59,58,760,1,53298,1
2,27790,34123,31416,89933,34882,-4572,-1263,-494,8,-8,15,246,502,-190,1,0,59,58,800,1,53298,1
2,27779,34123,31411,89934,34895,-4567,-1258,-476,21,-31,37,239,501,-197,1,0,59,58,840,1,53298,1
2,27794,34124,31414,89935,34909,-4557,-1274,-487,-10,-37,32,243,501,-193,1,0,59,58,880,1,53298,1
2,27790,34121,31411,89936,34923,-4563,-1261,-491,-10,-29,24,247,501,-193,1,0,59,58,920,1,53298,1
2,27824,34118,31410,89937,34937,-4564,-1268,-494,-8,-30,20,243,499,-201,1,0,59,58,960,1,53298,1
1,27813,34120,31411,89938,0,-4572,-1275,-493,-9,-25,25,237,493,-197,1,0,59,59,0,1,53298,1
2,27802,34121,31409,89939,34171,-4551,-1266,-490,-3,-23,24,241,499,-189,1,0,59,59,40,1,53298,1
2,27798,34121,31411,89940,34184,-4569,-1271,-505,7,-37,6,245,497,-189,1,0,59,59,80,1,53298,1
2,27795,34123,31416,89941,34198,-4576,-1287,-502,30,-51,-20,243,501,-193,1,0,59,59,120,1,53298,1
2,27789,34126,31411,89942,34212,-4580,-1295,-491,68,-137,34,249,501,-193,1,0,59,59,160,1,53298,1
2,27785,34128,31411,89943,34225,-4572,-1270,-479,55,-301,160,243,505,-191,1,0,59,59,200,1,53298,1
2,27786,34129,31411,89944,34239,-4586,-1279,-466,43,-462,282,249,497,-197,1,0,59,59,240,1,53298,1
2,27775,34124,31412,89945,34253,-4561,-1252,-425,56,-517,330,243,487,-175,1,0,59,59,280,1,53298,1
2,27766,34126,31414,89946,34266,-4566,-1250,-432,29,-416,291,229,489,-179,1,0,59,59,320,1,53298,1
2,27770,34125,31409,89947,34279,-4595,-1248,-425,12,-251,218,242,504,-180,1,0,59,59,360,1,53298,1
2,27758,34124,31410,89948,34293,-4584,-1250,-446,-10,-118,145,236,502,-190,1,0,59,59,400,1,53298,1
2,27772,34124,31411,89949,34307,-4580,-1258,-442,-37,-138,116,249,495,-197,1,0,59,59,440,1,53298,1
2,27755,34119,31407,89950,34321,-4587,-1240,-448,-65,-286,148,241,497,-197,1,0,59,59,480,1,53298,1
2,27735,34122,31405,89951,34334,-4592,-1251,-441,-96,-478,210,235,499,-179,1,0,59,59,520,1,53298,1
2,27753,34126,31414,89952,34347,-4580,-1240,-434,-87,-700,312,248,502,-184,1,0,59,59,560,1,53298,1
2,27757,34125,31410,89953,34361,-4591,-1236,-382,-36,-868,405,235,493,-187,1,0,59,59,600,1,53298,1
2,27757,34123,31411,89954,34374,-4598,-1214,-377,-146,-976,482,238,496,-192,1,0,59,59,640,1,53298,1
2,27736,34127,31408,89955,34388,-4599,-1225,-362,-91,-1087,530,246,490,-166,1,0,59,59,680,1,53298,1
2,27732,34128,31408,89956,34402,-4604,-1190,-302,-115,-1132,556,234,504,-180,1,0,59,59,720,1,53298,1
2,27740,33983,31347,89957,34414,-4608,-1169,-301,-113,-1185,622,246,500,-170,1,0,59,59,760,1,53298,1
2,27681,32048,31259,89958,34427,-4590,-1179,-292,-46,-1241,681,240,490,-174,1,0,59,59,800,1,53298,1
2,27721,32086,31250,89959,34440,-4598,-1174,-218,-151,-1199,745,234,492,-174,1,0,59,59,840,1,53298,1
2,27748,30110,31317,89960,34453,-4599,-1156,-219,81,-1163,789,234,492,-174,1,0,59,59,880,1,53298,1
2,27765,30258,31355,89961,34467,-4624,-1119,-170,13,-1078,748,235,487,-165,1,0,59,59,920,1,53298,1
2,27772,30161,31353,89962,34481,-4606,-1080,-178,102,-1012,688,231,491,-155,1,0,59,59,960,1,53298,1
1,27764,30056,31349,89963,0,-4606,-1068,-159,32,-931,563,234,492,-172,1,1,0,0,0,0,53298,1
2,27770,29969,31349,89964,33720,-4614,-1021,-118,95,-838,452,233,493,-157,1,1,0,0,40,0,53298,1
2,27797,30154,31355,89965,33734,-4607,-1075,-83,8,-750,407,243,491,-167,1,1,0,0,80,0,53298,1
2,27765,30216,31355,89966,33747,-4616,-1051,-77,112,-539,320,233,495,-163,1,1,0,0,120,0,53298,1
2,27755,30010,31343,89967,33761,-4611,-1060,-77,79,-269,201,234,482,-164,1,1,0,0,160,0,53298,1
2,27742,30024,31341,89968,33775,-4616,-1027,-68,47,25,95,236,494,-168,1,1,0,0,200,0,53298,1
2,27735,29936,31338,89969,33788,-4612,-1007,-91,-34,260,8,236,492,-160,1,1,0,0,240,0,53298,1
2,27706,29909,31273,89970,33802,-4633,-1008,-36,-385,365,-107,233,495,-165,1,1,0,0,280,0,53298,1
2,27685,30113,31280,89971,33815,-4788,-874,-84,-2068,173,-247,234,498,-154,1,1,0,0,320,0,53298,1
2,27691,29837,31312,89972,33828,-4920,-761,99,-5932,-995,-515,237,499,-161,1,1,0,0,360,0,53298,1
2,27715,29885,31309,89973,33842,-4583,-850,397,-7678,-2376,112,229,493,-157,1,1,0,0,400,0,53298,1
2,27707,29892,31301,89974,33856,-4339,-1266,-175,-8678,-3643,862,233,485,-141,1,1,0,0,440,0,53298,1
2,27666,29885,31305,89975,33869,-4582,-1451,-686,-7782,-3009,671,236,480,-152,1,1,0,0,480,0,53298,1
2,27608,29893,31303,89976,33884,-4555,-1560,-536,-4122,-1476,207,245,485,-159,1,1,0,0,520,0,53298,1
2,27607,29898,31305,89977,33898,-4504,-1064,64,99,-268,-9,232,488,-152,1,1,0,0,560,0,53298,1
2,27602,29892,31313,89978,33912,-4534,-1019,229,1152,179,142,229,487,-139,1,1,0,0,600,0,53298,1
2,27605,29896,31305,89979,33926,-4648,-1027,78,1660,590,372,237,489,-147,1,1,0,0,640,0,53298,1
2,27595,29913,31317,89980,33939,-4717,-976,68,2274,815,505,238,484,-148,1,1,0,0,680,0,53298,1
2,27605,29963,31323,89981,33951,-4682,-925,67,2393,728,462,232,484,-148,1,1,0,0,720,0,53298,1
2,27611,29971,31323,89982,33965,-4676,-905,61,1920,677,307,226,496,-152,1,1,0,0,760,0,53298,1
2,27625,29973,31318,89983,33978,-4619,-987,23,1049,401,274,227,493,-161,1,1,0,0,800,0,53298,1
2,27618,30022,31324,89984,33992,-4643,-977,6,528,326,120,228,490,-152,1,1,0,0,840,0,53298,1
2,27608,29972,31320,89985,34006,-4630,-974,-12,367,287,-64,229,495,-153,1,1,0,0,880,0,53298,1
2,27617,29953,31320,89986,34019,-4630,-982,7,280,267,-232,228,492,-160,1,1,0,0,920,0,53298,1
2,27585,29998,31286,89987,34032,-4628,-1007,-11,145,241,-279,224,488,-152,1,1,0,0,960,0,53298,1
1,27591,29906,31298,89988,0,-4618,-1021,-22,74,191,-230,226,490,-154,1,1,0,1,0,0,53298,1
2,27597,29846,31313,89989,33270,-4621,-1033,-20,82,125,-162,234,488,-158,1,1,0,1,40,0,53298,1
2,27609,29823,31302,89990,33284,-4638,-1018,-35,97,108,-83,224,494,-160,1,1,0,1,80,0,53298,1
2,27592,29880,31317,89991,33298,-4638,-1019,-39,43,64,-47,223,487,-143,1,1,0,1,120,0,53298,1
2,27585,29859,31311,89992,33311,-4622,-1012,-34,-1,-31,-20,230,492,-154,1,1,0,1,160,0,53298,1
2,27584,29945,31327,89993,33324,-4635,-1030,-32,49,-140,18,230,496,-146,1,1,0,1,200,0,53298,1
2,27610,30040,31329,89994,33337,-4625,-1005,-4,118,-170,69,229,487,-151,1,1,0,1,240,0,53298,1
2,27626,29999,31326,89995,33350,-4610,-1013,-4,102,-135,92,231,491,-157,1,1,0,1,280,0,53298,1
2,27633,29996,31330,89996,33363,-4620,-1017,-6,61,-83,101,230,490,-158,1,1,0,1,320,0,53298,1
2,27637,29973,31328,89997,33376,-4628,-994,-6,58,-3,83,230,488,-152,1,1,0,1,360,0,53298,1
2,27626,29971,31322,89998,33390,-4623,-1001,-10,27,31,30,232,488,-156,1,1,0,1,400,0,53298,1
2,27634,29883,31315,89999,33403,-4624,-1023,-20,-11,70,-43,227,487,-151,1,1,0,1,440,0,53298,1
2,27633,29875,31311,90000,33416,-4625,-1031,-13,-6,119,-143,228,490,-150,1,1,0,1,480,0,53298,1
2,27629,29878,31315,90001,33428,-4608,-1003,13,90,329,-327,230,492,-162,1,1,0,1,520,0,53298,1
2,27617,29896,31314,90002,33442,-4604,-1023,0,72,663,-508,230,488,-158,1,1,0,1,560,0,53298,1
2,27599,29865,31312,90003,33455,-4635,-1047,-82,-85,735,-487,231,491,-153,1,1,0,1,600,0,53298,1
2,27611,29887,31315,90004,33468,-4603,-1088,-100,-98,577,-343,237,485,-151,1,1,0,1,640,0,53298,1
2,27619,29872,31311,90005,33481,-4640,-1077,-90,152,392,-162,229,491,-161,1,1,0,1,680,0,53298,1
2,27630,29859,31305,90006,33493,-4628,-1072,-92,140,186,-6,224,484,-164,1,1,0,1,720,0,53298,1
2,27596,29855,31304,90007,33506,-4639,-1062,-80,16,-8,116,235,491,-163,1,1,0,1,760,0,53298,1
2,27615,29847,31305,90008,33518,-4628,-1061,-99,26,-155,146,233,483,-161,1,1,0,1,800,0,53298,1
2,27624,29867,31304,90009,33530,-4625,-1041,-54,74,-253,138,227,493,-155,1,1,0,1,840,0,53298,1
2,27624,29870,31301,90010,33544,-4630,-1055,-60,8,-192,102,234,484,-154,1,1,0,1,880,0,53298,1
2,27613,29865,31302,90011,33557,-4621,-1051,-46,-13,-70,29,234,496,-164,1,1,0,1,920,0,53298,1
2,27617,29865,31295,90012,33570,-4620,-1050,-64,-27,39,-3,232,492,-152,1,1,0,1,960,0,53298,1
1,27615,29859,31302,90013,0,-4621,-1051,-86,10,129,3,229,487,-157,1,1,0,2,0,1,53298,1
2,27586,29864,31297,90014,32820,-4618,-1045,-62,19,139,-10,232,484,-158,1,1,0,2,40,1,53298,1
2,27595,29877,31295,90015,32834,-4620,-1059,-86,-30,100,4,233,493,-161,1,1,0,2,80,1,53298,1
2,27604,29881,31293,90016,32848,-4625,-1046,-86,-37,-57,45,230,486,-162,1,1,0,2,120,1,53298,1
2,27652,29931,31293,90017,32861,-4632,-1056,-82,-58,-195,83,228,488,-158,1,1,0,2,160,1,53298,1
2,27619,30025,31291,90018,32873,-4629,-1054,-58,-33,-203,57,238,488,-152,1,1,0,2,200,1,53298,1
2,27625,30009,31289,90019,32885,-4605,-1033,-41,-18,-105,-20,235,493,-167,1,1,0,2,240,1,53298,1
2,27633,29988,31291,90020,32897,-4628,-1052,-84,-71,74,-77,231,489,-167,1,1,0,2,280,1,53298,1
2,27615,30050,31290,90021,32909,-4635,-1070,-68,-42,132,-81,221,493,-157,1,1,0,2,320,1,53298,1
2,27609,29978,31282,90022,32921,-4622,-1072,-79,-8,95,-16,228,488,-166,1,1,0,2,360,1,53298,1
2,27627,30004,31283,90023,32934,-4620,-1057,-76,41,12,60,233,491,-157,1,1,0,2,400,1,53298,1
2,27599,30082,31274,90024,32946,-4626,-1050,-72,45,-37,86,226,490,-176,1,1,0,2,440,1,53298,1
2,27596,30064,31281,90025,32959,-4615,-1053,-64,16,-21,72,228,496,-160,1,1,0,2,480,1,53298,1
2,27609,30101,31276,90026,32972,-4628,-1051,-72,21,-4,42,228,492,-166,1,1,0,2,520,1,53298,1
2,27614,30123,31279,90027,32985,-4621,-1052,-77,5,29,14,235,493,-169,1,1,0,2,560,1,53298,1
2,27625,30136,31281,90028,32999,-4629,-1061,-95,-8,45,11,235,491,-149,1,1,0,2,600,1,53298,1
2,27612,30273,31273,90029,33011,-4625,-1059,-87,-12,34,-2,226,496,-164,1,1,0,2,640,1,53298,1
2,27612,30265,31270,90030,33024,-4633,-1067,-85,-1,20,-9,233,493,-155,1,1,0,2,680,1,53298,1
2,27616,30698,31266,90031,33036,-4627,-1056,-77,-13,19,-25,238,496,-154,1,1,0,2,720,1,53298,1
2,27606,30761,31258,90032,33049,-4624,-1057,-83,-33,12,-30,228,488,-162,1,1,0,2,760,1,53298,1
2,27604,31273,31250,90033,33063,-4624,-1062,-82,-26,-34,-25,228,496,-152,1,1,0,2,800,1,53298,1
2,27608,31164,31251,90034,33076,-4610,-1056,-78,-28,-70,-10,233,493,-159,1,1,0,2,840,1,53298,1
2,27613,30791,31258,90035,33088,-4620,-1058,-75,-27,-90,9,231,493,-163,1,1,0,2,880,1,53298,1
2,27627,30308,31268,90036,33100,-4626,-1063,-65,-17,-86,25,241,491,-163,1,1,0,2,920,1,53298,1
2,27647,30324,31269,90037,33113,-4612,-1055,-66,-10,-60,33,232,490,-160,1,1,0,2,960,1,53298,1
1,27639,30506,31272,90038,0,-4615,-1057,-67,3,-28,38,236,484,-166,1,1,0,3,0,1,53298,1
2,27634,30229,31275,90039,32370,-4622,-1062,-67,12,-1,44,231,489,-155,1,1,0,3,40,1,53298,1
2,27631,30294,31281,90040,32383,-4619,-1049,-79,27,4,50,229,485,-161,1,1,0,3,80,1,53298,1
2,27633,29994,31283,90041,32397,-4631,-1065,-71,20,11,39,227,485,-161,1,1,0,3,120,1,53298,1
2,27622,30014,31284,90042,32410,-4622,-1054,-73,-6,27,19,230,494,-162,1,1,0,3,160,1,53298,1
2,27628,29925,31292,90043,32424,-4625,-1065,-66,-11,28,-1,235,493,-161,1,1,0,3,200,1,53298,1
2,27627,29898,31292,90044,32437,-4625,-1063,-67,-7,27,7,223,491,-159,1,1,0,3,240,1,53298,1
2,27603,29960,31293,90045,32450,-4619,-1055,-64,-6,2,19,226,494,-168,1,1,0,3,280,1,53298,1
2,27647,29882,31293,90046,32463,-4624,-1059,-54,-3,-14,22,233,493,-167,1,1,0,3,320,1,53298,1
2,27659,29888,31296,90047,32475,-4637,-1062,-76,-9,-15,19,234,494,-160,1,1,0,3,360,1,53298,1
2,27659,29873,31300,90048,32488,-4605,-1044,-88,-3,-38,19,233,491,-161,1,1,0,3,400,1,53298,1
2,27660,29823,31304,90049,32501,-4623,-1067,-73,-2,-38,18,230,488,-168,1,1,0,3,440,1,53298,1
2,27641,29826,31309,90050,32514,-4627,-1058,-70,-4,-27,28,223,489,-155,1,1,0,3,480,1,53298,1
2,27662,29839,31311,90051,32527,-4620,-1054,-77,-9,-13,29,231,491,-163,1,1,0,3,520,1,53298,1
2,27659,29825,31308,90052,32540,-4612,-1049,-75,-4,-3,38,225,485,-165,1,1,0,3,560,1,53298,1
2,27666,29841,31317,90053,32553,-4628,-1061,-81,-3,-20,42,238,494,-164,1,1,0,3,600,1,53298,1
2,27678,29842,31313,90054,32566,-4635,-1067,-70,-1,-36,61,234,494,-160,1,1,0,3,640,1,53298,1
2,27657,29852,31315,90055,32578,-4623,-1053,-76,-8,-62,54,230,496,-164,1,1,0,3,680,1,53298,1
2,27659,29868,31320,90056,32591,-4616,-1050,-52,-6,-83,54,227,491,-155,1,1,0,3,720,1,53298,1
2,27648,29873,31320,90057,32605,-4625,-1061,-60,-12,-70,45,237,493,-161,1,1,0,3,760,1,53298,1
2,27662,29876,31319,90058,32618,-4628,-1061,-71,-9,-61,47,228,484,-160,1,1,0,3,800,1,53298,1
2,27649,29883,31320,90059,32632,-4623,-1049,-58,-10,-46,36,227,489,-153,1,1,0,3,840,1,53298,1
2,27664,29870,31321,90060,32646,-4624,-1052,-66,3,-32,36,225,495,-153,1,1,0,3,880,1,53298,1
2,27665,29919,31324,90061,32660,-4625,-1057,-71,-11,-25,34,234,488,-164,1,1,0,3,920,1,53298,1
2,27664,29976,31332,90062,32674,-4626,-1055,-64,-4,1,30,235,489,-159,1,1,0,3,960,1,53298,1
1,27655,29990,31331,90063,0,-4633,-1059,-62,-12,-5,23,226,486,-164,1,1,0,4,0,1,53298,1
2,27663,29993,31330,90064,31921,-4629,-1063,-84,-9,-2,15,235,483,-161,1,1,0,4,40,1,53298,1
2,27652,30024,31330,90065,31935,-4630,-1056,-61,-12,-10,13,228,484,-160,1,1,0,4,80,1,53298,1
2,27657,30021,31331,90066,31950,-4626,-1055,-89,-11,-18,19,228,486,-154,1,1,0,4,120,1,53298,1
2,27664,30025,31330,90067,31964,-4630,-1060,-62,2,-17,28,233,489,-161,1,1,0,4,160,1,53298,1
2,27664,30035,31331,90068,31978,-4627,-1060,-65,-9,-15,27,231,495,-169,1,1,0,4,200,1,53298,1
2,27675,30016,31331,90069,31992,-4625,-1058,-79,-7,-12,19,230,494,-162,1,1,0,4,240,1,53298,1
2,27670,30042,31328,90070,32006,-4611,-1051,-63,-5,-17,18,231,479,-157,1,1,0,4,280,1,53298,1
2,27675,30041,31333,90071,32020,-4628,-1059,-68,-10,-5,12,227,497,-159,1,1,0,4,320,1,53298,1
2,27669,30031,31335,90072,32034,-4611,-1053,-68,-3,-4,21,226,498,-154,1,1,0,4,360,1,53298,1
2,27668,30075,31339,90073,32047,-4625,-1053,-66,-1,-11,24,238,486,-158,1,1,0,4,400,1,53298,1
2,27675,30080,31336,90074,32061,-4629,-1049,-68,0,-10,18,233,487,-169,1,1,0,4,440,1,53298,1
2,27652,30037,31330,90075,32075,-4620,-1061,-55,-7,-25,16,229,485,-147,1,1,0,4,480,1,53298,1
2,27675,30069,31336,90076,32089,-4630,-1055,-70,-9,-20,27,234,484,-166,1,1,0,4,520,1,53298,1
2,27667,30081,31332,90077,32103,-4624,-1037,-53,1,-16,39,234,492,-164,1,1,0,4,560,1,53298,1
2,27667,30051,31330,90078,32116,-4623,-1049,-59,-3,-9,35,233,493,-153,1,1,0,4,600,1,53298,1
2,27672,30057,31331,90079,32129,-4627,-1042,-63,-8,-8,24,234,494,-158,1,1,0,4,640,1,53298,1
2,27655,30006,31326,90080,32143,-4619,-1045,-63,-4,-16,9,232,500,-154,1,1,0,4,680,1,53298,1
2,27667,30032,31329,90081,32155,-4616,-1052,-65,-11,-15,12,233,495,-167,1,1,0,4,720,1,53298,1
2,27667,29994,31329,90082,32168,-4630,-1059,-68,-5,-20,14,233,485,-157,1,1,0,4,760,1,53298,1
2,27671,29916,31319,90083,32181,-4618,-1050,-81,-2,-22,26,232,492,-150,1,1,0,4,800,1,53298,1
2,27665,29855,31317,90084,32194,-4617,-1058,-64,-4,-17,27,244,494,-160,1,1,0,4,840,1,53298,1
2,27657,29806,31300,90085,32207,-4619,-1057,-71,-5,-25,30,223,493,-151,1,1,0,4,880,1,53298,1
2,27675,29843,31316,90086,32220,-4632,-1063,-67,-7,-26,31,227,495,-161,1,1,0,4,920,1,53298,1
2,27671,29793,31295,90087,32232,-4620,-1055,-61,-4,-29,19,228,486,-164,1,1,0,4,960,1,53298,1
1,27654,29838,31314,90088,0,-4620,-1044,-58,6,-20,22,230,486,-166,1,1,0,5,0,0,53298,1
2,27656,29830,31319,90089,31471,-4614,-1045,-51,-4,-18,25,242,490,-156,1,1,0,5,40,0,53298,1
2,27666,29897,31315,90090,31485,-4626,-1051,-81,-1,-12,25,232,482,-164,1,1,0,5,80,0,53298,1
2,27656,29907,31324,90091,31498,-4636,-1061,-65,-3,-13,19,229,489,-161,1,1,0,5,120,0,53298,1
2,27640,29927,31325,90092,31511,-4628,-1057,-70,-9,-23,22,230,490,-148,1,1,0,5,160,0,53298,1
2,27643,29967,31324,90093,31524,-4615,-1051,-78,-2,-24,21,230,496,-152,1,1,0,5,200,0,53298,1
2,27625,29959,31325,90094,31537,-4614,-1054,-68,-8,-18,21,234,494,-160,1,1,0,5,240,0,53298,1
2,27630,29958,31323,90095,31549,-4624,-1049,-60,-6,-10,21,233,489,-161,1,1,0,5,280,0,53298,1
2,27616,29965,31327,90096,31561,-4625,-1071,-73,-11,-11,25,226,496,-162,1,1,0,5,320,0,53298,1
2,27635,29955,31324,90097,31573,-4613,-1049,-64,-6,-18,16,232,486,-158,1,1,0,5,360,0,53298,1
2,27630,30017,31326,90098,31585,-4624,-1055,-61,-7,-19,14,217,489,-153,1,1,0,5,400,0,53298,1
2,27638,30025,31331,90099,31597,-4628,-1047,-72,-6,-13,21,237,487,-165,1,1,0,5,440,0,53298,1
2,27635,29975,31327,90100,31608,-4622,-1057,-82,-8,-7,26,235,489,-163,1,1,0,5,480,0,53298,1
2,27638,30052,31328,90101,31620,-4629,-1044,-65,-6,-12,28,220,490,-158,1,1,0,5,520,0,53298,1
2,27635,30070,31335,90102,31632,-4620,-1048,-63,-8,-16,26,229,489,-155,1,1,0,5,560,0,53298,1
2,27647,30066,31335,90103,31644,-4620,-1050,-78,-5,-28,30,236,498,-156,1,1,0,5,600,0,53298,1
2,27640,30080,31334,90104,31656,-4619,-1047,-87,-6,-20,13,230,492,-152,1,1,0,5,640,0,53298,1
2,27634,30050,31333,90105,31667,-4625,-1058,-56,-9,-13,15,229,487,-159,1,1,0,5,680,0,53298,1
2,27632,30063,31335,90106,31679,-4631,-1055,-68,-5,-6,23,234,494,-166,1,1,0,5,720,0,53298,1
2,27647,30081,31335,90107,31691,-4620,-1055,-66,-9,-11,20,231,489,-163,1,1,0,5,760,0,53298,1
2,27650,30076,31330,90108,31704,-4623,-1057,-71,-4,-13,18,231,493,-161,1,1,0,5,800,0,53298,1
2,27639,30076,31334,90109,31716,-4629,-1059,-73,-3,-13,19,226,486,-152,1,1,0,5,840,0,53298,1
2,27637,30074,31335,90110,31729,-4627,-1059,-61,-7,-19,22,230,492,-154,1,1,0,5,880,0,53298,1
2,27646,30067,31334,90111,31742,-4622,-1041,-65,-14,-16,15,225,489,-155,1,1,0,5,920,0,53298,1
2,27636,30065,31329,90112,31755,-4629,-1063,-64,-7,-10,28,227,487,-163,1,1,0,5,960,0,53298,1
1,27659,30055,31326,90113,0,-4628,-1056,-54,-1,-17,24,221,495,-153,1,1,0,6,0,1,53298,1
2,27650,30060,31326,90114,31022,-4617,-1050,-61,1,3,30,238,494,-160,1,1,0,6,40,1,53298,1
2,27646,30052,31331,90115,31034,-4630,-1055,-70,-7,-12,32,234,492,-162,1,1,0,6,80,1,53298,1
2,27655,30099,31331,90116,31046,-4634,-1056,-64,-5,-27,33,228,486,-162,1,1,0,6,120,1,53298,1
2,27662,30109,31331,90117,31059,-4619,-1042,-60,1,-30,28,218,488,-166,1,1,0,6,160,1,53298,1
2,27672,30094,31332,90118,31072,-4636,-1053,-76,-7,-12,33,237,499,-161,1,1,0,6,200,1,53298,1
2,27669,30092,31330,90119,31085,-4624,-1047,-55,-11,-22,21,229,489,-165,1,1,0,6,240,1,53298,1
2,27660,30123,31334,90120,31097,-4630,-1039,-55,-9,-10,13,235,497,-155,1,1,0,6,280,1,53298,1
2,27667,30104,31330,90121,31110,-4614,-1041,-59,-14,-11,13,232,490,-164,1,1,0,6,320,1,53298,1
2,27667,30125,31335,90122,31124,-4636,-1057,-68,-10,-4,12,230,490,-164,1,1,0,6,360,1,53298,1
2,27661,30145,31329,90123,31136,-4622,-1056,-68,-7,6,6,222,488,-162,1,1,0,6,400,1,53298,1
2,27685,30139,31335,90124,31149,-4618,-1045,-67,3,8,15,230,490,-158,1,1,0,6,440,1,53298,1
2,27655,30145,31330,90125,31161,-4631,-1063,-73,-3,2,22,223,495,-151,1,1,0,6,480,1,53298,1
2,27647,30147,31335,90126,31173,-4620,-1054,-60,-3,-14,24,229,491,-157,1,1,0,6,520,1,53298,1
2,27655,30140,31338,90127,31186,-4639,-1064,-68,-4,-28,38,228,490,-166,1,1,0,6,560,1,53298,1
2,27647,30156,31336,90128,31198,-4630,-1059,-53,-9,-31,31,234,492,-154,1,1,0,6,600,1,53298,1
2,27648,30170,31335,90129,31210,-4617,-1041,-60,-2,-28,29,232,496,-166,1,1,0,6,640,1,53298,1
2,27634,30145,31339,90130,31222,-4625,-1052,-55,-11,-10,23,230,498,-156,1,1,0,6,680,1,53298,1
2,27636,30145,31335,90131,31234,-4621,-1061,-62,-20,10,12,227,499,-163,1,1,0,6,720,1,53298,1
2,27639,30143,31334,90132,31246,-4627,-1053,-63,-9,0,17,231,489,-157,1,1,0,6,760,1,53298,1
2,27624,30170,31335,90133,31257,-4633,-1056,-58,-14,11,18,233,485,-157,1,1,0,6,800,1,53298,1
2,27646,30151,31334,90134,31269,-4628,-1056,-66,-12,9,20,230,482,-166,1,1,0,6,840,1,53298,1
2,27636,30158,31335,90135,31281,-4617,-1050,-66,-10,-1,6,230,488,-166,1,1,0,6,880,1,53298,1
2,27633,30166,31338,90136,31294,-4632,-1060,-56,-1,-16,12,234,496,-160,1,1,0,6,920,1,53298,1
2,27639,30175,31335,90137,31307,-4633,-1070,-68,-8,-4,20,229,491,-167,1,1,0,6,960,1,53298,1
1,27654,30179,31337,90138,0,-4618,-1045,-61,-7,-15,25,232,492,-164,1,1,0,7,0,0,53298,1
2,27648,30164,31335,90139,30574,-4632,-1052,-57,-4,-11,22,230,492,-164,1,1,0,7,40,0,53298,1
2,27662,30143,31335,90140,30587,-4629,-1052,-58,-9,-12,25,233,495,-159,1,1,0,7,80,0,53298,1
2,27648,30107,31334,90141,30600,-4622,-1046,-60,-6,-3,16,234,490,-162,1,1,0,7,120,0,53298,1
2,27663,30106,31330,90142,30613,-4626,-1057,-71,-5,-2,23,236,498,-160,1,1,0,7,160,0,53298,1
2,27649,29948,31327,90143,30626,-4619,-1053,-70,-6,15,20,230,484,-158,1,1,0,7,200,0,53298,1
2,27646,30155,31334,90144,30639,-4628,-1054,-58,-10,4,20,229,491,-161,1,1,0,7,240,0,53298,1
2,27637,30153,31330,90145,30652,-4630,-1043,-68,-13,-8,24,229,495,-155,1,1,0,7,280,0,53298,1
2,27631,30153,31330,90146,30665,-4620,-1050,-63,-8,-22,24,227,491,-161,1,1,0,7,320,0,53298,1
2,27619,30136,31335,90147,30678,-4619,-1040,-81,-6,-22,20,236,488,-166,1,1,0,7,360,0,53298,1
2,27625,30152,31333,90148,30691,-4631,-1061,-76,-13,-12,6,223,495,-153,1,1,0,7,400,0,53298,1
2,27611,30156,31335,90149,30703,-4645,-1069,-60,-13,-22,17,233,489,-157,1,1,0,7,440,0,53298,1
2,27597,30154,31334,90150,30716,-4618,-1051,-72,1,-18,28,226,494,-158,1,1,0,7,480,0,53298,1
2,27607,30177,31335,90151,30729,-4633,-1050,-52,2,-15,35,227,491,-157,1,1,0,7,520,0,53298,1
2,27599,30211,31338,90152,30743,-4618,-1054,-65,-3,-17,32,227,481,-163,1,1,0,7,560,0,53298,1
2,27611,30178,31334,90153,30756,-4611,-1037,-61,-1,-5,31,227,485,-157,1,1,0,7,600,0,53298,1
2,27617,30185,31338,90154,30770,-4634,-1054,-79,-6,-15,28,232,488,-164,1,1,0,7,640,0,53298,1
2,27623,30212,31338,90155,30784,-4636,-1053,-73,0,-12,35,230,492,-158,1,1,0,7,680,0,53298,1
2,27618,30192,31342,90156,30797,-4616,-1047,-54,-1,-20,26,223,493,-159,1,1,0,7,720,0,53298,1
2,27623,30185,31338,90157,30809,-4620,-1056,-73,-11,-19,28,237,485,-159,1,1,0,7,760,0,53298,1
2,27614,30190,31339,90158,30822,-4625,-1051,-68,-15,-24,14,226,496,-158,1,1,0,7,800,0,53298,1
2,27614,30096,31335,90159,30835,-4620,-1060,-83,-17,-24,7,231,491,-161,1,1,0,7,840,0,53298,1
2,27610,30065,31330,90160,30848,-4631,-1059,-58,-9,-14,11,224,496,-170,1,1,0,7,880,0,53298,1
2,27615,30191,31339,90161,30861,-4634,-1057,-77,-8,-13,18,228,496,-164,1,1,0,7,920,0,53298,1
2,27627,30167,31336,90162,30874,-4619,-1050,-63,-8,-12,34,231,489,-161,1,1,0,7,960,0,53298,1
1,27642,30190,31339,90163,0,-4626,-1051,-64,-2,-11,43,230,494,-164,1,1,0,8,0,1,53298,1
2,27626,30178,31339,90164,30125,-4622,-1041,-57,9,-18,37,222,484,-160,1,1,0,8,40,1,53298,1
2,27618,30163,31333,90165,30139,-4621,-1052,-67,-7,-15,26,228,488,-162,1,1,0,8,80,1,53298,1
2,27625,30188,31337,90166,30152,-4621,-1051,-52,-4,-19,12,235,491,-155,1,1,0,8,120,1,53298,1
2,27611,30210,31341,90167,30166,-4623,-1049,-53,-2,-15,19,230,492,-162,1,1,0,8,160,1,53298,1
2,27620,30224,31341,90168,30178,-4621,-1045,-67,-1,-11,16,233,487,-145,1,1,0,8,200,1,53298,1
2,27607,30228,31340,90169,30191,-4624,-1055,-46,-10,-4,18,238,498,-168,1,1,0,8,240,1,53298,1
2,27603,30219,31339,90170,30204,-4631,-1050,-73,-8,2,8,225,481,-155,1,1,0,8,280,1,53298,1
2,27615,30196,31336,90171,30218,-4637,-1070,-65,-6,-7,16,229,491,-161,1,1,0,8,320,1,53298,1
2,27607,30236,31341,90172,30231,-4630,-1056,-70,-10,-19,10,225,495,-163,1,1,0,8,360,1,53298,1
2,27617,30225,31340,90173,30244,-4640,-1058,-74,-6,-20,19,229,485,-163,1,1,0,8,400,1,53298,1
2,27615,30219,31338,90174,30257,-4628,-1043,-74,2,-23,40,229,491,-165,1,1,0,8,440,1,53298,1
2,27603,30225,31338,90175,30271,-4629,-1059,-75,-7,-16,28,226,492,-156,1,1,0,8,480,1,53298,1
2,27627,30211,31341,90176,30285,-4622,-1045,-53,-5,-25,32,230,492,-164,1,1,0,8,520,1,53298,1
2,27620,30238,31339,90177,30299,-4623,-1053,-69,-2,-29,24,233,491,-155,1,1,0,8,560,1,53298,1
2,27600,30241,31336,90178,30313,-4620,-1056,-63,-5,-18,19,229,491,-151,1,1,0,8,600,1,53298,1
2,27617,30233,31338,90179,30327,-4627,-1067,-76,-9,2,18,227,497,-151,1,1,0,8,640,1,53298,1
2,27619,30221,31337,90180,30340,-4626,-1057,-71,-2,-3,25,240,492,-162,1,1,0,8,680,1,53298,1
2,27607,30247,31340,90181,30353,-4625,-1052,-77,-4,3,20,231,491,-163,1,1,0,8,720,1,53298,1
2,27623,30258,31339,90182,30366,-4626,-1047,-64,-10,-13,13,226,490,-164,1,1,0,8,760,1,53298,1
2,27612,30249,31344,90183,30379,-4614,-1057,-66,-6,-14,18,234,488,-166,1,1,0,8,800,1,53298,1
2,27619,30240,31337,90184,30392,-4628,-1059,-59,-2,-23,27,232,486,-162,1,1,0,8,840,1,53298,1
2,27622,30216,31337,90185,30405,-4621,-1050,-72,-2,-15,29,232,486,-162,1,1,0,8,880,1,53298,1
2,27612,30207,31341,90186,30419,-4625,-1052,-67,-1,-4,34,231,493,-159,1,1,0,8,920,1,53298,1
2,27622,30200,31335,90187,30432,-4630,-1062,-62,-5,-9,23,230,486,-164,1,1,0,8,960,1,53298,1
1,27624,30202,31333,90188,0,-4627,-1051,-68,-7,-4,22,234,494,-162,1,1,0,9,0,1,53298,1
2,27630,30179,31335,90189,29676,-4632,-1054,-72,-7,-3,14,229,489,-159,1,1,0,9,40,1,53298,1
2,27654,30187,31335,90190,29690,-4621,-1053,-62,-9,-10,11,233,487,-161,1,1,0,9,80,1,53298,1
2,27659,30201,31334,90191,29703,-4619,-1047,-55,-2,-15,31,227,495,-157,1,1,0,9,120,1,53298,1
2,27656,30208,31335,90192,29717,-4612,-1043,-62,0,-12,30,229,487,-151,1,1,0,9,160,1,53298,1
2,27647,30197,31340,90193,29730,-4635,-1056,-58,-7,-17,24,231,489,-161,1,1,0,9,200,1,53298,1
2,27635,30186,31339,90194,29743,-4623,-1054,-64,4,-21,24,238,490,-162,1,1,0,9,240,1,53298,1
2,27642,30179,31339,90195,29756,-4618,-1058,-43,3,-29,16,232,486,-160,1,1,0,9,280,1,53298,1
2,27643,30173,31332,90196,29770,-4629,-1052,-71,-10,-11,30,221,497,-155,1,1,0,9,320,1,53298,1
2,27609,30158,31330,90197,29783,-4622,-1049,-62,-1,-6,26,233,493,-163,1,1,0,9,360,1,53298,1
2,27637,30190,31331,90198,29796,-4627,-1059,-68,-1,-16,26,234,478,-150,1,1,0,9,400,1,53298,1
2,27638,30173,31337,90199,29808,-4638,-1050,-71,-7,-16,16,232,494,-162,1,1,0,9,440,1,53298,1
2,27630,30186,31332,90200,29821,-4632,-1059,-67,-6,1,12,223,483,-159,1,1,0,9,480,1,53298,1
2,27600,30163,31331,90201,29834,-4619,-1053,-62,-5,-11,25,242,486,-162,1,1,0,9,520,1,53298,1
2,27588,30150,31335,90202,29848,-4626,-1056,-68,-5,-30,15,230,492,-160,1,1,0,9,560,1,53298,1
2,27602,30175,31338,90203,29861,-4640,-1056,-60,-3,-16,25,228,492,-154,1,1,0,9,600,1,53298,1
2,27599,30166,31335,90204,29874,-4624,-1062,-67,1,-11,32,225,493,-161,1,1,0,9,640,1,53298,1
2,27613,30157,31338,90205,29887,-4622,-1044,-91,0,-7,23,236,490,-170,1,1,0,9,680,1,53298,1
2,27600,30189,31335,90206,29900,-4625,-1057,-66,-8,-2,15,233,493,-157,1,1,0,9,720,1,53298,1
2,27620,30153,31338,90207,29913,-4629,-1053,-72,-7,-21,11,230,486,-172,1,1,0,9,760,1,53298,1
2,27620,30145,31333,90208,29926,-4627,-1050,-75,-6,-21,17,228,490,-158,1,1,0,9,800,1,53298,1
2,27615,30121,31335,90209,29939,-4638,-1054,-72,-3,-14,20,234,484,-166,1,1,0,9,840,1,53298,1
2,27636,30169,31335,90210,29952,-4620,-1061,-59,-1,-23,19,230,490,-156,1,1,0,9,880,1,53298,1
2,27615,30168,31333,90211,29965,-4614,-1053,-68,5,-4,23,227,483,-159,1,1,0,9,920,1,53298,1
2,27613,30133,31333,90212,29979,-4637,-1059,-63,11,-5,36,229,485,-165,1,1,0,9,960,1,53298,1
1,27611,30127,31329,90213,0,-4637,-1057,-72,0,-6,51,231,485,-163,1,1,0,10,0,1,53298,1
2,27615,30140,31332,90214,29228,-4628,-1042,-57,-4,-4,43,237,491,-163,1,1,0,10,40,1,53298,1
2,27603,30159,31336,90215,29241,-4626,-1070,-60,-9,-18,23,224,492,-152,1,1,0,10,80,1,53298,1
2,27598,30131,31334,90216,29255,-4613,-1048,-73,-14,-20,5,230,488,-158,1,1,0,10,120,1,53298,1
2,27576,30124,31337,90217,29268,-4630,-1056,-85,-34,-11,-28,233,499,-157,1,1,0,10,160,1,53298,1
2,27575,30091,31332,90218,29282,-4624,-1076,-86,-11,-22,-29,231,493,-161,1,1,0,10,200,1,53298,1
2,27569,30095,31335,90219,29294,-4636,-1061,-63,4,-45,15,220,492,-156,1,1,0,10,240,1,53298,1
2,27578,30097,31330,90220,29307,-4621,-1056,-61,-2,-49,46,231,491,-157,1,1,0,10,280,1,53298,1
2,27577,30111,31330,90221,29321,-4624,-1056,-64,-4,-35,45,235,491,-163,1,1,0,10,320,1,53298,1
2,27561,30099,31329,90222,29335,-4617,-1052,-66,-8,-13,45,228,490,-152,1,1,0,10,360,1,53298,1
2,27564,30103,31330,90223,29349,-4620,-1049,-65,6,-26,43,225,495,-163,1,1,0,10,400,1,53298,1
2,27575,30077,31331,90224,29363,-4642,-1054,-67,-3,-29,27,228,484,-168,1,1,0,10,440,1,53298,1
2,27582,30057,31335,90225,29375,-4616,-1051,-61,-8,-46,32,231,487,-155,1,1,0,10,480,1,53298,1
2,27563,30062,31332,90226,29389,-4625,-1045,-54,5,-38,21,230,486,-168,1,1,0,10,520,1,53298,1
2,27579,30083,31331,90227,29404,-4624,-1051,-57,-3,-16,26,235,483,-159,1,1,0,10,560,1,53298,1
2,27554,30095,31332,90228,29417,-4631,-1060,-73,-16,-2,14,225,489,-155,1,1,0,10,600,1,53298,1
2,27572,30120,31338,90229,29431,-4631,-1057,-67,-7,-6,24,223,493,-149,1,1,0,10,640,1,53298,1
2,27585,30101,31339,90230,29444,-4615,-1034,-61,0,-17,26,228,490,-168,1,1,0,10,680,1,53298,1
2,27590,30104,31330,90231,29459,-4628,-1057,-61,5,8,21,231,501,-163,1,1,0,10,720,1,53298,1
2,27597,30088,31327,90232,29473,-4621,-1042,-71,-4,19,28,230,494,-160,1,1,0,10,760,1,53298,1
2,27591,30082,31331,90233,29487,-4629,-1056,-73,8,31,13,212,488,-150,1,1,0,10,800,1,53298,1
2,27593,30075,31330,90234,29501,-4636,-1062,-73,-7,37,-1,232,486,-164,1,1,0,10,840,1,53298,1
2,27578,30056,31329,90235,29515,-4618,-1048,-72,-25,12,-4,230,496,-156,1,1,0,10,880,1,53298,1
2,27569,30035,31327,90236,29529,-4626,-1061,-73,-14,-31,9,227,495,-159,1,1,0,10,920,1,53298,1
2,27582,30037,31327,90237,29543,-4628,-1061,-59,-9,-35,15,234,488,-160,1,1,0,10,960,1,53298,1
1,27582,30072,31325,90238,0,-4640,-1065,-45,1,-12,16,230,494,-158,1,1,0,11,0,1,53298,1
2,27562,30051,31330,90239,28781,-4631,-1065,-70,-3,21,13,232,486,-162,1,1,0,11,40,1,53298,1
2,27576,30060,31325,90240,28795,-4632,-1053,-63,14,27,26,225,493,-161,1,1,0,11,80,1,53298,1
2,27577,30035,31327,90241,28808,-4617,-1045,-80,4,30,33,234,496,-164,1,1,0,11,120,1,53298,1
2,27570,30040,31324,90242,28821,-4640,-1061,-60,-9,4,39,230,500,-156,1,1,0,11,160,1,53298,1
2,27575,30032,31327,90243,28835,-4632,-1047,-63,10,-21,43,235,487,-161,1,1,0,11,200,1,53298,1
2,27558,30025,31321,90244,28848,-4625,-1048,-64,1,-35,31,236,484,-158,1,1,0,11,240,1,53298,1
2,27564,30034,31327,90245,28861,-4611,-1039,-61,-11,-44,8,237,493,-159,1,1,0,11,280,1,53298,1
2,27571,30017,31323,90246,28875,-4622,-1042,-65,-28,-36,0,221,493,-167,1,1,0,11,320,1,53298,1
2,27564,30050,31326,90247,28888,-4628,-1048,-60,-12,-24,-4,234,494,-162,1,1,0,11,360,1,53298,1
2,27565,30019,31322,90248,28900,-4624,-1056,-57,-23,-4,-1,224,500,-164,1,1,0,11,400,1,53298,1
2,27568,30048,31325,90249,28914,-4621,-1057,-69,-4,6,7,231,491,-161,1,1,0,11,440,1,53298,1
2,27575,30036,31323,90250,28926,-4621,-1054,-64,7,-22,41,236,492,-160,1,1,0,11,480,1,53298,1
2,27554,30032,31317,90251,28940,-4624,-1065,-69,2,-6,51,227,483,-155,1,1,0,11,520,1,53298,1
2,27547,30029,31322,90252,28953,-4629,-1052,-72,0,-22,56,234,490,-162,1,1,0,11,560,1,53298,1
2,27546,30005,31316,90253,28966,-4615,-1048,-67,-15,-39,38,231,485,-165,1,1,0,11,600,1,53298,1
2,27538,30039,31321,90254,28980,-4621,-1052,-71,-2,-64,36,240,486,-162,1,1,0,11,640,1,53298,1
2,27552,30040,31322,90255,28994,-4621,-1042,-73,-12,-59,16,233,491,-169,1,1,0,11,680,1,53298,1
2,27545,30045,31325,90256,29008,-4626,-1059,-70,-11,-48,21,229,487,-159,1,1,0,11,720,1,53298,1
2,27562,30077,31325,90257,29021,-4645,-1062,-47,3,-4,20,227,493,-159,1,1,0,11,760,1,53298,1
2,27556,30074,31320,90258,29034,-4629,-1062,-69,-13,36,20,225,497,-159,1,1,0,11,800,1,53298,1
2,27550,30094,31325,90259,29047,-4630,-1060,-67,-21,11,16,231,499,-161,1,1,0,11,840,1,53298,1
2,27540,30067,31325,90260,29060,-4625,-1048,-70,-17,-26,22,227,489,-163,1,1,0,11,880,1,53298,1
2,27549,30068,31319,90261,29073,-4623,-1048,-53,-2,-42,10,233,497,-161,1,1,0,11,920,1,53298,1
2,27545,30078,31321,90262,29086,-4625,-1047,-71,-15,2,8,231,487,-155,1,1,0,11,960,1,53298,1
1,27552,30074,31321,90263,0,-4624,-1055,-56,-1,31,4,229,493,-163,1,1,0,12,0,0,53298,1
2,27552,30088,31324,90264,28334,-4633,-1055,-85,-16,54,12,231,493,-167,1,1,0,12,40,0,53298,1
2,27561,30087,31325,90265,28348,-4636,-1043,-65,-13,30,29,224,496,-166,1,1,0,12,80,0,53298,1
2,27533,30093,31321,90266,28362,-4628,-1055,-85,15,2,34,232,494,-162,1,1,0,12,120,0,53298,1
2,27533,30081,31321,90267,28376,-4635,-1071,-66,-7,-17,36,233,491,-161,1,1,0,12,160,0,53298,1
2,27524,30054,31321,90268,28390,-4628,-1056,-83,1,-29,26,229,489,-157,1,1,0,12,200,0,53298,1
2,27536,30076,31321,90269,28403,-4635,-1051,-60,0,-18,20,231,491,-165,1,1,0,12,240,0,53298,1
2,27537,30094,31317,90270,28417,-4633,-1054,-84,-35,6,4,233,491,-159,1,1,0,12,280,0,53298,1
2,27559,30109,31324,90271,28430,-4621,-1057,-57,-1,8,6,227,489,-151,1,1,0,12,320,0,53298,1
2,27562,30121,31321,90272,28443,-4635,-1060,-73,-18,12,-12,224,498,-154,1,1,0,12,360,0,53298,1
2,27575,30131,31321,90273,28457,-4609,-1068,-67,-2,2,5,228,490,-166,1,1,0,12,400,0,53298,1
2,27593,30130,31324,90274,28470,-4647,-1063,-67,-6,-11,32,233,491,-165,1,1,0,12,440,0,53298,1
2,27565,30134,31320,90275,28483,-4624,-1071,-64,-7,-14,37,226,488,-158,1,1,0,12,480,0,53298,1
2,27556,30129,31326,90276,28496,-4618,-1042,-71,-4,-28,39,229,495,-173,1,1,0,12,520,0,53298,1
2,27569,30115,31322,90277,28509,-4623,-1057,-75,-2,-9,21,230,488,-162,1,1,0,12,560,0,53298,1
2,27576,30134,31325,90278,28522,-4613,-1045,-57,-3,-5,3,228,494,-162,1,1,0,12,600,0,53298,1
2,27581,30110,31321,90279,28536,-4626,-1049,-68,-30,-22,13,236,492,-160,1,1,0,12,640,0,53298,1
2,27559,30118,31320,90280,28549,-4630,-1064,-57,15,-43,39,225,495,-157,1,1,0,12,680,0,53298,1
2,27583,30129,31321,90281,28562,-4624,-1055,-54,-2,-31,32,237,495,-163,1,1,0,12,720,0,53298,1
2,27586,30129,31321,90282,28576,-4629,-1059,-59,-11,-15,22,233,489,-161,1,1,0,12,760,0,53298,1
2,27586,30129,31317,90283,28588,-4637,-1070,-70,-14,-5,27,222,494,-154,1,1,0,12,800,0,53298,1
2,27588,30152,31320,90284,28602,-4627,-1062,-61,-5,-27,30,223,489,-165,1,1,0,12,840,0,53298,1
2,27570,30134,31324,90285,28615,-4620,-1050,-59,-3,-33,31,221,485,-155,1,1,0,12,880,0,53298,1
2,27567,30131,31319,90286,28628,-4623,-1051,-66,-10,-17,21,234,496,-156,1,1,0,12,920,0,53298,1
2,27565,30140,31324,90287,28642,-4613,-1052,-66,-18,-10,14,225,493,-159,1,1,0,12,960,0,53298,1
1,27551,30149,31325,90288,0,-4633,-1065,-81,-4,-18,25,236,490,-166,1,1,0,13,0,0,53298,1
2,27565,30165,31321,90289,27885,-4632,-1057,-55,-1,-29,30,230,480,-156,1,1,0,13,40,0,53298,1
2,27530,30176,31322,90290,27898,-4621,-1050,-65,-5,-15,40,222,492,-152,1,1,0,13,80,0,53298,1
2,27532,30155,31320,90291,27910,-4614,-1044,-62,-16,-30,39,228,488,-154,1,1,0,13,120,0,53298,1
2,27510,30164,31322,90292,27923,-4617,-1038,-56,-5,-24,21,228,494,-160,1,1,0,13,160,0,53298,1
2,27543,30142,31325,90293,27935,-4634,-1048,-51,-9,-3,6,230,492,-154,1,1,0,13,200,0,53298,1
2,27540,30159,31328,90294,27948,-4615,-1053,-48,-4,-5,11,229,495,-157,1,1,0,13,240,0,53298,1
2,27555,30147,31325,90295,27962,-4635,-1068,-76,-2,-18,28,231,487,-161,1,1,0,13,280,0,53298,1
2,27551,30167,31327,90296,27975,-4622,-1043,-73,2,-18,37,222,494,-156,1,1,0,13,320,0,53298,1
2,27533,30167,31326,90297,27988,-4626,-1064,-53,-13,-20,32,228,492,-160,1,1,0,13,360,0,53298,1
2,27560,30181,31324,90298,28001,-4638,-1060,-59,-2,-16,26,229,499,-151,1,1,0,13,400,0,53298,1
2,27556,30167,31326,90299,28014,-4630,-1052,-53,6,-8,23,230,492,-164,1,1,0,13,440,0,53298,1
2,27560,30168,31323,90300,28028,-4629,-1054,-55,-22,-6,21,230,498,-156,1,1,0,13,480,0,53298,1
2,27565,30160,31327,90301,28041,-4631,-1052,-58,-2,-28,26,232,494,-158,1,1,0,13,520,0,53298,1
2,27565,30179,31327,90302,28054,-4629,-1051,-54,-4,-25,18,232,492,-164,1,1,0,13,560,0,53298,1
2,27553,30158,31328,90303,28067,-4633,-1067,-71,-30,-19,12,234,490,-156,1,1,0,13,600,0,53298,1
2,27555,30164,31325,90304,28079,-4618,-1045,-60,-1,-16,14,235,491,-167,1,1,0,13,640,0,53298,1
2,27522,30165,31322,90305,28092,-4631,-1061,-70,-1,-8,13,221,489,-161,1,1,0,13,680,0,53298,1
2,27542,30165,31321,90306,28105,-4616,-1054,-54,-12,3,21,236,490,-162,1,1,0,13,720,0,53298,1
2,27579,30163,31330,90307,28117,-4633,-1070,-105,-10,17,22,234,492,-156,1,1,0,13,760,0,53298,1
2,27564,30200,31324,90308,28130,-4624,-1042,-60,7,-2,28,232,490,-154,1,1,0,13,800,0,53298,1
2,27576,30199,31325,90309,28143,-4630,-1060,-71,-15,18,15,232,490,-156,1,1,0,13,840,0,53298,1
2,27562,30215,31329,90310,28156,-4625,-1057,-64,-7,0,7,222,492,-156,1,1,0,13,880,0,53298,1
2,27553,30204,31325,90311,28170,-4640,-1067,-61,-23,-27,15,220,488,-164,1,1,0,13,920,0,53298,1
2,27564,30209,31320,90312,28183,-4633,-1062,-60,13,-49,35,229,489,-165,1,1,0,13,960,0,53298,1
1,27557,30216,31326,90313,0,-4622,-1051,-65,-1,-20,25,239,503,-161,1,1,0,14,0,0,53298,1
2,27554,30219,31325,90314,27439,-4627,-1046,-65,-12,-9,20,228,494,-152,1,1,0,14,40,0,53298,1
2,27550,30237,31324,90315,27452,-4641,-1054,-78,-7,-2,33,225,483,-163,1,1,0,14,80,0,53298,1
2,27563,30233,31326,90316,27466,-4619,-1047,-69,10,-25,33,228,488,-162,1,1,0,14,120,0,53298,1
2,27547,30238,31325,90317,27478,-4625,-1045,-66,-19,-12,24,230,496,-154,1,1,0,14,160,0,53298,1
2,27545,30239,31330,90318,27491,-4633,-1047,-67,-5,-7,15,230,490,-162,1,1,0,14,200,0,53298,1
2,27545,30223,31324,90319,27504,-4637,-1056,-72,-14,-11,15,232,492,-158,1,1,0,14,240,0,53298,1
2,27562,30214,31328,90320,27518,-4629,-1048,-58,-2,-26,18,228,490,-162,1,1,0,14,280,0,53298,1
2,27608,30224,31325,90321,27531,-4632,-1059,-66,-18,-23,18,218,486,-152,1,1,0,14,320,0,53298,1
2,27584,30230,31327,90322,27544,-4620,-1042,-65,4,-45,30,230,492,-160,1,1,0,14,360,0,53298,1
2,27588,30218,31327,90323,27556,-4635,-1051,-55,6,-13,30,233,487,-157,1,1,0,14,400,0,53298,1
2,27578,30224,31325,90324,27569,-4617,-1051,-58,-10,15,14,234,492,-154,1,1,0,14,440,0,53298,1
2,27601,30218,31325,90325,27583,-4634,-1062,-64,-12,11,9,238,492,-158,1,1,0,14,480,0,53298,1
2,27602,30237,31330,90326,27597,-4621,-1046,-72,8,-9,23,225,487,-153,1,1,0,14,520,0,53298,1
2,27612,30217,31330,90327,27609,-4635,-1053,-58,-7,-8,24,230,490,-160,1,1,0,14,560,0,53298,1
2,27609,30226,31329,90328,27622,-4624,-1059,-64,-1,-10,18,229,489,-165,1,1,0,14,600,0,53298,1
2,27609,30258,31329,90329,27635,-4630,-1064,-67,1,-8,18,234,488,-150,1,1,0,14,640,0,53298,1
2,27583,30248,31335,90330,27648,-4619,-1047,-69,-10,-12,22,230,492,-152,1,1,0,14,680,0,53298,1
2,27570,30247,31329,90331,27661,-4637,-1052,-76,-3,-19,17,233,493,-167,1,1,0,14,720,0,53298,1
2,27558,30265,31331,90332,27675,-4641,-1062,-76,-9,-15,10,232,492,-156,1,1,0,14,760,0,53298,1
2,27586,30259,31329,90333,27688,-4633,-1064,-54,1,-9,20,227,493,-157,1,1,0,14,800,0,53298,1
2,27576,30275,31327,90334,27702,-4627,-1054,-53,-4,2,21,230,492,-156,1,1,0,14,840,0,53298,1
2,27560,30264,31330,90335,27717,-4631,-1055,-69,-2,7,16,237,497,-157,1,1,0,14,880,0,53298,1
2,27556,30264,31329,90336,27730,-4620,-1046,-55,1,-7,21,230,490,-160,1,1,0,14,920,0,53298,1
2,27575,30269,31327,90337,27745,-4629,-1056,-57,-3,-15,22,228,488,-164,1,1,0,14,960,0,53298,1
1,27563,30272,31328,90338,0,-4629,-1057,-63,-5,-8,17,230,484,-166,1,1,0,15,0,1,53298,1
2,27583,30270,31329,90339,26991,-4646,-1075,-75,-10,-4,24,222,492,-160,1,1,0,15,40,1,53298,1
2,27553,30278,31331,90340,27005,-4626,-1057,-65,-3,-14,31,229,487,-151,1,1,0,15,80,1,53298,1
2,27545,30282,31325,90341,27019,-4643,-1062,-62,-3,-23,29,226,488,-160,1,1,0,15,120,1,53298,1
2,27548,30288,31327,90342,27032,-4614,-1055,-73,-8,-18,22,233,485,-163,1,1,0,15,160,1,53298,1
2,27541,30262,31329,90343,27046,-4637,-1063,-56,-2,-1,22,228,488,-164,1,1,0,15,200,1,53298,1
2,27543,30270,31326,90344,27060,-4627,-1055,-51,-7,-4,27,225,491,-165,1,1,0,15,240,1,53298,1
2,27565,30274,31330,90345,27075,-4618,-1047,-49,-10,-10,15,228,488,-162,1,1,0,15,280,1,53298,1
2,27517,30284,31330,90346,27089,-4637,-1060,-66,-3,-24,22,232,490,-150,1,1,0,15,320,1,53298,1
2,27515,30268,31326,90347,27103,-4617,-1041,-63,3,-24,25,224,494,-148,1,1,0,15,360,1,53298,1
2,27513,30288,31329,90348,27118,-4630,-1059,-62,-19,-18,19,234,484,-154,1,1,0,15,400,1,53298,1
2,27511,30269,31326,90349,27132,-4632,-1049,-62,-6,-26,15,225,493,-155,1,1,0,15,440,1,53298,1
2,27523,30278,31325,90350,27146,-4631,-1054,-50,-10,-20,20,225,487,-165,1,1,0,15,480,1,53298,1
2,27520,30270,31328,90351,27160,-4632,-1064,-63,-4,-20,23,232,484,-162,1,1,0,15,520,1,53298,1
2,27497,30262,31330,90352,27174,-4620,-1065,-70,-7,-17,18,231,499,-155,1,1,0,15,560,1,53298,1
2,27482,30259,31329,90353,27188,-4630,-1058,-58,-11,-10,19,234,492,-158,1,1,0,15,600,1,53298,1
2,27481,30263,31331,90354,27201,-4621,-1052,-74,-1,-5,18,241,497,-165,1,1,0,15,640,1,53298,1
2,27470,30268,31327,90355,27214,-4625,-1064,-58,-7,-6,23,227,493,-163,1,1,0,15,680,1,53298,1
2,27475,30297,31330,90356,27227,-4624,-1054,-61,-5,-8,24,221,487,-163,1,1,0,15,720,1,53298,1
2,27482,30265,31332,90357,27241,-4620,-1062,-70,-5,-4,27,237,489,-167,1,1,0,15,760,1,53298,1
2,27484,30281,31330,90358,27254,-4635,-1059,-66,-12,-11,17,227,495,-157,1,1,0,15,800,1,53298,1
2,27485,30291,31326,90359,27268,-4619,-1053,-60,-5,-17,21,229,485,-169,1,1,0,15,840,1,53298,1
2,27493,30279,31326,90360,27283,-4619,-1059,-55,-8,-14,23,231,493,-161,1,1,0,15,880,1,53298,1
2,27504,30289,31329,90361,27296,-4617,-1039,-58,-6,-15,16,226,476,-152,1,1,0,15,920,1,53298,1
2,27495,30283,31326,90362,27311,-4626,-1048,-59,-9,-12,22,226,490,-152,1,1,0,15,960,1,53298,1
1,27489,30293,31330,90363,0,-4633,-1057,-61,-4,-20,22,226,494,-162,1,1,0,16,0,0,53298,1
2,27485,30305,31330,90364,26544,-4639,-1071,-65,-9,-12,26,226,500,-156,1,1,0,16,40,0,53298,1
2,27506,30310,31325,90365,26558,-4637,-1058,-70,2,-3,30,228,494,-150,1,1,0,16,80,0,53298,1
2,27511,30313,31330,90366,26572,-4632,-1049,-73,-1,1,21,233,487,-157,1,1,0,16,120,0,53298,1
2,27497,30306,31330,90367,26586,-4629,-1059,-61,-8,7,22,237,489,-161,1,1,0,16,160,0,53298,1
2,27489,30296,31330,90368,26600,-4637,-1054,-62,-6,-6,15,230,490,-156,1,1,0,16,200,0,53298,1
2,27515,30292,31327,90369,26614,-4628,-1059,-66,-6,-17,9,219,501,-161,1,1,0,16,240,0,53298,1
2,27530,30291,31330,90370,26627,-4636,-1071,-71,-8,-17,16,232,488,-158,1,1,0,16,280,0,53298,1
2,27516,30269,31327,90371,26640,-4634,-1050,-65,-2,-26,21,232,498,-152,1,1,0,16,320,0,53298,1
2,27509,30275,31330,90372,26653,-4622,-1049,-69,-1,-21,30,225,495,-161,1,1,0,16,360,0,53298,1
2,27503,30279,31325,90373,26667,-4628,-1066,-64,0,-9,25,227,489,-161,1,1,0,16,400,0,53298,1
2,27502,30276,31324,90374,26680,-4630,-1059,-56,3,-8,27,231,495,-161,1,1,0,16,440,0,53298,1
2,27503,30292,31330,90375,26694,-4624,-1057,-74,-8,0,11,226,480,-164,1,1,0,16,480,0,53298,1
2,27509,30287,31323,90376,26708,-4628,-1059,-70,-5,3,7,231,489,-159,1,1,0,16,520,0,53298,1
2,27509,30270,31325,90377,26722,-4627,-1057,-66,-3,8,14,225,493,-157,1,1,0,16,560,0,53298,1
2,27518,30272,31322,90378,26734,-4630,-1051,-48,-7,-13,19,229,495,-157,1,1,0,16,600,0,53298,1
2,27514,30257,31325,90379,26748,-4627,-1060,-62,-6,-9,23,240,498,-154,1,1,0,16,640,0,53298,1
2,27517,30265,31325,90380,26760,-4624,-1055,-69,-7,-16,14,233,495,-167,1,1,0,16,680,0,53298,1
2,27503,30278,31324,90381,26772,-4622,-1047,-65,-5,-12,19,227,493,-157,1,1,0,16,720,0,53298,1
2,27522,30271,31325,90382,26785,-4631,-1058,-67,-2,-11,30,236,490,-170,1,1,0,16,760,0,53298,1
2,27516,30264,31330,90383,26797,-4621,-1050,-70,-3,-11,24,236,492,-164,1,1,0,16,800,0,53298,1
2,27536,30259,31325,90384,26810,-4620,-1044,-62,-9,-8,20,238,486,-158,1,1,0,16,840,0,53298,1
2,27526,30256,31326,90385,26823,-4629,-1060,-66,-10,-3,16,228,490,-170,1,1,0,16,880,0,53298,1
2,27507,30253,31328,90386,26836,-4623,-1058,-72,-5,-11,9,231,497,-157,1,1,0,16,920,0,53298,1
2,27529,30267,31325,90387,26849,-4622,-1054,-59,-1,-15,24,225,493,-167,1,1,0,16,960,0,53298,1
1,27526,30277,31327,90388,0,-4631,-1071,-64,1,-23,23,228,490,-154,1,1,0,17,0,1,53298,1
2,27515,30275,31330,90389,26096,-4635,-1061,-66,-5,-12,31,227,493,-149,1,1,0,17,40,1,53298,1
2,27511,30265,31329,90390,26110,-4636,-1045,-64,-2,-6,23,231,485,-155,1,1,0,17,80,1,53298,1
2,27514,30276,31329,90391,26123,-4627,-1053,-60,-10,-11,17,233,499,-163,1,1,0,17,120,1,53298,1
2,27526,30271,31330,90392,26135,-4621,-1047,-68,-1,-12,12,230,492,-150,1,1,0,17,160,1,53298,1
2,27531,30279,31329,90393,26148,-4624,-1056,-54,-6,-12,24,223,483,-147,1,1,0,17,200,1,53298,1
2,27532,30280,31334,90394,26161,-4637,-1058,-71,-3,-15,23,223,493,-155,1,1,0,17,240,1,53298,1
2,27531,30286,31330,90395,26174,-4628,-1059,-65,-6,-13,22,219,491,-161,1,1,0,17,280,1,53298,1
2,27517,30290,31330,90396,26187,-4635,-1056,-67,-7,-18,21,230,494,-160,1,1,0,17,320,1,53298,1
2,27516,30292,31333,90397,26200,-4633,-1062,-61,-5,-25,18,238,490,-160,1,1,0,17,360,1,53298,1
2,27523,30297,31330,90398,26214,-4625,-1057,-69,-5,-10,23,227,493,-153,1,1,0,17,400,1,53298,1
2,27510,30297,31332,90399,26227,-4623,-1050,-66,-4,-15,16,229,499,-159,1,1,0,17,440,1,53298,1
2,27489,30310,31331,90400,26241,-4636,-1057,-77,-1,-16,27,230,494,-166,1,1,0,17,480,1,53298,1
2,27500,30311,31335,90401,26254,-4621,-1060,-64,-2,-13,19,223,491,-151,1,1,0,17,520,1,53298,1
2,27492,30302,31331,90402,26267,-4617,-1050,-62,-4,-4,16,231,497,-151,1,1,0,17,560,1,53298,1
2,27499,30299,31330,90403,26281,-4626,-1057,-76,-9,-14,15,232,490,-158,1,1,0,17,600,1,53298,1
2,27501,30308,31332,90404,26295,-4636,-1061,-81,2,-22,21,223,493,-159,1,1,0,17,640,1,53298,1
2,27492,30290,31335,90405,26309,-4622,-1051,-72,1,-23,27,226,488,-158,1,1,0,17,680,1,53298,1
2,27501,30296,31332,90406,26323,-4623,-1055,-69,-2,-12,27,231,491,-151,1,1,0,17,720,1,53298,1
2,27482,30290,31331,90407,26336,-4636,-1061,-68,-13,-5,26,229,483,-161,1,1,0,17,760,1,53298,1
2,27492,30310,31332,90408,26350,-4618,-1040,-73,-6,-11,23,232,488,-168,1,1,0,17,800,1,53298,1
2,27491,30315,31335,90409,26363,-4621,-1047,-61,-8,-10,20,237,489,-167,1,1,0,17,840,1,53298,1
2,27489,30307,31333,90410,26376,-4632,-1066,-74,-10,-16,10,222,488,-166,1,1,0,17,880,1,53298,1
2,27495,30295,31334,90411,26388,-4624,-1051,-59,4,-19,22,231,497,-163,1,1,0,17,920,1,53298,1
2,27501,30302,31333,90412,26401,-4616,-1045,-74,-8,-20,19,230,492,-152,1,1,0,17,960,1,53298,1
1,27479,30285,31331,90413,0,-4633,-1068,-65,-5,-8,22,230,484,-162,1,1,0,18,0,0,53298,1
2,27495,30295,31337,90414,25650,-4628,-1056,-66,-13,-9,18,225,495,-147,1,1,0,18,40,0,53298,1
2,27496,30293,31330,90415,25663,-4624,-1056,-70,-5,-23,21,233,489,-149,1,1,0,18,80,0,53298,1
2,27494,30297,31334,90416,25678,-4629,-1059,-57,-4,-21,29,234,482,-158,1,1,0,18,120,0,53298,1
2,27495,30304,31335,90417,25692,-4626,-1043,-63,-6,-21,18,231,493,-157,1,1,0,18,160,0,53298,1
2,27471,30288,31335,90418,25705,-4623,-1051,-71,-5,-15,29,230,482,-160,1,1,0,18,200,0,53298,1
2,27484,30305,31327,90419,25720,-4623,-1062,-63,-5,-10,19,229,491,-163,1,1,0,18,240,0,53298,1
2,27493,30297,31330,90420,25734,-4629,-1061,-64,-4,-10,13,232,488,-156,1,1,0,18,280,0,53298,1
2,27489,30298,31333,90421,25748,-4633,-1072,-61,-3,-26,20,223,493,-157,1,1,0,18,320,0,53298,1
2,27473,30298,31330,90422,25762,-4622,-1045,-59,1,-28,32,229,489,-155,1,1,0,18,360,0,53298,1
2,27486,30291,31333,90423,25776,-4623,-1055,-71,-9,-9,27,230,490,-166,1,1,0,18,400,0,53298,1
2,27482,30287,31330,90424,25790,-4625,-1054,-62,-9,-11,22,228,496,-162,1,1,0,18,440,0,53298,1
2,27481,30294,31330,90425,25804,-4631,-1058,-68,-8,-11,15,236,494,-164,1,1,0,18,480,0,53298,1
2,27494,30286,31333,90426,25818,-4631,-1048,-53,-3,-24,20,233,489,-165,1,1,0,18,520,0,53298,1
2,27494,30284,31330,90427,25833,-4620,-1053,-71,-9,-24,23,232,488,-160,1,1,0,18,560,0,53298,1
2,27489,30291,31335,90428,25847,-4630,-1055,-68,1,-17,20,232,490,-152,1,1,0,18,600,0,53298,1
2,27488,30298,31336,90429,25862,-4633,-1050,-78,-7,-16,25,227,497,-159,1,1,0,18,640,0,53298,1
2,27493,30297,31335,90430,25877,-4616,-1046,-50,-5,-17,19,225,487,-169,1,1,0,18,680,0,53298,1
2,27485,30289,31335,90431,25892,-4640,-1061,-70,-12,-10,21,234,490,-158,1,1,0,18,720,0,53298,1
2,27487,30285,31335,90432,25905,-4617,-1044,-66,1,-22,16,228,482,-164,1,1,0,18,760,0,53298,1
2,27491,30295,31335,90433,25919,-4621,-1049,-60,-10,-7,19,228,486,-158,1,1,0,18,800,0,53298,1
2,27479,30283,31332,90434,25932,-4633,-1064,-48,-7,-15,20,234,496,-158,1,1,0,18,840,0,53298,1
2,27477,30290,31334,90435,25946,-4627,-1070,-70,-10,-13,11,229,497,-155,1,1,0,18,880,0,53298,1
2,27496,30286,31330,90436,25960,-4628,-1060,-64,-5,-16,20,231,485,-159,1,1,0,18,920,0,53298,1
2,27471,30286,31330,90437,25973,-4636,-1064,-65,-8,-15,20,229,489,-159,1,1,0,18,960,0,53298,1
1,27465,30294,31337,90438,0,-4637,-1063,-60,-9,-13,20,229,491,-163,1,1,0,19,0,1,53298,1
2,27479,30291,31335,90439,25203,-4632,-1057,-58,-1,-15,29,232,494,-162,1,1,0,19,40,1,53298,1
2,27482,30281,31338,90440,25217,-4631,-1069,-60,-7,-4,28,228,486,-164,1,1,0,19,80,1,53298,1
2,27479,30288,31333,90441,25231,-4621,-1051,-72,-5,-7,21,227,493,-163,1,1,0,19,120,1,53298,1
2,27465,30280,31336,90442,25245,-4638,-1071,-72,-14,-3,21,233,493,-153,1,1,0,19,160,1,53298,1
2,27477,30275,31335,90443,25259,-4625,-1055,-54,-10,-16,23,237,491,-163,1,1,0,19,200,1,53298,1
2,27502,30269,31335,90444,25273,-4632,-1056,-61,-5,-20,18,229,483,-163,1,1,0,19,240,1,53298,1
2,27478,30276,31335,90445,25287,-4625,-1058,-70,-13,-20,21,224,494,-160,1,1,0,19,280,1,53298,1
2,27477,30283,31336,90446,25300,-4629,-1062,-57,-9,-6,23,233,487,-159,1,1,0,19,320,1,53298,1
2,27482,30294,31335,90447,25315,-4619,-1055,-60,-14,-16,27,232,494,-154,1,1,0,19,360,1,53298,1
2,27491,30300,31335,90448,25328,-4609,-1041,-64,-8,-14,26,232,482,-164,1,1,0,19,400,1,53298,1
2,27479,30291,31338,90449,25341,-4638,-1062,-52,-1,-10,28,233,485,-163,1,1,0,19,440,1,53298,1
2,27475,30289,31338,90450,25356,-4628,-1059,-66,2,-9,23,236,494,-160,1,1,0,19,480,1,53298,1
2,27486,30279,31335,90451,25370,-4629,-1055,-61,-6,-6,20,232,488,-158,1,1,0,19,520,1,53298,1
2,27469,30292,31335,90452,25384,-4635,-1066,-56,-7,-15,12,235,495,-149,1,1,0,19,560,1,53298,1
2,27472,30282,31338,90453,25398,-4631,-1054,-61,-6,-3,23,217,491,-165,1,1,0,19,600,1,53298,1
2,27482,30289,31335,90454,25412,-4630,-1047,-74,-11,-14,31,230,492,-156,1,1,0,19,640,1,53298,1
2,27468,30285,31335,90455,25426,-4628,-1045,-67,-4,-21,25,233,487,-167,1,1,0,19,680,1,53298,1
2,27459,30283,31338,90456,25440,-4619,-1051,-62,-12,-13,19,232,490,-162,1,1,0,19,720,1,53298,1
2,27477,30286,31339,90457,25455,-4628,-1050,-54,-7,-9,17,234,490,-158,1,1,0,19,760,1,53298,1
2,27474,30278,31338,90458,25470,-4626,-1061,-54,-7,-12,22,230,494,-158,1,1,0,19,800,1,53298,1
2,27469,30296,31335,90459,25485,-4621,-1044,-68,-9,-12,21,228,494,-162,1,1,0,19,840,1,53298,1
2,27473,30290,31340,90460,25501,-4625,-1059,-87,-13,-6,20,226,496,-152,1,1,0,19,880,1,53298,1
2,27477,30286,31337,90461,25516,-4631,-1066,-66,-6,-8,25,230,492,-164,1,1,0,19,920,1,53298,1
2,27472,30278,31336,90462,25531,-4630,-1050,-69,-6,-15,17,233,489,-161,1,1,0,19,960,1,53298,1
1,27461,30279,31338,90463,0,-4634,-1053,-44,-5,-17,18,226,492,-160,1,1,0,20,0,1,53298,1
2,27469,30286,31338,90464,24757,-4642,-1061,-71,-5,-6,15,237,497,-167,1,1,0,20,40,1,53298,1
2,27485,30286,31338,90465,24771,-4625,-1057,-72,-3,-15,23,222,482,-160,1,1,0,20,80,1,53298,1
2,27459,30275,31336,90466,24785,-4625,-1051,-70,-8,-7,17,235,483,-151,1,1,0,20,120,1,53298,1
2,27476,30275,31336,90467,24799,-4628,-1039,-48,0,-19,19,236,488,-158,1,1,0,20,160,1,53298,1
2,27490,30275,31338,90468,24813,-4629,-1055,-63,-7,-9,22,234,492,-170,1,1,0,20,200,1,53298,1
2,27490,30286,31335,90469,24827,-4627,-1054,-64,-3,-22,18,229,495,-157,1,1,0,20,240,1,53298,1
2,27472,30277,31332,90470,24841,-4624,-1050,-78,-12,-15,23,226,498,-158,1,1,0,20,280,1,53298,1
2,27484,30275,31336,90471,24855,-4633,-1063,-61,-14,-4,32,222,488,-168,1,1,0,20,320,1,53298,1
2,27485,30267,31339,90472,24870,-4634,-1056,-67,-9,-18,27,227,493,-163,1,1,0,20,360,1,53298,1
2,27473,30273,31339,90473,24884,-4633,-1050,-65,-13,-10,12,230,486,-148,1,1,0,20,400,1,53298,1
2,27481,30286,31338,90474,24898,-4626,-1059,-65,-7,-10,20,229,495,-153,1,1,0,20,440,1,53298,1
2,27475,30288,31338,90475,24913,-4626,-1055,-74,-12,-6,23,230,488,-164,1,1,0,20,480,1,53298,1
2,27481,30284,31338,90476,24928,-4631,-1055,-70,-4,-14,31,232,486,-162,1,1,0,20,520,1,53298,1
2,27466,30273,31335,90477,24943,-4626,-1056,-57,-6,-1,28,225,499,-167,1,1,0,20,560,1,53298,1
2,27462,30284,31339,90478,24957,-4638,-1064,-66,-10,2,27,234,488,-162,1,1,0,20,600,1,53298,1
2,27452,30282,31335,90479,24971,-4636,-1063,-58,-4,-1,18,232,498,-166,1,1,0,20,640,1,53298,1
2,27467,30265,31335,90480,24985,-4634,-1056,-47,-1,-8,14,227,493,-167,1,1,0,20,680,1,53298,1
2,27470,30256,31334,90481,24998,-4650,-1074,-65,-11,5,17,233,489,-151,1,1,0,20,720,1,53298,1
2,27482,30265,31334,90482,25011,-4630,-1071,-79,-8,-9,25,229,487,-165,1,1,0,20,760,1,53298,1
2,27476,30266,31335,90483,25025,-4628,-1059,-69,-1,-11,31,229,491,-159,1,1,0,20,800,1,53298,1
2,27462,30272,31335,90484,25039,-4626,-1059,-60,2,-20,25,221,491,-167,1,1,0,20,840,1,53298,1
2,27482,30273,31337,90485,25053,-4636,-1066,-75,-9,-8,23,235,489,-163,1,1,0,20,880,1,53298,1
2,27464,30268,31332,90486,25067,-4633,-1062,-60,-9,-7,17,218,494,-154,1,1,0,20,920,1,53298,1
2,27449,30265,31329,90487,25081,-4636,-1069,-58,-3,-14,15,226,494,-160,1,1,0,20,960,1,53298,1
1,27451,30268,31337,90488,0,-4630,-1058,-61,0,-17,22,226,490,-150,1,1,0,21,0,0,53298,1
2,27446,30264,31335,90489,24311,-4647,-1073,-71,-7,-14,20,229,491,-153,1,1,0,21,40,0,53298,1
2,27451,30260,31331,90490,24324,-4639,-1057,-56,-4,-23,19,235,489,-153,1,1,0,21,80,0,53298,1
2,27442,30255,31331,90491,24338,-4627,-1049,-71,-17,-11,20,231,483,-161,1,1,0,21,120,0,53298,1
2,27450,30268,31331,90492,24352,-4624,-1050,-72,-10,-14,14,226,478,-164,1,1,0,21,160,0,53298,1
2,27459,30265,31334,90493,24366,-4627,-1065,-66,-4,-15,18,233,491,-157,1,1,0,21,200,0,53298,1
2,27455,30263,31335,90494,24380,-4630,-1066,-59,2,-14,30,226,486,-162,1,1,0,21,240,0,53298,1
2,27471,30260,31331,90495,24395,-4618,-1046,-70,-6,-7,31,231,491,-159,1,1,0,21,280,0,53298,1
2,27479,30255,31331,90496,24409,-4648,-1069,-66,-8,2,24,233,497,-153,1,1,0,21,320,0,53298,1
2,27447,30251,31332,90497,24424,-4616,-1055,-63,-7,-1,14,222,486,-154,1,1,0,21,360,0,53298,1
2,27471,30264,31330,90498,24438,-4614,-1047,-62,-10,-11,20,239,491,-159,1,1,0,21,400,0,53298,1
2,27460,30278,31330,90499,24453,-4639,-1061,-53,-10,-13,15,236,488,-162,1,1,0,21,440,0,53298,1
2,27461,30280,31335,90500,24468,-4631,-1053,-61,-10,-18,16,230,490,-158,1,1,0,21,480,0,53298,1
2,27468,30263,31332,90501,24482,-4636,-1064,-68,-7,-14,29,230,496,-162,1,1,0,21,520,0,53298,1
2,27465,30266,31334,90502,24497,-4628,-1054,-70,-7,-21,19,228,486,-170,1,1,0,21,560,0,53298,1
2,27461,30258,31331,90503,24511,-4637,-1069,-78,-12,-15,29,233,493,-161,1,1,0,21,600,0,53298,1
2,27466,30253,31331,90504,24525,-4625,-1051,-61,-11,-11,17,224,488,-164,1,1,0,21,640,0,53298,1
2,27474,30255,31330,90505,24539,-4635,-1071,-67,-5,-15,20,227,493,-161,1,1,0,21,680,0,53298,1
2,27448,30242,31329,90506,24553,-4623,-1052,-74,-8,-8,26,226,494,-168,1,1,0,21,720,0,53298,1
2,27445,30242,31330,90507,24567,-4627,-1052,-57,-2,-10,24,231,495,-157,1,1,0,21,760,0,53298,1
2,27448,30251,31331,90508,24581,-4627,-1047,-69,-6,-4,21,223,493,-155,1,1,0,21,800,0,53298,1
2,27465,30250,31333,90509,24596,-4627,-1056,-48,-9,-9,16,227,497,-157,1,1,0,21,840,0,53298,1
2,27458,30252,31330,90510,24611,-4620,-1052,-67,-5,-18,21,236,492,-156,1,1,0,21,880,0,53298,1
2,27470,30270,31332,90511,24625,-4619,-1046,-73,-6,-24,29,239,491,-169,1,1,0,21,920,0,53298,1
2,27460,30269,31330,90512,24640,-4635,-1066,-59,3,-16,23,234,492,-164,1,1,0,21,960,0,53298,1
1,27457,30258,31332,90513,0,-4641,-1071,-63,2,-8,38,231,491,-161,1,1,0,22,0,0,53298,1
2,27471,30259,31330,90514,23865,-4624,-1055,-69,-7,6,27,228,494,-162,1,1,0,22,40,0,53298,1
2,27468,30270,31331,90515,23879,-4620,-1052,-70,-14,-13,28,225,497,-151,1,1,0,22,80,0,53298,1
2,27466,30280,31335,90516,23893,-4628,-1055,-71,-4,-19,14,229,493,-163,1,1,0,22,120,0,53298,1
2,27465,30266,31334,90517,23907,-4631,-1063,-61,-7,-29,11,221,499,-155,1,1,0,22,160,0,53298,1
2,27471,30277,31335,90518,23921,-4632,-1069,-71,-12,-14,18,227,493,-151,1,1,0,22,200,0,53298,1
2,27481,30272,31334,90519,23935,-4630,-1065,-63,-3,-12,19,237,495,-161,1,1,0,22,240,0,53298,1
2,27484,30285,31332,90520,23950,-4634,-1056,-54,-1,-18,23,223,493,-157,1,1,0,22,280,0,53298,1
2,27467,30280,31330,90521,23963,-4646,-1069,-58,-7,-18,23,235,493,-157,1,1,0,22,320,0,53298,1
2,27471,30279,31330,90522,23977,-4622,-1048,-72,-8,-9,28,223,501,-149,1,1,0,22,360,0,53298,1
2,27468,30285,31330,90523,23991,-4635,-1068,-68,-13,-19,20,227,487,-159,1,1,0,22,400,0,53298,1
2,27477,30272,31335,90524,24004,-4625,-1067,-68,-5,-13,22,232,492,-164,1,1,0,22,440,0,53298,1
2,27477,30276,31334,90525,24016,-4626,-1051,-63,-4,-14,31,231,489,-165,1,1,0,22,480,0,53298,1
2,27465,30260,31331,90526,24029,-4630,-1059,-56,-8,-19,25,241,491,-161,1,1,0,22,520,0,53298,1
2,27467,30262,31333,90527,24042,-4622,-1056,-66,-9,-11,22,232,490,-164,1,1,0,22,560,0,53298,1
2,27457,30257,31341,90528,24056,-4634,-1053,-67,-6,-13,14,219,499,-167,1,1,0,22,600,0,53298,1
2,27477,30257,31340,90529,24069,-4644,-1065,-55,11,-10,23,238,486,-168,1,1,0,22,640,0,53298,1
2,27479,30252,31335,90530,24082,-4635,-1051,-47,1,-9,13,231,491,-157,1,1,0,22,680,0,53298,1
2,27477,30251,31334,90531,24096,-4632,-1061,-71,1,-2,20,233,485,-163,1,1,0,22,720,0,53298,1
2,27481,30256,31335,90532,24109,-4643,-1067,-59,-5,-4,33,232,486,-160,1,1,0,22,760,0,53298,1
2,27481,30255,31335,90533,24121,-4631,-1068,-63,6,-15,26,233,495,-161,1,1,0,22,800,0,53298,1
2,27495,30255,31339,90534,24136,-4643,-1065,-68,2,-7,31,229,485,-165,1,1,0,22,840,0,53298,1
2,27490,30255,31335,90535,24150,-4628,-1059,-55,-13,-3,7,227,493,-163,1,1,0,22,880,0,53298,1
2,27476,30259,31335,90536,24165,-4625,-1059,-73,-10,0,10,229,497,-155,1,1,0,22,920,0,53298,1
2,27473,30271,31339,90537,24179,-4618,-1043,-52,-6,-13,19,230,492,-158,1,1,0,22,960,0,53298,1
1,27480,30246,31337,90538,0,-4627,-1067,-70,-5,-10,19,226,482,-162,1,1,0,23,0,0,53298,1
2,27463,30255,31338,90539,23419,-4635,-1064,-54,6,-15,22,229,495,-169,1,1,0,23,40,0,53298,1
2,27467,30245,31339,90540,23433,-4630,-1065,-58,-6,-17,26,227,493,-163,1,1,0,23,80,0,53298,1
2,27471,30240,31337,90541,23448,-4632,-1067,-68,-8,-19,29,231,489,-157,1,1,0,23,120,0,53298,1
2,27480,30265,31338,90542,23461,-4634,-1062,-69,-4,-18,29,230,490,-164,1,1,0,23,160,0,53298,1
2,27464,30259,31335,90543,23475,-4631,-1051,-66,3,-15,25,227,499,-165,1,1,0,23,200,0,53298,1
2,27489,30262,31339,90544,23489,-4636,-1069,-69,-2,-6,18,230,490,-158,1,1,0,23,240,0,53298,1
2,27480,30270,31342,90545,23503,-4627,-1056,-77,-9,-10,17,234,492,-162,1,1,0,23,280,0,53298,1
2,27477,30272,31340,90546,23517,-4622,-1054,-65,-7,-16,19,229,495,-159,1,1,0,23,320,0,53298,1
2,27477,30273,31343,90547,23531,-4631,-1059,-64,-7,-17,11,228,488,-164,1,1,0,23,360,0,53298,1
2,27482,30262,31343,90548,23545,-4637,-1053,-65,1,-13,23,227,489,-153,1,1,0,23,400,0,53298,1
2,27492,30232,31343,90549,23559,-4633,-1051,-70,-10,-21,16,222,494,-156,1,1,0,23,440,0,53298,1
2,27477,30207,31336,90550,23573,-4643,-1060,-71,3,-24,26,224,492,-156,1,1,0,23,480,0,53298,1
2,27466,30264,31338,90551,23586,-4639,-1061,-65,-8,-19,30,225,497,-159,1,1,0,23,520,0,53298,1
2,27465,30265,31338,90552,23599,-4635,-1065,-73,3,-10,30,237,487,-161,1,1,0,23,560,0,53298,1
2,27456,30270,31339,90553,23612,-4639,-1066,-63,-2,-8,30,232,490,-160,1,1,0,23,600,0,53298,1
2,27445,30262,31340,90554,23626,-4625,-1059,-66,-3,-11,25,218,484,-158,1,1,0,23,640,0,53298,1
2,27446,30277,31338,90555,23640,-4629,-1053,-55,-4,-8,22,232,494,-154,1,1,0,23,680,0,53298,1
2,27447,30273,31337,90556,23653,-4633,-1062,-55,-8,-11,12,224,490,-156,1,1,0,23,720,0,53298,1
2,27450,30275,31338,90557,23667,-4630,-1049,-70,-17,-4,18,235,493,-161,1,1,0,23,760,0,53298,1
2,27451,30270,31343,90558,23680,-4630,-1054,-55,-14,-19,18,232,490,-164,1,1,0,23,800,0,53298,1
2,27456,30259,31341,90559,23693,-4629,-1053,-56,1,-34,29,221,491,-163,1,1,0,23,840,0,53298,1
2,27454,30269,31338,90560,23706,-4629,-1061,-60,-12,-12,28,235,495,-161,1,1,0,23,880,0,53298,1
2,27466,30270,31338,90561,23720,-4631,-1065,-57,5,5,22,238,486,-154,1,1,0,23,920,0,53298,1
2,27466,30264,31336,90562,23733,-4635,-1063,-64,-4,3,29,234,494,-162,1,1,0,23,960,0,53298,1
1,27451,30263,31338,90563,0,-4621,-1063,-56,0,-14,35,228,498,-152,1,1,0,24,0,1,53298,1
2,27447,30275,31342,90564,22973,-4637,-1055,-53,1,-36,29,233,489,-155,1,1,0,24,40,1,53298,1
2,27469,30270,31340,90565,22986,-4628,-1055,-62,-8,-28,22,227,489,-161,1,1,0,24,80,1,53298,1
2,27450,30257,31341,90566,23000,-4613,-1043,-69,-11,-10,15,236,492,-162,1,1,0,24,120,1,53298,1
2,27449,30267,31339,90567,23014,-4634,-1061,-71,-6,6,14,232,498,-166,1,1,0,24,160,1,53298,1
2,27465,30260,31339,90568,23027,-4640,-1060,-63,-2,6,10,229,483,-163,1,1,0,24,200,1,53298,1
2,27453,30265,31340,90569,23040,-4640,-1067,-61,-2,6,26,229,497,-167,1,1,0,24,240,1,53298,1
2,27468,30274,31339,90570,23053,-4631,-1056,-47,-6,-2,21,231,487,-153,1,1,0,24,280,1,53298,1
2,27455,30267,31353,90571,23066,-4621,-1062,-50,-6,-11,27,239,501,-157,1,1,0,24,320,1,53298,1
2,27460,30262,31340,90572,23080,-4633,-1056,-63,-5,-8,30,236,488,-162,1,1,0,24,360,1,53298,1
2,27450,30270,31340,90573,23093,-4637,-1054,-68,0,-2,23,224,494,-158,1,1,0,24,400,1,53298,1
2,27431,30274,31339,90574,23107,-4645,-1069,-68,-5,-5,16,230,498,-164,1,1,0,24,440,1,53298,1
2,27432,30279,31339,90575,23121,-4635,-1062,-78,-6,-1,18,226,484,-158,1,1,0,24,480,1,53298,1
2,27448,30262,31337,90576,23136,-4624,-1045,-63,-4,-15,18,228,486,-154,1,1,0,24,520,1,53298,1
2,27448,30278,31339,90577,23150,-4619,-1062,-70,-12,-8,24,217,491,-147,1,1,0,24,560,1,53298,1
2,27438,30282,31344,90578,23164,-4629,-1056,-64,-3,-8,18,233,501,-157,1,1,0,24,600,1,53298,1
2,27441,30293,31341,90579,23178,-4633,-1064,-66,-13,-8,12,235,489,-161,1,1,0,24,640,1,53298,1
2,27435,30278,31343,90580,23191,-4636,-1068,-65,-7,-2,21,234,486,-158,1,1,0,24,680,1,53298,1
2,27445,30293,31342,90581,23205,-4627,-1062,-62,-1,-3,19,224,490,-158,1,1,0,24,720,1,53298,1
2,27438,30276,31345,90582,23219,-4621,-1051,-63,-6,-4,22,235,493,-159,1,1,0,24,760,1,53298,1
2,27449,30271,31340,90583,23232,-4630,-1055,-56,-5,-6,17,229,483,-163,1,1,0,24,800,1,53298,1
2,27456,30270,31340,90584,23245,-4648,-1069,-62,-7,-2,27,222,492,-158,1,1,0,24,840,1,53298,1
2,27455,30282,31339,90585,23258,-4641,-1063,-74,-2,-9,22,235,495,-159,1,1,0,24,880,1,53298,1
2,27449,30280,31341,90586,23272,-4620,-1048,-71,-9,4,15,228,488,-166,1,1,0,24,920,1,53298,1
2,27452,30269,31336,90587,23287,-4638,-1073,-73,-1,-10,17,231,497,-165,1,1,0,24,960,1,53298,1
1,27457,30270,31340,90588,0,-4633,-1067,-57,-3,-15,22,222,490,-156,1,1,0,25,0,0,53298,1
2,27450,30265,31339,90589,22528,-4625,-1046,-59,-4,-1,24,226,492,-156,1,1,0,25,40,0,53298,1
2,27453,30279,31345,90590,22540,-4622,-1059,-58,3,-1,25,232,488,-164,1,1,0,25,80,0,53298,1
2,27447,30278,31339,90591,22553,-4629,-1057,-74,1,-6,10,226,490,-158,1,1,0,25,120,0,53298,1
2,27448,30288,31343,90592,22567,-4632,-1062,-69,0,-11,14,233,487,-163,1,1,0,25,160,0,53298,1
2,27453,30285,31340,90593,22580,-4640,-1054,-59,-7,-9,9,235,491,-159,1,1,0,25,200,0,53298,1
2,27455,30283,31344,90594,22594,-4621,-1062,-40,-12,-12,19,225,487,-163,1,1,0,25,240,0,53298,1
2,27452,30283,31346,90595,22608,-4618,-1055,-61,-1,-15,22,232,488,-160,1,1,0,25,280,0,53298,1
2,27458,30296,31347,90596,22622,-4626,-1054,-52,-5,-17,23,234,490,-160,1,1,0,25,320,0,53298,1
2,27457,30293,31345,90597,22636,-4632,-1061,-69,-8,-7,17,231,485,-159,1,1,0,25,360,0,53298,1
2,27452,30298,31344,90598,22649,-4633,-1061,-58,-5,-1,18,227,489,-155,1,1,0,25,400,0,53298,1
2,27444,30284,31340,90599,22664,-4638,-1071,-72,-13,-4,23,222,492,-162,1,1,0,25,440,0,53298,1
2,27444,30288,31343,90600,22679,-4634,-1054,-74,-6,-10,21,228,490,-160,1,1,0,25,480,0,53298,1
2,27437,30282,31342,90601,22693,-4626,-1061,-62,-5,-16,21,231,487,-161,1,1,0,25,520,0,53298,1
2,27443,30292,31340,90602,22708,-4632,-1056,-62,-4,-16,26,227,491,-147,1,1,0,25,560,0,53298,1
2,27447,30290,31347,90603,22723,-4629,-1056,-80,-12,-12,21,237,489,-155,1,1,0,25,600,0,53298,1
2,27450,30282,31346,90604,22738,-4632,-1057,-86,-11,-17,9,228,486,-158,1,1,0,25,640,0,53298,1
2,27447,30277,31350,90605,22753,-4625,-1055,-70,2,-41,26,234,490,-154,1,1,0,25,680,0,53298,1
2,27435,30288,31345,90606,22768,-4633,-1057,-79,-5,-25,30,227,487,-163,1,1,0,25,720,0,53298,1
2,27447,30289,31345,90607,22782,-4631,-1056,-59,-9,-16,33,230,496,-156,1,1,0,25,760,0,53298,1
2,27441,30297,31347,90608,22797,-4636,-1063,-65,-3,9,27,228,486,-160,1,1,0,25,800,0,53298,1
2,27440,30281,31345,90609,22812,-4636,-1057,-70,-10,8,22,228,492,-156,1,1,0,25,840,0,53298,1
2,27436,30276,31342,90610,22828,-4619,-1060,-54,-4,-10,26,233,495,-153,1,1,0,25,880,0,53298,1
2,27452,30244,31345,90611,22843,-4621,-1050,-57,6,-30,20,224,492,-160,1,1,0,25,920,0,53298,1
2,27428,30236,31345,90612,22858,-4634,-1059,-89,-22,-15,25,226,492,-150,1,1,0,25,960,0,53298,1
1,27429,30285,31355,90613,0,-4624,-1049,-65,-4,-25,28,229,491,-167,1,1,0,26,0,0,53298,1
2,27438,30300,31353,90614,22083,-4632,-1052,-68,1,-15,23,227,493,-161,1,1,0,26,40,0,53298,1
2,27429,30293,31343,90615,22096,-4624,-1045,-66,-6,-28,32,236,488,-152,1,1,0,26,80,0,53298,1
2,27435,30279,31342,90616,22111,-4627,-1065,-72,3,0,42,226,486,-158,1,1,0,26,120,0,53298,1
2,27431,30287,31338,90617,22125,-4650,-1060,-62,8,11,60,227,487,-155,1,1,0,26,160,0,53298,1
2,27441,30286,31346,90618,22139,-4625,-1035,-65,-8,-18,27,230,500,-166,1,1,0,26,200,0,53298,1
2,27450,30285,31348,90619,22153,-4639,-1052,-64,-8,-39,-47,225,489,-157,1,1,0,26,240,0,53298,1
2,27452,30287,31347,90620,22167,-4631,-1055,-65,-32,-70,-83,223,495,-159,1,1,0,26,280,0,53298,1
2,27445,30291,31332,90621,22182,-4620,-1059,-60,-19,-73,-62,234,492,-162,1,1,0,26,320,0,53298,1
2,27449,30285,31347,90622,22196,-4627,-1074,-53,13,-56,19,224,492,-156,1,1,0,26,360,0,53298,1
2,27459,30261,31340,90623,22211,-4631,-1060,-59,13,-19,85,230,484,-148,1,1,0,26,400,0,53298,1
2,27438,30245,31339,90624,22225,-4624,-1048,-65,16,10,111,233,489,-155,1,1,0,26,440,0,53298,1
2,27441,30249,31337,90625,22240,-4633,-1053,-56,20,15,96,227,489,-157,1,1,0,26,480,0,53298,1
2,27436,30282,31338,90626,22254,-4632,-1061,-68,13,26,51,229,489,-157,1,1,0,26,520,0,53298,1
2,27425,30294,31340,90627,22268,-4629,-1057,-73,-5,11,17,230,492,-162,1,1,0,26,560,0,53298,1
2,27413,30284,31337,90628,22283,-4627,-1063,-54,-12,7,-2,234,494,-156,1,1,0,26,600,0,53298,1
2,27434,30291,31337,90629,22296,-4625,-1058,-60,-10,13,-5,230,492,-168,1,1,0,26,640,0,53298,1
2,27411,30299,31338,90630,22310,-4637,-1058,-67,-18,10,6,224,492,-164,1,1,0,26,680,0,53298,1
2,27413,30298,31328,90631,22324,-4636,-1062,-65,-1,8,15,231,489,-157,1,1,0,26,720,0,53298,1
2,27396,30300,31333,90632,22339,-4639,-1068,-72,-18,-11,15,230,494,-154,1,1,0,26,760,0,53298,1
2,27398,30257,31330,90633,22353,-4628,-1057,-56,-15,-38,15,233,485,-161,1,1,0,26,800,0,53298,1
2,27396,30242,31330,90634,22367,-4640,-1056,-68,-15,-21,15,233,489,-163,1,1,0,26,840,0,53298,1
2,27402,30295,31330,90635,22381,-4630,-1050,-61,-14,-16,12,231,493,-155,1,1,0,26,880,0,53298,1
2,27391,30288,31333,90636,22395,-4622,-1049,-59,-7,-29,24,234,492,-152,1,1,0,26,920,0,53298,1
2,27397,30292,31335,90637,22409,-4643,-1066,-69,-7,-37,30,229,487,-151,1,1,0,26,960,0,53298,1
1,27411,30299,31334,90638,0,-4632,-1058,-55,-10,-57,33,230,492,-158,1,1,0,27,0,1,53298,1
2,27395,30280,31332,90639,21637,-4638,-1048,-48,-4,-43,38,229,481,-163,1,1,0,27,40,1,53298,1
2,27413,30283,31332,90640,21650,-4613,-1052,-62,-24,-18,24,226,492,-150,1,1,0,27,80,1,53298,1
2,27398,30266,31332,90641,21665,-4633,-1059,-78,-10,-9,13,237,491,-161,1,1,0,27,120,1,53298,1
2,27398,30311,31334,90642,21679,-4629,-1054,-51,-2,-12,19,229,485,-159,1,1,0,27,160,1,53298,1
2,27398,30313,31337,90643,21693,-4637,-1055,-67,-11,-6,28,224,490,-160,1,1,0,27,200,1,53298,1
2,27411,30301,31333,90644,21709,-4630,-1060,-69,-15,-4,26,230,486,-160,1,1,0,27,240,1,53298,1
2,27405,30277,31331,90645,21723,-4638,-1056,-58,1,-7,25,228,490,-160,1,1,0,27,280,1,53298,1
2,27412,30298,31334,90646,21738,-4618,-1049,-57,3,-17,27,227,487,-159,1,1,0,27,320,1,53298,1
2,27416,30301,31333,90647,21751,-4639,-1058,-65,-6,4,14,224,490,-156,1,1,0,27,360,1,53298,1
2,27425,30287,31331,90648,21765,-4642,-1066,-59,-7,1,22,231,495,-159,1,1,0,27,400,1,53298,1
2,27406,30290,31337,90649,21779,-4635,-1062,-57,-5,-7,17,229,491,-159,1,1,0,27,440,1,53298,1
2,27420,30289,31330,90650,21794,-4630,-1057,-54,1,-14,29,235,487,-153,1,1,0,27,480,1,53298,1
2,27417,30291,31332,90651,21809,-4638,-1063,-55,-5,-21,25,220,486,-160,1,1,0,27,520,1,53298,1
2,27412,30289,31335,90652,21823,-4611,-1053,-75,-15,-10,22,224,482,-152,1,1,0,27,560,1,53298,1
2,27417,30289,31335,90653,21838,-4631,-1065,-57,-1,-6,14,229,499,-157,1,1,0,27,600,1,53298,1
2,27425,30291,31330,90654,21851,-4623,-1055,-46,2,15,12,237,489,-165,1,1,0,27,640,1,53298,1
2,27422,30292,31337,90655,21865,-4625,-1057,-66,-5,28,8,231,481,-165,1,1,0,27,680,1,53298,1
2,27424,30300,31339,90656,21880,-4647,-1066,-57,-3,28,6,232,488,-158,1,1,0,27,720,1,53298,1
2,27412,30301,31335,90657,21893,-4643,-1067,-83,-18,8,19,231,497,-149,1,1,0,27,760,1,53298,1
2,27414,30298,31335,90658,21906,-4624,-1061,-62,9,-32,21,240,494,-160,1,1,0,27,800,1,53298,1
2,27422,30294,31335,90659,21919,-4633,-1066,-75,-31,-30,32,233,499,-161,1,1,0,27,840,1,53298,1
2,27411,30294,31332,90660,21931,-4632,-1061,-63,6,-84,46,230,494,-158,1,1,0,27,880,1,53298,1
2,27400,30291,31330,90661,21944,-4632,-1050,-61,12,-56,42,232,482,-156,1,1,0,27,920,1,53298,1
2,27407,30280,31333,90662,21958,-4634,-1058,-62,-15,-14,28,226,486,-162,1,1,0,27,960,1,53298,1
1,27416,30281,31329,90663,0,-4635,-1057,-62,-15,3,21,227,489,-161,1,1,0,28,0,0,53298,1
2,27422,30272,31334,90664,21191,-4630,-1053,-66,1,-1,21,233,499,-157,1,1,0,28,40,0,53298,1
2,27410,30277,31329,90665,21205,-4628,-1061,-81,-11,-12,15,229,495,-159,1,1,0,28,80,0,53298,1
2,27431,30286,31332,90666,21218,-4639,-1059,-56,-4,-26,22,221,489,-161,1,1,0,28,120,0,53298,1
2,27430,30290,31330,90667,21231,-4637,-1063,-59,-3,-32,19,230,492,-154,1,1,0,28,160,0,53298,1
2,27445,30290,31332,90668,21245,-4642,-1063,-44,-9,-26,27,231,489,-153,1,1,0,28,200,0,53298,1
2,27450,30296,31330,90669,21259,-4641,-1065,-74,-2,-27,33,221,495,-161,1,1,0,28,240,0,53298,1
2,27440,30304,31333,90670,21272,-4634,-1056,-67,1,-29,28,234,494,-156,1,1,0,28,280,0,53298,1
2,27439,30303,31333,90671,21286,-4630,-1055,-65,4,-24,27,235,489,-167,1,1,0,28,320,0,53298,1
2,27446,30302,31336,90672,21300,-4651,-1065,-59,-15,-11,15,236,490,-156,1,1,0,28,360,0,53298,1
2,27452,30283,31334,90673,21314,-4629,-1048,-48,1,-19,18,231,491,-159,1,1,0,28,400,0,53298,1
2,27453,30287,31333,90674,21328,-4640,-1056,-71,-5,-8,14,235,495,-159,1,1,0,28,440,0,53298,1
2,27441,30283,31332,90675,21342,-4636,-1055,-77,-10,-13,19,228,492,-156,1,1,0,28,480,0,53298,1
2,27439,30292,31330,90676,21356,-4628,-1045,-56,1,-5,18,223,493,-149,1,1,0,28,520,0,53298,1
2,27428,30292,31336,90677,21370,-4656,-1071,-57,2,18,10,234,486,-154,1,1,0,28,560,0,53298,1
2,27437,30294,31332,90678,21383,-4629,-1054,-63,-4,13,4,228,488,-156,1,1,0,28,600,0,53298,1
2,27433,30285,31329,90679,21398,-4631,-1062,-70,-3,0,9,227,481,-157,1,1,0,28,640,0,53298,1
2,27437,30292,31335,90680,21412,-4625,-1049,-64,-2,-19,13,225,493,-145,1,1,0,28,680,0,53298,1
2,27443,30290,31335,90681,21426,-4629,-1056,-70,-4,-23,16,235,491,-153,1,1,0,28,720,0,53298,1
2,27463,30287,31335,90682,21439,-4631,-1060,-52,4,-28,20,224,492,-158,1,1,0,28,760,0,53298,1
2,27442,30285,31330,90683,21454,-4620,-1051,-51,2,12,17,232,486,-162,1,1,0,28,800,0,53298,1
2,27449,30294,31338,90684,21468,-4643,-1070,-56,-12,19,16,226,494,-160,1,1,0,28,840,0,53298,1
2,27442,30291,31335,90685,21481,-4644,-1067,-62,-1,22,12,232,492,-166,1,1,0,28,880,0,53298,1
2,27442,30297,31335,90686,21496,-4640,-1064,-53,3,8,18,228,500,-162,1,1,0,28,920,0,53298,1
2,27430,30297,31335,90687,21510,-4624,-1051,-89,-2,-1,12,239,495,-153,1,1,0,28,960,0,53298,1
1,27445,30298,31339,90688,0,-4628,-1057,-53,-9,-10,18,228,490,-146,1,1,0,29,0,1,53298,1
2,27440,30294,31334,90689,20746,-4627,-1064,-62,4,-4,24,234,488,-162,1,1,0,29,40,1,53298,1
2,27446,30295,31340,90690,20759,-4637,-1047,-72,-10,7,7,227,489,-147,1,1,0,29,80,1,53298,1
2,27454,30298,31345,90691,20773,-4634,-1058,-73,-10,32,-2,229,487,-147,1,1,0,29,120,1,53298,1
2,27450,30276,31342,90692,20786,-4641,-1060,-66,3,49,-10,238,488,-168,1,1,0,29,160,1,53298,1
2,27450,30267,31343,90693,20800,-4641,-1074,-83,-2,76,-15,234,490,-164,1,1,0,29,200,1,53298,1
2,27453,30286,31341,90694,20813,-4618,-1058,-61,-17,17,13,230,486,-156,1,1,0,29,240,1,53298,1
2,27448,30281,31344,90695,20826,-4633,-1062,-86,-10,-71,58,230,490,-164,1,1,0,29,280,1,53298,1
2,27458,30280,31340,90696,20839,-4636,-1060,-58,1,-162,89,226,486,-152,1,1,0,29,320,1,53298,1
2,27454,30295,31342,90697,20852,-4656,-1062,-75,-11,-142,82,233,489,-159,1,1,0,29,360,1,53298,1
2,27454,30296,31343,90698,20865,-4619,-1052,-19,20,-59,25,231,485,-155,1,1,0,29,400,1,53298,1
2,27433,30293,31353,90699,20878,-4636,-1073,-72,-42,76,-19,230,494,-158,1,1,0,29,440,1,53298,1
2,27439,30298,31340,90700,20892,-4637,-1074,-79,-31,52,3,230,488,-164,1,1,0,29,480,1,53298,1
2,27458,30295,31344,90701,20905,-4629,-1064,-62,11,-24,35,223,489,-161,1,1,0,29,520,1,53298,1
2,27443,30297,31340,90702,20919,-4622,-1048,-64,-6,-47,44,229,489,-161,1,1,0,29,560,1,53298,1
2,27424,30307,31340,90703,20933,-4620,-1068,-66,-16,-37,26,229,491,-161,1,1,0,29,600,1,53298,1
2,27425,30302,31341,90704,20946,-4632,-1069,-65,-4,-25,27,228,500,-160,1,1,0,29,640,1,53298,1
2,27449,30303,31346,90705,20958,-4633,-1055,-75,-3,-23,36,230,488,-164,1,1,0,29,680,1,53298,1
2,27427,30300,31343,90706,20972,-4627,-1067,-62,-7,-54,44,219,491,-149,1,1,0,29,720,1,53298,1
2,27437,30301,31345,90707,20985,-4628,-1056,-71,-9,-74,51,228,484,-154,1,1,0,29,760,1,53298,1
2,27447,30309,31344,90708,20998,-4630,-1054,-62,4,-60,45,224,490,-154,1,1,0,29,800,1,53298,1
2,27437,30312,31340,90709,21011,-4630,-1063,-47,-13,-12,24,223,491,-147,1,1,0,29,840,1,53298,1
2,27430,30313,31342,90710,21024,-4629,-1061,-56,-13,15,8,220,490,-158,1,1,0,29,880,1,53298,1
2,27455,30312,31339,90711,21037,-4629,-1049,-71,0,5,8,237,495,-163,1,1,0,29,920,1,53298,1
2,27447,30300,31345,90712,21051,-4647,-1071,-58,-18,8,19,223,485,-151,1,1,0,29,960,1,53298,1
1,27455,30305,31344,90713,0,-4635,-1063,-72,-10,-10,17,239,491,-163,1,1,0,30,0,0,53298,1
2,27451,30292,31346,90714,20301,-4642,-1053,-54,-10,-14,26,225,491,-167,1,1,0,30,40,0,53298,1
2,27431,30288,31342,90715,20313,-4636,-1066,-63,-7,-8,20,237,493,-157,1,1,0,30,80,0,53298,1
2,27425,30282,31344,90716,20326,-4639,-1063,-67,-2,-12,20,229,493,-155,1,1,0,30,120,0,53298,1
2,27425,30308,31341,90717,20340,-4630,-1058,-60,-7,-21,25,226,494,-154,1,1,0,30,160,0,53298,1
2,27424,30307,31346,90718,20353,-4635,-1054,-64,-4,-16,31,223,483,-157,1,1,0,30,200,0,53298,1
2,27402,30304,31345,90719,20366,-4630,-1058,-64,-4,0,23,234,488,-158,1,1,0,30,240,0,53298,1
2,27407,30300,31347,90720,20379,-4629,-1057,-64,-8,2,25,235,489,-161,1,1,0,30,280,0,53298,1
2,27419,30298,31340,90721,20392,-4638,-1060,-49,-10,3,10,227,495,-155,1,1,0,30,320,0,53298,1
2,27417,30292,31342,90722,20405,-4622,-1052,-73,-8,20,13,230,488,-156,1,1,0,30,360,0,53298,1
2,27392,30300,31341,90723,20417,-4631,-1063,-60,-2,9,15,225,497,-163,1,1,0,30,400,0,53298,1
2,27396,30290,31341,90724,20430,-4633,-1061,-65,-11,-8,17,229,493,-163,1,1,0,30,440,0,53298,1
2,27382,30283,31343,90725,20443,-4632,-1052,-50,-10,-23,24,231,489,-165,1,1,0,30,480,0,53298,1
2,27394,30283,31342,90726,20455,-4631,-1065,-56,-2,-21,22,231,493,-167,1,1,0,30,520,0,53298,1
2,27384,30283,31340,90727,20468,-4624,-1057,-55,-5,-5,7,233,487,-163,1,1,0,30,560,0,53298,1
2,27384,30280,31344,90728,20481,-4642,-1053,-65,-8,13,16,228,486,-166,1,1,0,30,600,0,53298,1
2,27400,30278,31344,90729,20495,-4632,-1058,-64,1,11,18,226,500,-164,1,1,0,30,640,0,53298,1
2,27386,30278,31345,90730,20508,-4627,-1047,-68,0,-4,31,228,492,-162,1,1,0,30,680,0,53298,1
2,27404,30280,31340,90731,20520,-4628,-1054,-60,-12,-36,43,235,493,-161,1,1,0,30,720,0,53298,1
2,27388,30284,31340,90732,20532,-4642,-1062,-55,-7,-120,89,238,486,-158,1,1,0,30,760,0,53298,1
2,27387,30278,31340,90733,20544,-4633,-1076,-76,-46,-372,239,231,493,-171,1,1,0,30,800,0,53298,1
2,27378,30284,31345,90734,20556,-4641,-1054,-42,45,-558,351,229,485,-151,1,1,0,30,840,0,53298,1
2,27394,30291,31340,90735,20569,-4624,-1005,-8,155,-510,272,230,490,-152,1,1,0,30,880,0,53298,1
2,27404,30292,31341,90736,20582,-4614,-1015,14,20,-269,72,230,494,-156,1,1,0,30,920,0,53298,1
2,27407,30295,31343,90737,20595,-4632,-1033,4,-62,52,-87,230,496,-146,1,1,0,30,960,0,53298,1
1,27408,30298,31340,90738,0,-4624,-1045,-32,-53,264,-150,232,488,-156,1,1,0,31,0,1,53298,1
2,27398,30292,31342,90739,19856,-4639,-1050,-62,-60,265,-113,232,494,-166,1,1,0,31,40,1,53298,1
2,27386,30297,31346,90740,19869,-4623,-1055,-67,-29,97,-9,234,490,-170,1,1,0,31,80,1,53298,1
2,27405,30294,31339,90741,19882,-4637,-1043,-39,24,-65,57,235,485,-155,1,1,0,31,120,1,53298,1
2,27397,30284,31340,90742,19896,-4629,-1037,-28,22,-84,53,231,489,-159,1,1,0,31,160,1,53298,1
2,27420,30270,31341,90743,19910,-4617,-1050,-34,-10,-28,37,233,487,-165,1,1,0,31,200,1,53298,1
2,27406,30281,31340,90744,19923,-4624,-1040,-40,-4,9,34,225,483,-149,1,1,0,31,240,1,53298,1
2,27419,30301,31342,90745,19937,-4626,-1037,-45,6,-30,45,228,496,-162,1,1,0,31,280,1,53298,1
2,27424,30301,31343,90746,19951,-4642,-1039,-26,8,-66,52,232,488,-152,1,1,0,31,320,1,53298,1
2,27429,30295,31341,90747,19964,-4626,-1051,-33,-2,-44,40,229,489,-159,1,1,0,31,360,1,53298,1
2,27434,30286,31341,90748,19977,-4625,-1028,-22,9,-15,23,228,492,-150,1,1,0,31,400,1,53298,1
2,27418,30289,31339,90749,19991,-4639,-1048,-31,-15,51,1,230,492,-158,1,1,0,31,440,1,53298,1
2,27425,30274,31339,90750,20005,-4637,-1051,-51,-19,57,-8,224,492,-156,1,1,0,31,480,1,53298,1
2,27433,30281,31344,90751,20019,-4632,-1054,-37,-4,22,10,229,491,-161,1,1,0,31,520,1,53298,1
2,27443,30299,31343,90752,20032,-4636,-1049,-47,-5,-2,23,224,490,-158,1,1,0,31,560,1,53298,1
2,27439,30291,31340,90753,20046,-4640,-1056,-46,-14,-42,31,228,492,-164,1,1,0,31,600,1,53298,1
2,27437,30301,31340,90754,20060,-4621,-1040,-34,10,-69,46,231,485,-167,1,1,0,31,640,1,53298,1
2,27414,30283,31340,90755,20075,-4634,-1046,-36,4,-44,32,231,497,-165,1,1,0,31,680,1,53298,1
2,27438,30268,31338,90756,20088,-4628,-1047,-43,-10,-6,19,238,494,-154,1,1,0,31,720,1,53298,1
2,27439,30283,31339,90757,20102,-4635,-1041,-38,-9,21,17,238,490,-156,1,1,0,31,760,1,53298,1
2,27433,30285,31338,90758,20115,-4634,-1051,-38,4,28,18,230,488,-160,1,1,0,31,800,1,53298,1
2,27447,30276,31341,90759,20128,-4645,-1054,-46,0,34,6,233,491,-149,1,1,0,31,840,1,53298,1
2,27433,30264,31340,90760,20142,-4640,-1054,-39,-1,64,-13,230,492,-160,1,1,0,31,880,1,53298,1
2,27431,30267,31339,90761,20155,-4633,-1035,-66,4,79,-33,229,489,-161,1,1,0,31,920,1,53298,1
2,27464,30277,31340,90762,20168,-4635,-1054,-47,-31,42,-17,227,495,-153,1,1,0,31,960,1,53298,1
1,27456,30274,31338,90763,0,-4635,-1054,-56,-13,-63,30,227,491,-157,1,1,0,32,0,1,53298,1
2,27444,30277,31343,90764,19412,-4632,-1044,-28,6,-139,59,228,488,-162,1,1,0,32,40,1,53298,1
2,27462,30272,31341,90765,19426,-4626,-1041,-15,1,-87,43,224,482,-162,1,1,0,32,80,1,53298,1
2,27452,30286,31345,90766,19439,-4629,-1045,-44,-24,-29,48,227,495,-157,1,1,0,32,120,1,53298,1
2,27459,30270,31340,90767,19452,-4630,-1037,-27,26,5,36,227,491,-157,1,1,0,32,160,1,53298,1
2,27459,30270,31340,90768,19466,-4636,-1044,-39,6,53,-19,230,494,-156,1,1,0,32,200,1,53298,1
2,27449,30284,31339,90769,19480,-4633,-1063,-61,-56,20,-7,239,487,-157,1,1,0,32,240,1,53298,1
2,27456,30278,31349,90770,19494,-4645,-1060,-46,1,-78,58,229,497,-149,1,1,0,32,280,1,53298,1
2,27454,30276,31340,90771,19508,-4630,-1029,-34,28,-101,57,238,498,-162,1,1,0,32,320,1,53298,1
2,27456,30286,31338,90772,19521,-4629,-1049,-43,-21,-43,37,228,494,-154,1,1,0,32,360,1,53298,1
2,27450,30281,31338,90773,19535,-4639,-1052,-43,1,-29,21,227,491,-161,1,1,0,32,400,1,53298,1
2,27458,30288,31340,90774,19547,-4630,-1048,-30,6,-25,19,219,485,-161,1,1,0,32,440,1,53298,1
2,27439,30289,31339,90775,19560,-4626,-1046,-34,-11,-30,37,230,490,-166,1,1,0,32,480,1,53298,1
2,27433,30283,31338,90776,19573,-4633,-1037,-17,-7,-13,31,224,486,-152,1,1,0,32,520,1,53298,1
2,27432,30289,31340,90777,19586,-4622,-1031,-18,3,-4,23,232,490,-162,1,1,0,32,560,1,53298,1
2,27434,30291,31341,90778,19600,-4637,-1048,-43,-12,6,12,226,494,-154,1,1,0,32,600,1,53298,1
2,27427,30290,31346,90779,19614,-4641,-1059,-36,-10,2,5,232,484,-162,1,1,0,32,640,1,53298,1
2,27433,30291,31345,90780,19628,-4637,-1039,-42,-10,6,-2,231,493,-155,1,1,0,32,680,1,53298,1
2,27424,30290,31338,90781,19642,-4628,-1043,-52,-20,-21,9,231,491,-151,1,1,0,32,720,1,53298,1
2,27437,30286,31342,90782,19656,-4617,-1034,-43,2,-36,16,222,494,-148,1,1,0,32,760,1,53298,1
2,27429,30291,31338,90783,19670,-4624,-1055,-41,-8,-7,13,226,482,-156,1,1,0,32,800,1,53298,1
2,27434,30285,31339,90784,19684,-4631,-1055,-36,-30,9,28,231,481,-157,1,1,0,32,840,1,53298,1
2,27446,30275,31338,90785,19699,-4637,-1036,-31,22,39,20,234,492,-160,1,1,0,32,880,1,53298,1
2,27435,30272,31336,90786,19713,-4622,-1052,-39,-19,37,9,231,487,-155,1,1,0,32,920,1,53298,1
2,27436,30281,31338,90787,19727,-4624,-1038,-45,-19,-15,27,233,485,-157,1,1,0,32,960,1,53298,1
1,27448,30275,31338,90788,0,-4627,-1036,-35,26,-63,45,230,490,-160,1,1,0,33,0,1,53298,1
2,27457,30272,31340,90789,18967,-4628,-1039,-25,-20,-80,48,231,487,-149,1,1,0,33,40,1,53298,1
2,27462,30267,31342,90790,18981,-4625,-1040,-33,-5,-41,32,219,495,-143,1,1,0,33,80,1,53298,1
2,27466,30262,31339,90791,18995,-4631,-1042,-28,-12,7,3,241,491,-163,1,1,0,33,120,1,53298,1
2,27465,30269,31339,90792,19009,-4642,-1057,-51,-26,20,0,230,490,-158,1,1,0,33,160,1,53298,1
2,27462,30269,31338,90793,19022,-4644,-1065,-34,-7,12,7,225,495,-159,1,1,0,33,200,1,53298,1
2,27454,30272,31341,90794,19035,-4627,-1048,-40,-14,-5,21,230,496,-150,1,1,0,33,240,1,53298,1
2,27452,30270,31338,90795,19049,-4633,-1051,-44,-3,-18,26,230,490,-160,1,1,0,33,280,1,53298,1
2,27425,30270,31339,90796,19063,-4630,-1049,-27,11,-18,31,238,488,-160,1,1,0,33,320,1,53298,1
2,27445,30278,31346,90797,19077,-4650,-1049,-52,-5,8,23,232,484,-152,1,1,0,33,360,1,53298,1
2,27437,30271,31337,90798,19090,-4622,-1050,-49,-17,-18,25,219,487,-157,1,1,0,33,400,1,53298,1
2,27436,30258,31338,90799,19104,-4640,-1049,-39,5,-67,54,225,491,-145,1,1,0,33,440,1,53298,1
2,27428,30251,31338,90800,19118,-4636,-1039,-39,12,-77,44,226,490,-156,1,1,0,33,480,1,53298,1
2,27435,30267,31338,90801,19132,-4631,-1031,-20,-13,-16,-6,238,482,-156,1,1,0,33,520,1,53298,1
2,27450,30265,31340,90802,19146,-4627,-1049,-34,-32,40,-27,229,493,-151,1,1,0,33,560,1,53298,1
2,27453,30245,31345,90803,19160,-4638,-1066,-38,-24,47,2,219,499,-157,1,1,0,33,600,1,53298,1
2,27465,30268,31338,90804,19175,-4628,-1050,-46,9,-5,35,229,485,-155,1,1,0,33,640,1,53298,1
2,27448,30252,31337,90805,19188,-4648,-1042,-34,7,-14,55,233,489,-157,1,1,0,33,680,1,53298,1
2,27437,30253,31344,90806,19202,-4634,-1057,-56,-16,-38,77,226,494,-162,1,1,0,33,720,1,53298,1
2,27424,30238,31352,90807,19216,-4632,-1034,-31,30,-61,73,226,492,-158,1,1,0,33,760,1,53298,1
2,27422,30257,31338,90808,19231,-4613,-1006,19,124,227,-117,221,483,-165,1,1,0,33,800,1,53298,1
2,27426,30256,31340,90809,19245,-4631,-1050,-70,-124,438,-267,236,484,-162,1,1,0,33,840,1,53298,1
2,27439,30253,31343,90810,19258,-4636,-1081,-88,-155,280,-272,221,487,-153,1,1,0,33,880,1,53298,1
2,27428,30254,31342,90811,19272,-4643,-1081,-76,47,56,-158,240,494,-154,1,1,0,33,920,1,53298,1
2,27429,30250,31338,90812,19285,-4613,-1071,-31,16,-51,27,229,493,-167,1,1,0,33,960,1,53298,1
1,27425,30259,31341,90813,0,-4628,-1064,-69,-25,-65,176,238,486,-162,1,1,0,34,0,1,53298,1
2,27451,30258,31335,90814,18523,-4622,-1051,-39,101,-54,225,230,492,-152,1,1,0,34,40,1,53298,1
2,27422,30256,31330,90815,18537,-4641,-1040,-42,105,69,149,232,488,-150,1,1,0,34,80,1,53298,1
2,27420,30255,31335,90816,18551,-4626,-1042,-84,12,134,57,237,495,-159,1,1,0,34,120,1,53298,1
2,27438,30254,31336,90817,18565,-4647,-1062,-68,-42,40,5,229,497,-151,1,1,0,34,160,1,53298,1
2,27425,30248,31336,90818,18579,-4644,-1069,-57,-74,-138,27,228,500,-156,1,1,0,34,200,1,53298,1
2,27427,30272,31340,90819,18592,-4619,-1034,-41,-137,-215,85,226,488,-160,1,1,0,34,240,1,53298,1
2,27417,30267,31339,90820,18606,-4618,-1047,-30,-207,-126,110,225,491,-157,1,1,0,34,280,1,53298,1
2,27425,30266,31340,90821,18620,-4616,-1041,-23,-227,111,62,230,488,-160,1,1,0,34,320,1,53298,1
2,27424,30269,31339,90822,18634,-4618,-1039,-63,-312,279,37,229,489,-165,1,1,0,34,360,1,53298,1
2,27407,30266,31341,90823,18647,-4630,-1033,-84,-409,323,-53,233,483,-163,1,1,0,34,400,1,53298,1
2,27420,30263,31345,90824,18661,-4643,-1057,-129,-638,209,-230,236,488,-156,1,1,0,34,440,1,53298,1
2,27419,30264,31348,90825,18675,-4636,-1071,-78,-706,110,-486,234,496,-158,1,1,0,34,480,1,53298,1
2,27440,30261,31355,90826,18689,-4635,-1110,-129,-905,-39,-647,234,496,-160,1,1,0,34,520,1,53298,1
2,27439,30268,31370,90827,18702,-4643,-1081,-48,-841,-155,-745,231,493,-161,1,1,0,34,560,1,53298,1
2,27441,30274,31376,90828,18716,-4638,-1114,-83,-838,-185,-824,240,486,-166,1,1,0,34,600,1,53298,1
2,27467,30280,31373,90829,18730,-4604,-1151,-62,-836,-209,-813,226,490,-154,1,1,0,34,640,1,53298,1
2,27504,30274,31376,90830,18743,-4612,-1182,-68,-783,-198,-660,243,487,-163,1,1,0,34,680,1,53298,1
2,27529,30271,31379,90831,18756,-4638,-1173,-38,-588,-176,-418,245,493,-159,1,1,0,34,720,1,53298,1
2,27557,30271,31370,90832,18769,-4631,-1142,-43,-417,-202,-176,241,493,-159,1,1,0,34,760,1,53298,1
2,27587,30272,31374,90833,18783,-4641,-1171,-64,-328,-140,-188,240,492,-160,1,1,0,34,800,1,53298,1
2,27603,30278,31369,90834,18796,-4612,-1173,-66,-169,-66,-151,239,487,-155,1,1,0,34,840,1,53298,1
2,27631,30268,31355,90835,18809,-4628,-1152,-48,-18,-12,-66,246,482,-166,1,1,0,34,880,1,53298,1
2,27695,30268,31342,90836,18822,-4623,-1173,-55,40,24,26,248,484,-168,1,1,0,34,920,1,53298,1
2,27752,30267,31340,90837,18835,-4595,-1176,-72,57,19,149,242,486,-158,1,1,0,34,960,1,53298,1
1,27845,30264,31330,90838,0,-4622,-1166,-68,100,-9,277,247,489,-155,1,1,0,35,0,0,53298,1
2,27882,30262,31325,90839,18079,-4640,-1165,-70,148,11,301,240,488,-168,1,1,0,35,40,0,53298,1
2,27608,30267,31354,90840,18093,-4601,-1133,-65,94,57,283,240,486,-162,1,1,0,35,80,0,53298,1
2,27519,30269,31359,90841,18105,-4636,-1126,-66,34,122,179,236,488,-166,1,1,0,35,120,0,53298,1
2,27520,30263,31357,90842,18118,-4614,-1152,-76,3,185,5,245,501,-153,1,1,0,35,160,0,53298,1
2,27536,30265,31360,90843,18131,-4672,-1140,-115,-63,206,-144,237,493,-161,1,1,0,35,200,0,53298,1
2,27625,30277,31355,90844,18144,-4640,-1177,-65,-33,112,-248,236,494,-160,1,1,0,35,240,0,53298,1
2,27706,30279,31345,90845,18158,-4629,-1176,-110,-66,22,-191,242,484,-164,1,1,0,35,280,0,53298,1
2,27666,30272,31355,90846,18171,-4620,-1165,-78,-19,-127,-92,247,493,-161,1,1,0,35,320,0,53298,1
2,27598,30272,31360,90847,18183,-4611,-1172,-104,10,-167,-6,246,490,-158,1,1,0,35,360,0,53298,1
2,27554,30273,31368,90848,18196,-4643,-1173,-62,68,-164,42,246,496,-162,1,1,0,35,400,0,53298,1
2,27509,30272,31369,90849,18209,-4626,-1157,-58,87,-104,48,242,490,-164,1,1,0,35,440,0,53298,1
2,27472,30268,31375,90850,18223,-4614,-1179,-60,92,-79,59,239,481,-149,1,1,0,35,480,0,53298,1
2,27457,30265,31373,90851,18236,-4619,-1161,-71,121,-132,148,238,500,-160,1,1,0,35,520,0,53298,1
2,27446,30277,31371,90852,18249,-4610,-1170,-66,205,-212,273,243,489,-163,1,1,0,35,560,0,53298,1
2,27434,30268,31368,90853,18263,-4634,-1157,-55,278,-309,402,240,492,-160,1,1,0,35,600,0,53298,1
2,27441,30275,31360,90854,18277,-4625,-1162,-49,379,-418,559,235,487,-163,1,1,0,35,640,0,53298,1
2,27408,30274,31362,90855,18291,-4644,-1111,-24,400,-463,683,238,484,-158,1,1,0,35,680,0,53298,1
2,27414,30275,31360,90856,18306,-4647,-1098,-13,393,-385,692,235,493,-161,1,1,0,35,720,0,53298,1
2,27404,30272,31355,90857,18320,-4629,-1074,-3,352,-175,588,223,483,-151,1,1,0,35,760,0,53298,1
2,27398,30271,31351,90858,18334,-4622,-1069,-28,251,51,413,236,488,-162,1,1,0,35,800,0,53298,1
2,27402,30265,31352,90859,18347,-4630,-1087,-29,261,142,250,236,496,-156,1,1,0,35,840,0,53298,1
2,27409,30265,31354,90860,18360,-4639,-1093,-43,320,80,244,229,491,-159,1,1,0,35,880,0,53298,1
2,27412,30261,31355,90861,18374,-4633,-1065,-18,297,-29,280,228,488,-160,1,1,0,35,920,0,53298,1
2,27400,30261,31345,90862,18388,-4616,-1067,-28,233,-84,261,231,489,-165,1,1,0,35,960,0,53298,1
1,27394,30260,31349,90863,0,-4635,-1073,-10,204,-24,199,245,487,-153,1,1,0,36,0,1,53298,1
2,27401,30257,31341,90864,17634,-4632,-1066,-12,246,103,160,228,496,-150,1,1,0,36,40,1,53298,1
2,27402,30254,31340,90865,17648,-4618,-1042,4,261,265,134,234,490,-162,1,1,0,36,80,1,53298,1
2,27384,30241,31340,90866,17661,-4626,-1057,-44,220,449,92,232,494,-160,1,1,0,36,120,1,53298,1
2,27392,30242,31337,90867,17675,-4628,-1060,-63,192,549,26,225,491,-161,1,1,0,36,160,1,53298,1
2,27388,30244,31335,90868,17688,-4620,-1048,-69,236,558,-27,227,487,-159,1,1,0,36,200,1,53298,1
2,27375,30234,31333,90869,17702,-4639,-1055,-98,179,497,-62,227,501,-161,1,1,0,36,240,1,53298,1
2,27373,30199,31335,90870,17716,-4628,-1052,-90,105,354,-53,233,493,-157,1,1,0,36,280,1,53298,1
2,27374,30158,31331,90871,17730,-4633,-1071,-125,107,136,6,229,485,-165,1,1,0,36,320,1,53298,1
2,27385,30154,31327,90872,17743,-4636,-1063,-71,202,-64,86,235,491,-155,1,1,0,36,360,1,53298,1
2,27393,30192,31329,90873,17756,-4619,-1045,-75,223,-154,188,233,505,-157,1,1,0,36,400,1,53298,1
2,27390,30220,31330,90874,17770,-4619,-1047,-68,191,-173,250,233,485,-161,1,1,0,36,440,1,53298,1
2,27375,30225,31330,90875,17783,-4622,-1039,-67,195,-103,282,222,500,-158,1,1,0,36,480,1,53298,1
2,27380,30200,31326,90876,17797,-4629,-1034,-61,188,49,221,227,481,-155,1,1,0,36,520,1,53298,1
2,27391,30238,31328,90877,17810,-4626,-1010,-45,147,309,46,227,493,-153,1,1,0,36,560,1,53298,1
2,27390,30228,31326,90878,17824,-4647,-1040,-88,79,577,-171,229,495,-165,1,1,0,36,600,1,53298,1
2,27383,30129,31318,90879,17838,-4651,-1057,-136,23,665,-302,229,489,-165,1,1,0,36,640,1,53298,1
2,27378,30133,31321,90880,17852,-4640,-1072,-151,9,495,-286,227,493,-155,1,1,0,36,680,1,53298,1
2,27392,30142,31322,90881,17866,-4631,-1080,-144,55,229,-164,227,493,-161,1,1,0,36,720,1,53298,1
2,27375,30106,31324,90882,17879,-4639,-1069,-128,36,-46,-12,241,487,-165,1,1,0,36,760,1,53298,1
2,27381,30122,31320,90883,17893,-4631,-1055,-133,-26,-211,92,230,492,-170,1,1,0,36,800,1,53298,1
2,27402,30180,31325,90884,17906,-4612,-1063,-101,-30,-328,141,233,497,-173,1,1,0,36,840,1,53298,1
2,27385,30165,31330,90885,17919,-4613,-1046,-109,31,-348,168,224,486,-170,1,1,0,36,880,1,53298,1
2,27378,30157,31326,90886,17933,-4611,-1041,-86,43,-242,114,231,493,-157,1,1,0,36,920,1,53298,1
2,27380,30155,31322,90887,17946,-4646,-1057,-91,-12,-60,8,229,495,-171,1,1,0,36,960,1,53298,1
1,27397,30147,31330,90888,0,-4622,-1054,-95,-38,125,-134,232,498,-168,1,1,0,37,0,1,53298,1
2,27384,30145,31330,90889,17190,-4619,-1067,-99,-44,247,-222,228,486,-164,1,1,0,37,40,1,53298,1
2,27397,30208,31335,90890,17204,-4638,-1069,-122,-54,317,-228,225,501,-159,1,1,0,37,80,1,53298,1
2,27403,30214,31334,90891,17217,-4625,-1066,-116,-74,322,-216,225,501,-155,1,1,0,37,120,1,53298,1
2,27395,30199,31330,90892,17230,-4627,-1082,-138,-102,275,-197,232,488,-170,1,1,0,37,160,1,53298,1
2,27386,30185,31333,90893,17243,-4652,-1092,-137,-108,196,-150,236,484,-170,1,1,0,37,200,1,53298,1
2,27378,30187,31331,90894,17257,-4630,-1100,-163,-69,100,-105,236,496,-168,1,1,0,37,240,1,53298,1
2,27387,30165,31338,90895,17270,-4631,-1089,-129,-34,63,-80,233,493,-167,1,1,0,37,280,1,53298,1
2,27377,30119,31333,90896,17283,-4621,-1085,-115,-35,76,-81,235,493,-169,1,1,0,37,320,1,53298,1
2,27378,30142,31336,90897,17297,-4636,-1110,-141,-77,96,-53,233,495,-171,1,1,0,37,360,1,53298,1
2,27349,30031,31330,90898,17311,-4624,-1095,-162,-51,45,0,235,485,-169,1,1,0,37,400,1,53298,1
2,27358,30180,31330,90899,17324,-4633,-1095,-159,-14,-58,65,231,493,-171,1,1,0,37,440,1,53298,1
2,27363,30163,31333,90900,17338,-4624,-1092,-137,-13,-165,100,225,475,-167,1,1,0,37,480,1,53298,1
2,27368,30151,31330,90901,17352,-4628,-1078,-135,19,-179,95,235,491,-163,1,1,0,37,520,1,53298,1
2,27367,30135,31328,90902,17366,-4625,-1090,-126,12,-150,78,237,491,-167,1,1,0,37,560,1,53298,1
2,27354,30072,31330,90903,17380,-4632,-1089,-108,43,-115,85,231,485,-171,1,1,0,37,600,1,53298,1
2,27350,30107,31330,90904,17393,-4637,-1078,-125,70,-80,101,224,502,-158,1,1,0,37,640,1,53298,1
2,27361,30125,31335,90905,17407,-4615,-1077,-136,80,-34,98,227,487,-155,1,1,0,37,680,1,53298,1
2,27355,30142,31326,90906,17421,-4617,-1062,-106,54,29,55,226,502,-166,1,1,0,37,720,1,53298,1
2,27359,30144,31338,90907,17435,-4637,-1085,-132,-29,114,-38,234,498,-164,1,1,0,37,760,1,53298,1
2,27346,30105,31335,90908,17449,-4624,-1070,-136,-81,140,-142,229,499,-163,1,1,0,37,800,1,53298,1
2,27329,30094,31335,90909,17462,-4622,-1098,-150,-101,126,-201,230,498,-164,1,1,0,37,840,1,53298,1
2,27330,30093,31337,90910,17476,-4633,-1097,-159,-98,69,-216,236,494,-166,1,1,0,37,880,1,53298,1
2,27333,30052,31339,90911,17491,-4632,-1103,-135,-60,17,-189,232,494,-170,1,1,0,37,920,1,53298,1
2,27335,30060,31339,90912,17505,-4619,-1120,-141,-25,-14,-112,238,490,-158,1,1,0,37,960,1,53298,1
1,27325,30068,31338,90913,0,-4623,-1115,-127,24,2,-25,236,484,-168,1,1,0,38,0,0,53298,1
2,27330,30029,31337,90914,16747,-4614,-1104,-158,54,8,69,234,490,-172,1,1,0,38,40,0,53298,1
2,27337,30074,31335,90915,16760,-4626,-1100,-128,92,-4,118,235,493,-163,1,1,0,38,80,0,53298,1
2,27314,30020,31335,90916,16774,-4621,-1088,-145,100,-11,135,236,492,-162,1,1,0,38,120,0,53298,1
2,27333,30004,31331,90917,16788,-4629,-1096,-136,83,-15,127,234,492,-166,1,1,0,38,160,0,53298,1
2,27329,30022,31336,90918,16802,-4627,-1088,-138,60,-21,108,221,495,-173,1,1,0,38,200,0,53298,1
2,27343,30087,31339,90919,16815,-4624,-1095,-141,31,-16,64,236,494,-162,1,1,0,38,240,0,53298,1
2,27345,30070,31337,90920,16829,-4628,-1088,-124,24,-13,38,242,492,-168,1,1,0,38,280,0,53298,1
2,27350,30095,31335,90921,16843,-4624,-1093,-129,6,20,13,229,493,-157,1,1,0,38,320,0,53298,1
2,27359,30067,31330,90922,16857,-4620,-1093,-137,3,40,2,235,501,-167,1,1,0,38,360,0,53298,1
2,27332,30070,31330,90923,16870,-4630,-1101,-142,-2,32,10,232,494,-156,1,1,0,38,400,0,53298,1
2,27332,30064,31335,90924,16883,-4630,-1090,-146,-2,11,5,235,497,-159,1,1,0,38,440,0,53298,1
2,27340,30115,31333,90925,16896,-4625,-1090,-139,-1,-12,17,228,490,-170,1,1,0,38,480,0,53298,1
2,27351,30122,31342,90926,16909,-4621,-1090,-145,-2,-34,23,235,489,-167,1,1,0,38,520,0,53298,1
2,27344,30108,31335,90927,16924,-4621,-1091,-156,7,-32,23,229,493,-165,1,1,0,38,560,0,53298,1
2,27351,30121,31334,90928,16937,-4623,-1089,-146,-3,-16,22,230,492,-170,1,1,0,38,600,0,53298,1
2,27352,30098,31334,90929,16951,-4616,-1084,-144,-5,2,17,232,488,-166,1,1,0,38,640,0,53298,1
2,27348,30098,31331,90930,16965,-4616,-1085,-146,0,5,10,226,490,-168,1,1,0,38,680,0,53298,1
2,27340,30108,31336,90931,16979,-4614,-1086,-144,-9,-18,17,235,487,-171,1,1,0,38,720,0,53298,1
2,27344,30097,31335,90932,16992,-4612,-1086,-150,-3,-17,26,234,494,-166,1,1,0,38,760,0,53298,1
2,27352,30119,31336,90933,17006,-4622,-1088,-148,-5,-14,28,233,495,-161,1,1,0,38,800,0,53298,1
2,27353,30103,31335,90934,17019,-4631,-1097,-140,-6,-11,22,232,482,-164,1,1,0,38,840,0,53298,1
2,27334,30137,31335,90935,17033,-4616,-1091,-151,-6,-9,20,234,488,-168,1,1,0,38,880,0,53298,1
2,27345,30135,31340,90936,17046,-4619,-1091,-146,-1,-7,16,233,487,-165,1,1,0,38,920,0,53298,1
2,27334,30128,31336,90937,17061,-4621,-1101,-126,-4,-16,17,229,491,-163,1,1,0,38,960,0,53298,1
1,27345,30137,31339,90938,0,-4633,-1109,-146,-1,-3,27,232,486,-160,1,1,0,39,0,0,53298,1
2,27338,30128,31339,90939,16303,-4618,-1086,-135,-6,-13,27,229,489,-167,1,1,0,39,40,0,53298,1
2,27335,30138,31343,90940,16318,-4632,-1097,-150,-11,-3,27,232,494,-168,1,1,0,39,80,0,53298,1
2,27329,30105,31339,90941,16332,-4624,-1100,-140,0,-20,32,223,493,-169,1,1,0,39,120,0,53298,1
2,27332,30119,31339,90942,16346,-4627,-1097,-134,-3,-26,25,243,485,-171,1,1,0,39,160,0,53298,1
2,27327,30153,31349,90943,16360,-4625,-1087,-147,-2,-34,34,232,492,-172,1,1,0,39,200,0,53298,1
2,27342,30155,31338,90944,16374,-4622,-1097,-147,-4,-26,31,235,497,-169,1,1,0,39,240,0,53298,1
2,27326,30153,31341,90945,16387,-4621,-1086,-138,-2,-30,37,243,495,-169,1,1,0,39,280,0,53298,1
2,27334,30156,31340,90946,16401,-4618,-1089,-136,-7,-29,34,237,489,-169,1,1,0,39,320,0,53298,1
2,27325,30158,31341,90947,16414,-4643,-1109,-140,-12,-21,21,230,492,-166,1,1,0,39,360,0,53298,1
2,27338,30163,31345,90948,16428,-4621,-1093,-144,-6,-29,23,234,500,-172,1,1,0,39,400,0,53298,1
2,27338,30141,31339,90949,16442,-4634,-1103,-141,-8,-15,23,235,491,-171,1,1,0,39,440,0,53298,1
2,27315,30121,31345,90950,16456,-4629,-1092,-129,-4,-6,26,242,494,-160,1,1,0,39,480,0,53298,1
2,27316,30142,31341,90951,16469,-4627,-1098,-152,-3,-5,25,228,494,-170,1,1,0,39,520,0,53298,1
2,27307,30150,31345,90952,16483,-4624,-1093,-136,-2,-16,25,226,486,-162,1,1,0,39,560,0,53298,1
2,27327,30147,31345,90953,16496,-4631,-1087,-138,-9,-17,27,236,490,-174,1,1,0,39,600,0,53298,1
2,27320,30177,31340,90954,16511,-4631,-1111,-143,-8,-21,21,227,497,-163,1,1,0,39,640,0,53298,1
2,27308,30189,31345,90955,16525,-4629,-1091,-137,-8,-28,24,237,497,-171,1,1,0,39,680,0,53298,1
2,27300,30166,31344,90956,16539,-4630,-1099,-136,-3,-29,35,239,489,-165,1,1,0,39,720,0,53298,1
2,27306,30158,31341,90957,16552,-4624,-1093,-136,-8,-10,33,230,496,-168,1,1,0,39,760,0,53298,1
2,27309,30158,31339,90958,16566,-4641,-1105,-139,-5,-11,28,233,491,-163,1,1,0,39,800,0,53298,1
2,27305,30133,31344,90959,16580,-4620,-1103,-143,-2,-15,22,229,489,-163,1,1,0,39,840,0,53298,1
2,27308,30175,31342,90960,16595,-4636,-1095,-126,0,-8,21,228,492,-168,1,1,0,39,880,0,53298,1
2,27305,30176,31344,90961,16610,-4616,-1090,-141,-2,-5,27,234,502,-166,1,1,0,39,920,0,53298,1
2,27326,30175,31339,90962,16624,-4628,-1091,-127,-9,-6,19,232,498,-148,1,1,0,39,960,0,53298,1
1,27320,30156,31341,90963,0,-4621,-1093,-155,-4,-13,20,229,487,-165,1,1,0,40,0,1,53298,1
2,27330,30168,31344,90964,15859,-4627,-1094,-141,-1,-24,23,234,482,-170,1,1,0,40,40,1,53298,1
2,27329,30168,31355,90965,15874,-4636,-1091,-149,-3,-33,19,230,498,-168,1,1,0,40,80,1,53298,1
2,27317,30145,31341,90966,15889,-4637,-1088,-132,-3,-19,27,232,488,-164,1,1,0,40,120,1,53298,1
2,27322,30149,31345,90967,15903,-4633,-1100,-126,-6,-14,28,239,483,-167,1,1,0,40,160,1,53298,1
2,27319,30184,31343,90968,15917,-4621,-1080,-133,-3,-13,31,228,486,-174,1,1,0,40,200,1,53298,1
2,27327,30199,31344,90969,15930,-4631,-1088,-159,-6,-14,28,230,488,-174,1,1,0,40,240,1,53298,1
2,27334,30184,31346,90970,15945,-4627,-1103,-142,1,-20,22,232,488,-168,1,1,0,40,280,1,53298,1
2,27320,30174,31345,90971,15960,-4627,-1085,-138,-2,-25,29,228,486,-160,1,1,0,40,320,1,53298,1
2,27334,30192,31342,90972,15974,-4630,-1094,-144,0,-6,26,229,499,-161,1,1,0,40,360,1,53298,1
2,27316,30177,31344,90973,15987,-4631,-1099,-147,-10,-4,28,220,492,-156,1,1,0,40,400,1,53298,1
2,27317,30184,31344,90974,16002,-4621,-1089,-127,-12,-4,17,239,493,-163,1,1,0,40,440,1,53298,1
2,27324,30166,31345,90975,16016,-4628,-1092,-130,-10,-17,27,227,489,-157,1,1,0,40,480,1,53298,1
2,27324,30148,31342,90976,16030,-4626,-1091,-138,-2,-26,38,221,491,-167,1,1,0,40,520,1,53298,1
2,27324,30167,31341,90977,16044,-4628,-1099,-115,-9,-33,34,229,491,-169,1,1,0,40,560,1,53298,1
2,27310,30158,31343,90978,16058,-4621,-1086,-135,-3,-21,24,230,498,-166,1,1,0,40,600,1,53298,1
2,27318,30171,31342,90979,16072,-4629,-1096,-140,-7,-3,17,230,498,-168,1,1,0,40,640,1,53298,1
2,27323,30170,31340,90980,16086,-4626,-1103,-141,-8,9,10,226,486,-168,1,1,0,40,680,1,53298,1
2,27326,30168,31344,90981,16101,-4627,-1092,-148,-4,-8,24,230,492,-172,1,1,0,40,720,1,53298,1
2,27338,30177,31342,90982,16115,-4620,-1094,-137,-4,-16,25,237,497,-169,1,1,0,40,760,1,53298,1
2,27333,30180,31339,90983,16129,-4638,-1104,-128,-8,-10,27,230,494,-162,1,1,0,40,800,1,53298,1
2,27327,30190,31355,90984,16144,-4629,-1103,-140,-7,-8,17,229,493,-173,1,1,0,40,840,1,53298,1
2,27318,30229,31345,90985,16159,-4632,-1099,-138,-3,-14,8,232,488,-164,1,1,0,40,880,1,53298,1
2,27305,30198,31343,90986,16174,-4620,-1097,-136,-4,-16,25,233,501,-171,1,1,0,40,920,1,53298,1
2,27311,30205,31339,90987,16189,-4622,-1086,-144,-7,-9,28,237,481,-169,1,1,0,40,960,1,53298,1
1,27306,30203,31344,90988,0,-4634,-1096,-147,-10,3,14,231,495,-165,1,1,0,41,0,1,53298,1
2,27301,30205,31344,90989,15416,-4631,-1099,-139,-4,8,6,232,492,-168,1,1,0,41,40,1,53298,1
2,27300,30211,31342,90990,15431,-4625,-1098,-143,-10,-3,11,235,493,-177,1,1,0,41,80,1,53298,1
2,27298,30220,31343,90991,15446,-4626,-1100,-135,-4,-15,20,237,495,-165,1,1,0,41,120,1,53298,1
2,27314,30215,31355,90992,15460,-4635,-1093,-139,-3,-17,38,239,489,-169,1,1,0,41,160,1,53298,1
2,27321,30235,31340,90993,15475,-4615,-1089,-135,-2,-13,28,234,492,-172,1,1,0,41,200,1,53298,1
2,27311,30228,31346,90994,15489,-4638,-1098,-132,-7,-5,27,234,496,-174,1,1,0,41,240,1,53298,1
2,27320,30230,31347,90995,15503,-4629,-1090,-136,0,-4,18,239,495,-163,1,1,0,41,280,1,53298,1
2,27320,30210,31340,90996,15518,-4624,-1098,-147,-6,-6,20,231,483,-163,1,1,0,41,320,1,53298,1
2,27326,30228,31340,90997,15533,-4632,-1095,-143,-8,-8,15,220,488,-162,1,1,0,41,360,1,53298,1
2,27319,30211,31345,90998,15547,-4635,-1101,-136,-4,-4,31,235,493,-161,1,1,0,41,400,1,53298,1
2,27327,30204,31341,90999,15561,-4628,-1094,-147,-4,-6,28,229,499,-165,1,1,0,41,440,1,53298,1
2,27325,30221,31351,91000,15576,-4627,-1095,-136,-8,-11,25,233,493,-169,1,1,0,41,480,1,53298,1
2,27315,30226,31341,91001,15589,-4626,-1088,-149,-10,-16,15,232,482,-162,1,1,0,41,520,1,53298,1
2,27314,30228,31341,91002,15603,-4623,-1082,-134,-4,-12,11,233,491,-169,1,1,0,41,560,1,53298,1
2,27321,30214,31341,91003,15616,-4626,-1104,-137,-14,-7,19,234,494,-160,1,1,0,41,600,1,53298,1
2,27305,30220,31338,91004,15631,-4632,-1098,-128,-4,-3,15,239,499,-173,1,1,0,41,640,1,53298,1
2,27312,30215,31339,91005,15645,-4625,-1087,-157,-4,-6,19,233,497,-169,1,1,0,41,680,1,53298,1
2,27320,30217,31343,91006,15658,-4636,-1099,-144,-13,-6,21,226,496,-168,1,1,0,41,720,1,53298,1
2,27312,30232,31340,91007,15672,-4631,-1095,-141,-9,-15,22,237,499,-169,1,1,0,41,760,1,53298,1
2,27315,30250,31344,91008,15686,-4625,-1094,-144,-3,-18,14,234,494,-166,1,1,0,41,800,1,53298,1
2,27319,30240,31344,91009,15699,-4623,-1091,-130,-11,-15,22,232,482,-164,1,1,0,41,840,1,53298,1
2,27323,30218,31338,91010,15712,-4627,-1107,-135,-3,-9,23,232,496,-164,1,1,0,41,880,1,53298,1
2,27320,30239,31342,91011,15725,-4635,-1100,-139,-7,-14,29,218,490,-168,1,1,0,41,920,1,53298,1
2,27329,30240,31345,91012,15739,-4632,-1095,-153,-10,-9,24,237,503,-167,1,1,0,41,960,1,53298,1
1,27322,30229,31345,91013,0,-4633,-1100,-137,-4,-9,10,228,486,-162,1,1,0,42,0,0,53298,1
2,27318,30210,31346,91014,14972,-4632,-1079,-138,-12,-14,8,229,493,-163,1,1,0,42,40,0,53298,1
2,27314,30200,31342,91015,14986,-4644,-1101,-133,-5,-4,16,235,503,-165,1,1,0,42,80,0,53298,1
2,27322,30220,31341,91016,15001,-4623,-1079,-141,-7,-7,13,237,495,-175,1,1,0,42,120,0,53298,1
2,27301,30219,31341,91017,15014,-4617,-1090,-156,0,-9,21,235,491,-167,1,1,0,42,160,0,53298,1
2,27312,30222,31341,91018,15028,-4623,-1098,-142,-7,-16,25,230,496,-160,1,1,0,42,200,0,53298,1
2,27325,30218,31345,91019,15041,-4627,-1093,-149,-2,-9,21,233,493,-167,1,1,0,42,240,0,53298,1
2,27314,30231,31342,91020,15055,-4622,-1081,-136,-7,-22,22,238,492,-172,1,1,0,42,280,0,53298,1
2,27315,30217,31339,91021,15069,-4631,-1096,-139,-8,-18,27,228,490,-170,1,1,0,42,320,0,53298,1
2,27319,30233,31343,91022,15083,-4626,-1091,-133,-9,-15,28,245,487,-163,1,1,0,42,360,0,53298,1
2,27322,30240,31354,91023,15098,-4624,-1090,-137,-9,-14,26,233,491,-157,1,1,0,42,400,0,53298,1
2,27311,30226,31344,91024,15113,-4635,-1098,-140,-7,-10,17,227,495,-165,1,1,0,42,440,0,53298,1
2,27317,30220,31340,91025,15127,-4624,-1086,-141,-11,-13,15,232,496,-172,1,1,0,42,480,0,53298,1
2,27313,30221,31345,91026,15141,-4630,-1098,-136,-5,-21,18,231,495,-165,1,1,0,42,520,0,53298,1
2,27317,30225,31340,91027,15155,-4621,-1086,-145,-3,-12,23,237,489,-173,1,1,0,42,560,0,53298,1
2,27323,30222,31344,91028,15170,-4635,-1095,-149,-8,-8,37,231,499,-161,1,1,0,42,600,0,53298,1
2,27306,30227,31341,91029,15184,-4632,-1099,-148,-1,-10,29,233,495,-165,1,1,0,42,640,0,53298,1
2,27305,30231,31347,91030,15197,-4629,-1090,-146,-2,-13,22,229,497,-161,1,1,0,42,680,0,53298,1
2,27309,30217,31344,91031,15212,-4624,-1090,-141,-5,-14,18,232,490,-168,1,1,0,42,720,0,53298,1
2,27310,30210,31341,91032,15226,-4609,-1083,-132,-10,-19,20,230,490,-160,1,1,0,42,760,0,53298,1
2,27308,30190,31340,91033,15241,-4618,-1088,-145,-3,-11,15,240,490,-166,1,1,0,42,800,0,53298,1
2,27302,30180,31337,91034,15255,-4614,-1080,-142,-6,-13,25,228,492,-166,1,1,0,42,840,0,53298,1
2,27297,30182,31335,91035,15268,-4636,-1099,-139,-14,-11,26,228,494,-162,1,1,0,42,880,0,53298,1
2,27300,30190,31335,91036,15283,-4631,-1102,-130,-11,-18,31,234,496,-174,1,1,0,42,920,0,53298,1
2,27292,30181,31334,91037,15297,-4614,-1084,-139,-4,-17,18,243,495,-167,1,1,0,42,960,0,53298,1
1,27290,30190,31335,91038,0,-4627,-1098,-136,-2,-14,28,226,496,-166,1,1,0,43,0,1,53298,1
2,27305,30171,31335,91039,14529,-4634,-1086,-134,-4,-10,22,230,496,-170,1,1,0,43,40,1,53298,1
2,27293,30182,31333,91040,14543,-4640,-1103,-152,-6,-6,28,229,491,-169,1,1,0,43,80,1,53298,1
2,27305,30213,31332,91041,14557,-4648,-1103,-144,-9,-13,21,233,491,-165,1,1,0,43,120,1,53298,1
2,27308,30201,31337,91042,14571,-4628,-1088,-154,4,-17,16,229,487,-161,1,1,0,43,160,1,53298,1
2,27301,30195,31338,91043,14586,-4636,-1095,-146,-7,-23,30,233,495,-163,1,1,0,43,200,1,53298,1
2,27305,30212,31338,91044,14600,-4629,-1090,-130,-5,-25,26,229,495,-171,1,1,0,43,240,1,53298,1
2,27305,30205,31339,91045,14615,-4626,-1091,-146,1,-20,27,219,485,-171,1,1,0,43,280,1,53298,1
2,27310,30240,31338,91046,14629,-4631,-1088,-144,-6,-1,29,232,492,-170,1,1,0,43,320,1,53298,1
2,27308,30227,31335,91047,14643,-4632,-1096,-147,-6,0,27,231,493,-171,1,1,0,43,360,1,53298,1
2,27308,30217,31336,91048,14657,-4632,-1095,-137,-5,-1,25,233,495,-169,1,1,0,43,400,1,53298,1
2,27306,30214,31343,91049,14672,-4634,-1097,-151,-4,-9,23,229,491,-169,1,1,0,43,440,1,53298,1
2,27316,30216,31338,91050,14686,-4625,-1084,-135,-7,-19,20,224,488,-168,1,1,0,43,480,1,53298,1
2,27312,30214,31337,91051,14699,-4636,-1096,-140,-2,-7,23,228,498,-158,1,1,0,43,520,1,53298,1
2,27320,30219,31340,91052,14713,-4627,-1092,-131,-1,-23,26,238,502,-162,1,1,0,43,560,1,53298,1
2,27330,30211,31338,91053,14726,-4636,-1096,-154,-13,-8,25,226,490,-174,1,1,0,43,600,1,53298,1
2,27308,30216,31338,91054,14740,-4630,-1097,-137,-7,-19,23,234,496,-162,1,1,0,43,640,1,53298,1
2,27307,30206,31337,91055,14753,-4615,-1079,-134,-2,-16,22,233,495,-169,1,1,0,43,680,1,53298,1
2,27311,30210,31333,91056,14767,-4633,-1090,-141,-7,-11,20,233,491,-163,1,1,0,43,720,1,53298,1
2,27325,30196,31335,91057,14780,-4635,-1089,-143,-10,-1,14,234,488,-172,1,1,0,43,760,1,53298,1
2,27332,30192,31335,91058,14794,-4631,-1086,-147,-7,-13,17,228,490,-160,1,1,0,43,800,1,53298,1
2,27330,30163,31336,91059,14808,-4636,-1089,-141,-10,-12,25,233,495,-171,1,1,0,43,840,1,53298,1
2,27323,30177,31336,91060,14822,-4629,-1093,-136,-7,-11,25,230,498,-178,1,1,0,43,880,1,53298,1
2,27307,30191,31338,91061,14836,-4629,-1093,-132,-5,-25,23,227,495,-171,1,1,0,43,920,1,53298,1
2,27305,30190,31335,91062,14850,-4627,-1093,-150,-13,-19,17,233,489,-173,1,1,0,43,960,1,53298,1
1,27314,30209,31338,91063,0,-4639,-1099,-159,-7,-13,27,231,489,-169,1,1,0,44,0,0,53298,1
2,27311,30208,31338,91064,14086,-4635,-1093,-132,-1,-12,28,227,491,-159,1,1,0,44,40,0,53298,1
2,27317,30218,31336,91065,14101,-4625,-1107,-136,-5,-11,31,229,497,-165,1,1,0,44,80,0,53298,1
2,27295,30213,31336,91066,14115,-4639,-1098,-132,-9,-6,25,231,491,-155,1,1,0,44,120,0,53298,1
2,27299,30200,31336,91067,14129,-4641,-1106,-151,-6,-13,18,235,493,-163,1,1,0,44,160,0,53298,1
2,27301,30217,31338,91068,14144,-4614,-1092,-146,-11,-11,25,238,492,-172,1,1,0,44,200,0,53298,1
2,27303,30219,31340,91069,14159,-4641,-1105,-128,-8,-20,28,234,496,-172,1,1,0,44,240,0,53298,1
2,27312,30213,31337,91070,14174,-4631,-1099,-136,-1,-29,32,229,491,-159,1,1,0,44,280,0,53298,1
2,27292,30220,31339,91071,14189,-4619,-1093,-138,-7,-28,33,231,493,-173,1,1,0,44,320,0,53298,1
2,27305,30231,31337,91072,14202,-4627,-1093,-142,-3,-21,19,229,489,-171,1,1,0,44,360,0,53298,1
2,27305,30233,31335,91073,14215,-4620,-1099,-141,-6,-15,21,230,486,-164,1,1,0,44,400,0,53298,1
2,27308,30221,31340,91074,14229,-4624,-1093,-134,-10,-9,11,238,488,-170,1,1,0,44,440,0,53298,1
2,27306,30201,31340,91075,14242,-4628,-1093,-144,-3,-5,23,235,497,-167,1,1,0,44,480,0,53298,1
2,27313,30199,31340,91076,14256,-4627,-1098,-124,-8,-9,22,246,492,-164,1,1,0,44,520,0,53298,1
2,27314,30166,31335,91077,14270,-4623,-1097,-142,-4,-15,22,233,491,-171,1,1,0,44,560,0,53298,1
2,27313,30183,31335,91078,14284,-4634,-1096,-147,1,-16,18,233,493,-169,1,1,0,44,600,0,53298,1
2,27306,30181,31331,91079,14298,-4640,-1104,-150,-3,-16,23,234,492,-168,1,1,0,44,640,0,53298,1
2,27318,30179,31333,91080,14311,-4629,-1094,-133,-4,-21,26,231,493,-163,1,1,0,44,680,0,53298,1
2,27307,30182,31334,91081,14325,-4619,-1084,-131,-6,-21,31,236,492,-168,1,1,0,44,720,0,53298,1
2,27302,30185,31339,91082,14339,-4620,-1094,-122,-13,-17,28,225,489,-173,1,1,0,44,760,0,53298,1
2,27319,30206,31335,91083,14353,-4629,-1089,-136,4,-17,26,228,484,-162,1,1,0,44,800,0,53298,1
2,27299,30190,31338,91084,14366,-4624,-1105,-136,-1,-11,26,221,493,-161,1,1,0,44,840,0,53298,1
2,27313,30166,31335,91085,14380,-4630,-1109,-141,-7,-14,19,230,492,-164,1,1,0,44,880,0,53298,1
2,27311,30171,31338,91086,14395,-4646,-1102,-140,-10,-10,19,227,489,-167,1,1,0,44,920,0,53298,1
2,27308,30168,31332,91087,14409,-4639,-1098,-144,-4,-8,25,239,487,-171,1,1,0,44,960,0,53298,1
1,27300,30169,31333,91088,0,-4629,-1103,-144,-11,-10,27,230,488,-166,1,1,0,45,0,0,53298,1
2,27305,30168,31337,91089,13643,-4636,-1098,-135,-6,-12,22,233,487,-157,1,1,0,45,40,0,53298,1
