sensorStatus,cap1,cap2,cap3,counter,microseconds_since_last_tick,accX,accY,accZ,gyroX,gyroY,gyroZ,magnetX,magnetY,magnetZ,day,hour,min,sec,msec,sync,battery_fuel,crc_good
2,29575,30746,32120,53589,35074,-4211,924,-717,7,-9,17,56,462,-176,1,0,35,45,40,0,53298,1
2,29536,30745,32122,53590,35098,-4190,937,-717,-2,-15,21,60,474,-170,1,0,35,45,80,0,53298,1
2,29530,30746,32120,53591,35122,-4213,913,-716,7,-12,24,51,465,-163,1,0,35,45,120,0,53298,1
2,29525,30745,32117,53592,35146,-4210,923,-711,11,-10,35,46,466,-164,1,0,35,45,160,0,53298,1
2,29539,30745,32117,53593,35171,-4209,922,-734,-10,-6,26,50,462,-168,1,0,35,45,200,0,53298,1
2,29535,30746,32120,53594,35196,-4210,915,-728,6,-7,29,51,469,-163,1,0,35,45,240,0,53298,1
2,29543,30745,32127,53595,35220,-4212,917,-733,16,-9,17,50,470,-162,1,0,35,45,280,0,53298,1
2,29537,30745,32126,53596,35244,-4225,906,-720,-3,-4,26,49,469,-163,1,0,35,45,320,0,53298,1
2,29537,30744,32124,53597,35268,-4215,914,-721,8,-5,18,55,463,-165,1,0,35,45,360,0,53298,1
2,29544,30744,32120,53598,35292,-4207,912,-737,25,-7,13,49,461,-173,1,0,35,45,400,0,53298,1
2,29533,30742,32123,53599,35316,-4213,923,-712,1,0,28,62,468,-168,1,0,35,45,440,0,53298,1
2,29550,30746,32119,53600,35341,-4209,924,-723,18,1,32,56,474,-166,1,0,35,45,480,0,53298,1
2,29558,30745,32120,53601,35366,-4208,916,-731,25,-4,14,54,470,-164,1,0,35,45,520,0,53298,1
2,29543,30746,32120,53602,35390,-4217,916,-721,6,-8,19,55,459,-165,1,0,35,45,560,0,53298,1
2,29547,30747,32125,53603,35415,-4210,918,-711,6,-4,25,59,463,-167,1,0,35,45,600,0,53298,1
2,29553,30746,32121,53604,35440,-4219,923,-730,17,-10,30,59,469,-171,1,0,35,45,640,0,53298,1
2,29559,30745,32129,53605,35464,-4204,920,-731,-3,-3,15,57,463,-165,1,0,35,45,680,0,53298,1
2,29571,30746,32123,53606,35489,-4202,919,-731,-2,-5,8,52,466,-172,1,0,35,45,720,0,53298,1
2,29572,30746,32120,53607,35514,-4212,918,-719,6,-11,12,60,470,-154,1,0,35,45,760,0,53298,1
2,29556,30742,32120,53608,35540,-4211,923,-715,7,-15,16,56,474,-164,1,0,35,45,800,0,53298,1
2,29551,30743,32117,53609,35564,-4216,907,-717,10,-11,26,51,469,-171,1,0,35,45,840,0,53298,1
2,29565,30744,32121,53610,35588,-4224,916,-720,14,4,27,49,469,-159,1,0,35,45,880,0,53298,1
2,29559,30743,32117,53611,35613,-4218,902,-725,20,0,19,63,471,-169,1,0,35,45,920,0,53298,1
2,29567,30743,32137,53612,35638,-4205,916,-722,5,-2,8,70,464,-174,1,0,35,45,960,0,53298,1
1,29573,30743,32120,53613,0,-4206,920,-710,4,-6,11,61,461,-163,1,0,35,46,0,0,53298,1
2,29560,30745,32116,53614,34629,-4210,923,-714,5,-11,19,58,466,-166,1,0,35,46,40,0,53298,1
2,29564,30745,32129,53615,34654,-4207,927,-725,3,-5,25,49,465,-155,1,0,35,46,80,0,53298,1
2,29547,30744,32127,53616,34679,-4209,913,-718,9,-1,13,56,468,-172,1,0,35,46,120,0,53298,1
2,29552,30744,32130,53617,34704,-4219,915,-721,8,0,20,57,469,-167,1,0,35,46,160,0,53298,1
2,29552,30742,32132,53618,34728,-4203,920,-721,-36,-11,26,53,467,-173,1,0,35,46,200,0,53298,1
2,29545,30741,32119,53619,34752,-4211,916,-715,-69,-37,41,57,469,-163,1,0,35,46,240,0,53298,1
2,29548,30742,32125,53620,34776,-4206,925,-695,31,-51,55,47,481,-157,1,0,35,46,280,0,53298,1
2,29557,30744,32118,53621,34801,-4203,929,-717,19,3,53,57,467,-165,1,0,35,46,320,0,53298,1
2,29562,30744,32119,53622,34826,-4213,916,-723,27,51,57,61,463,-175,1,0,35,46,360,0,53298,1
2,29560,30743,32128,53623,34851,-4215,916,-735,-11,64,55,51,469,-165,1,0,35,46,400,0,53298,1
2,29567,30745,32121,53624,34876,-4208,922,-725,-7,40,35,48,466,-164,1,0,35,46,440,0,53298,1
2,29571,30745,32125,53625,34900,-4208,928,-700,61,2,-12,53,465,-167,1,0,35,46,480,0,53298,1
2,29561,30747,32130,53626,34925,-4215,916,-724,44,0,-30,53,463,-163,1,0,35,46,520,0,53298,1
2,29558,30747,32127,53627,34949,-4211,913,-738,-95,-25,-5,63,469,-165,1,0,35,46,560,0,53298,1
2,29560,30747,32132,53628,34974,-4224,894,-750,-110,-98,49,57,473,-161,1,0,35,46,600,0,53298,1
2,29564,30747,32127,53629,34999,-4204,927,-712,-87,-171,79,62,470,-164,1,0,35,46,640,0,53298,1
2,29581,30745,32128,53630,35025,-4199,939,-698,-138,-147,95,58,464,-174,1,0,35,46,680,0,53298,1
2,29553,30745,32123,53631,35050,-4219,923,-699,-95,-85,88,54,468,-164,1,0,35,46,720,0,53298,1
2,29586,30745,32129,53632,35075,-4218,932,-690,28,-3,67,59,459,-169,1,0,35,46,760,0,53298,1
2,29547,30745,32131,53633,35101,-4207,929,-715,43,61,35,55,467,-177,1,0,35,46,800,0,53298,1
2,29563,30747,32126,53634,35126,-4208,921,-729,35,84,14,58,466,-154,1,0,35,46,840,0,53298,1
2,29555,30745,32132,53635,35152,-4214,935,-728,56,50,4,53,467,-171,1,0,35,46,880,0,53298,1
2,29570,30743,32131,53636,35177,-4202,933,-728,41,-11,-4,55,461,-157,1,0,35,46,920,0,53298,1
2,29578,30744,32128,53637,35202,-4206,924,-719,-19,-21,18,57,463,-159,1,0,35,46,960,0,53298,1
1,29567,30746,32135,53638,0,-4219,913,-723,-29,-35,30,50,460,-174,1,0,35,47,0,0,53298,1
2,29571,30746,32129,53639,34183,-4214,925,-707,-9,-44,23,65,471,-165,1,0,35,47,40,0,53298,1
2,29580,30745,32134,53640,34209,-4217,920,-708,-5,-6,20,60,470,-168,1,0,35,47,80,0,53298,1
2,29559,30747,32129,53641,34234,-4216,931,-707,22,15,10,53,467,-161,1,0,35,47,120,0,53298,1
2,29573,30745,32128,53642,34258,-4233,913,-699,41,37,1,49,467,-161,1,0,35,47,160,0,53298,1
2,29536,30746,32128,53643,34284,-4211,935,-711,49,44,3,46,460,-164,1,0,35,47,200,0,53298,1
2,29530,30744,32131,53644,34309,-4213,926,-724,31,32,6,53,473,-165,1,0,35,47,240,0,53298,1
2,29523,30742,32125,53645,34335,-4211,915,-719,6,5,10,56,462,-168,1,0,35,47,280,0,53298,1
2,29531,30743,32127,53646,34361,-4209,914,-722,8,-26,26,61,467,-169,1,0,35,47,320,0,53298,1
2,29523,30743,32124,53647,34387,-4195,929,-711,-1,-34,27,46,476,-162,1,0,35,47,360,0,53298,1
2,29527,30741,32125,53648,34412,-4203,924,-710,-13,-18,28,58,464,-166,1,0,35,47,400,0,53298,1
2,29503,30742,32112,53649,34438,-4204,929,-698,-4,-26,23,60,462,-168,1,0,35,47,440,0,53298,1
2,29541,30742,32130,53650,34464,-4214,922,-709,11,-10,25,60,466,-162,1,0,35,47,480,0,53298,1
2,29526,30741,32125,53651,34490,-4190,934,-708,20,-3,21,58,466,-162,1,0,35,47,520,0,53298,1
2,29525,30742,32119,53652,34515,-4204,924,-738,28,17,34,54,474,-158,1,0,35,47,560,0,53298,1
2,29539,30744,32125,53653,34540,-4207,935,-714,25,22,22,62,468,-166,1,0,35,47,600,0,53298,1
2,29528,30743,32124,53654,34564,-4208,932,-723,23,8,17,55,463,-165,1,0,35,47,640,0,53298,1
2,29512,30742,32117,53655,34588,-4211,921,-729,3,-3,11,55,469,-175,1,0,35,47,680,0,53298,1
2,29525,30743,32135,53656,34613,-4211,919,-715,-3,-28,5,50,476,-158,1,0,35,47,720,0,53298,1
2,29516,30744,32121,53657,34639,-4212,920,-720,-12,-40,8,57,475,-173,1,0,35,47,760,0,53298,1
2,29529,30742,32117,53658,34665,-4208,943,-710,-28,-39,21,55,469,-169,1,0,35,47,800,0,53298,1
2,29531,30745,32121,53659,34690,-4204,920,-719,-31,-41,17,58,464,-174,1,0,35,47,840,0,53298,1
2,29540,30743,32120,53660,34715,-4199,931,-698,11,-26,36,57,469,-171,1,0,35,47,880,0,53298,1
2,29525,30744,32115,53661,34741,-4212,917,-704,54,13,52,53,467,-161,1,0,35,47,920,0,53298,1
2,29522,30745,32124,53662,34767,-4211,927,-705,55,61,41,58,466,-166,1,0,35,47,960,0,53298,1
1,29525,30743,32115,53663,0,-4199,929,-726,78,108,27,68,470,-166,1,0,35,48,0,1,53298,1
2,29516,30741,32115,53664,33740,-4218,918,-714,162,112,28,50,466,-156,1,0,35,48,40,1,53298,1
2,29517,30744,32107,53665,33765,-4203,937,-724,115,114,4,58,472,-180,1,0,35,48,80,1,53298,1
2,29534,30743,32122,53666,33790,-4202,919,-763,-7,58,-32,65,473,-173,1,0,35,48,120,1,53298,1
2,29523,30742,32122,53667,33815,-4219,911,-753,-7,-43,-48,59,467,-169,1,0,35,48,160,1,53298,1
2,29523,30746,32125,53668,33840,-4210,910,-725,-62,-136,-23,57,469,-173,1,0,35,48,200,1,53298,1
2,29515,30745,32114,53669,33864,-4220,917,-720,-172,-174,22,48,476,-160,1,0,35,48,240,1,53298,1
2,29518,30745,32119,53670,33888,-4209,917,-712,-173,-195,62,53,461,-167,1,0,35,48,280,1,53298,1
2,29523,30744,32114,53671,33912,-4221,919,-692,-83,-160,111,58,462,-168,1,0,35,48,320,1,53298,1
2,29521,30743,32123,53672,33936,-4203,934,-661,-17,-46,155,55,475,-173,1,0,35,48,360,1,53298,1
2,29530,30743,32124,53673,33960,-4200,932,-705,46,120,185,58,472,-164,1,0,35,48,400,1,53298,1
2,29521,30743,32117,53674,33983,-4195,975,-701,198,229,105,54,470,-162,1,0,35,48,440,1,53298,1
2,29510,30741,32117,53675,34007,-4200,940,-740,309,255,-55,50,466,-174,1,0,35,48,480,1,53298,1
2,29494,30738,32114,53676,34031,-4216,912,-760,235,218,-157,56,470,-170,1,0,35,48,520,1,53298,1
2,29519,30739,32121,53677,34056,-4206,924,-729,194,135,-170,55,469,-171,1,0,35,48,560,1,53298,1
2,29532,30742,32122,53678,34080,-4217,881,-782,-21,27,-68,62,470,-166,1,0,35,48,600,1,53298,1
2,29519,30740,32113,53679,34105,-4206,914,-756,-114,-126,65,48,470,-160,1,0,35,48,640,1,53298,1
2,29516,30739,32125,53680,34130,-4210,926,-702,-62,-211,133,57,475,-157,1,0,35,48,680,1,53298,1
2,29517,30741,32114,53681,34155,-4199,931,-706,-145,-172,141,50,466,-162,1,0,35,48,720,1,53298,1
2,29519,30743,32117,53682,34179,-4208,930,-702,-149,-114,88,56,466,-166,1,0,35,48,760,1,53298,1
2,29521,30743,32117,53683,34203,-4195,946,-707,-28,-36,43,63,471,-169,1,0,35,48,800,1,53298,1
2,29512,30743,32115,53684,34228,-4200,943,-708,61,24,2,51,469,-159,1,0,35,48,840,1,53298,1
2,29525,30741,32117,53685,34252,-4212,925,-707,45,88,-27,52,468,-170,1,0,35,48,880,1,53298,1
2,29512,30743,32120,53686,34276,-4207,921,-742,34,84,-32,50,470,-170,1,0,35,48,920,1,53298,1
2,29495,30744,32119,53687,34300,-4206,922,-732,41,9,8,60,464,-172,1,0,35,48,960,1,53298,1
1,29490,30740,32118,53688,0,-4204,904,-740,-39,-58,45,59,467,-167,1,0,35,49,0,0,53298,1
2,29496,30743,32114,53689,33292,-4219,936,-713,-37,-88,86,57,465,-169,1,0,35,49,40,0,53298,1
2,29513,30745,32127,53690,33317,-4209,929,-702,4,-62,73,54,466,-176,1,0,35,49,80,0,53298,1
2,29498,30745,32124,53691,33342,-4207,943,-701,42,18,48,58,460,-164,1,0,35,49,120,0,53298,1
2,29511,30744,32128,53692,33367,-4202,933,-714,110,87,-10,54,466,-170,1,0,35,49,160,0,53298,1
2,29516,30743,32123,53693,33391,-4209,921,-734,142,133,-36,60,468,-170,1,0,35,49,200,0,53298,1
2,29513,30746,32125,53694,33417,-4209,924,-732,104,121,-44,57,467,-165,1,0,35,49,240,0,53298,1
2,29509,30744,32119,53695,33441,-4197,915,-732,63,71,-55,60,468,-170,1,0,35,49,280,0,53298,1
2,29494,30742,32118,53696,33465,-4218,919,-734,61,8,-57,58,466,-166,1,0,35,49,320,0,53298,1
2,29497,30740,32106,53697,33490,-4209,922,-735,22,-17,-42,51,467,-163,1,0,35,49,360,0,53298,1
2,29498,30738,32112,53698,33515,-4221,897,-736,-51,-17,-33,55,469,-173,1,0,35,49,400,0,53298,1
2,29502,30739,32099,53699,33540,-4203,917,-735,-23,-35,-19,53,463,-171,1,0,35,49,440,0,53298,1
2,29504,30739,32111,53700,33564,-4207,911,-733,-18,-34,15,61,459,-171,1,0,35,49,480,0,53298,1
2,29534,30740,32104,53701,33587,-4204,932,-715,-15,-34,50,50,470,-158,1,0,35,49,520,0,53298,1
2,29543,30740,32110,53702,33611,-4199,930,-727,-4,-5,66,50,464,-164,1,0,35,49,560,0,53298,1
2,29553,30740,32110,53703,33635,-4217,916,-724,-3,14,48,59,469,-171,1,0,35,49,600,0,53298,1
2,29543,30738,32113,53704,33659,-4197,927,-742,-28,-6,32,61,465,-177,1,0,35,49,640,0,53298,1
2,29548,30737,32113,53705,33684,-4195,926,-735,-44,-43,15,57,467,-165,1,0,35,49,680,0,53298,1
2,29538,30737,32115,53706,33709,-4207,912,-717,-37,-69,14,53,471,-167,1,0,35,49,720,0,53298,1
2,29543,30739,32107,53707,33733,-4214,917,-713,-81,-73,18,56,458,-164,1,0,35,49,760,0,53298,1
2,29552,30736,32115,53708,33759,-4207,917,-727,-34,-64,33,61,469,-165,1,0,35,49,800,0,53298,1
2,29547,30737,32109,53709,33784,-4214,932,-714,-9,-33,33,56,472,-162,1,0,35,49,840,0,53298,1
2,29552,30738,32110,53710,33808,-4219,912,-715,-19,3,31,59,467,-167,1,0,35,49,880,0,53298,1
2,29552,30735,32110,53711,33834,-4208,909,-718,-14,22,20,49,465,-165,1,0,35,49,920,0,53298,1
2,29553,30739,32110,53712,33859,-4208,930,-725,28,7,14,63,465,-169,1,0,35,49,960,0,53298,1
1,29554,30738,32110,53713,0,-4210,922,-724,25,2,9,56,462,-170,1,0,35,50,0,0,53298,1
2,29530,30737,32111,53714,32848,-4214,912,-725,-4,-8,11,56,468,-164,1,0,35,50,40,0,53298,1
2,29528,30736,32113,53715,32872,-4221,913,-728,-19,-13,14,57,469,-161,1,0,35,50,80,0,53298,1
2,29529,30740,32116,53716,32896,-4201,919,-717,-30,-42,20,52,464,-166,1,0,35,50,120,0,53298,1
2,29518,30741,32116,53717,32921,-4219,919,-710,-13,-46,23,62,472,-168,1,0,35,50,160,0,53298,1
2,29524,30737,32104,53718,32946,-4215,928,-715,13,-19,16,59,465,-173,1,0,35,50,200,0,53298,1
2,29540,30740,32120,53719,32970,-4205,923,-716,36,25,15,57,467,-173,1,0,35,50,240,0,53298,1
2,29544,30741,32115,53720,32994,-4194,928,-714,42,55,3,56,468,-164,1,0,35,50,280,0,53298,1
2,29548,30740,32122,53721,33019,-4210,917,-732,35,47,5,52,458,-176,1,0,35,50,320,0,53298,1
2,29551,30737,32110,53722,33043,-4232,909,-733,14,10,2,55,461,-175,1,0,35,50,360,0,53298,1
2,29539,30737,32116,53723,33067,-4204,917,-726,7,-30,7,60,468,-172,1,0,35,50,400,0,53298,1
2,29541,30738,32118,53724,33093,-4224,914,-715,-1,-30,21,45,469,-169,1,0,35,50,440,0,53298,1
2,29522,30740,32122,53725,33118,-4216,913,-714,7,-24,30,51,473,-161,1,0,35,50,480,0,53298,1
2,29522,30738,32117,53726,33143,-4208,913,-735,-5,-16,33,59,475,-165,1,0,35,50,520,0,53298,1
2,29542,30745,32125,53727,33168,-4195,916,-727,-14,-24,33,59,473,-169,1,0,35,50,560,0,53298,1
2,29533,30746,32127,53728,33192,-4210,928,-729,-3,-30,26,57,469,-173,1,0,35,50,600,0,53298,1
2,29537,30744,32122,53729,33217,-4217,922,-714,10,-17,21,56,476,-156,1,0,35,50,640,0,53298,1
2,29522,30744,32116,53730,33241,-4217,909,-723,1,4,11,55,465,-165,1,0,35,50,680,0,53298,1
2,29530,30744,32121,53731,33266,-4206,918,-729,13,15,15,49,463,-163,1,0,35,50,720,0,53298,1
2,29524,30743,32116,53732,33291,-4204,922,-724,13,1,14,62,474,-162,1,0,35,50,760,0,53298,1
2,29504,30745,32117,53733,33315,-4208,916,-723,3,-9,8,61,461,-163,1,0,35,50,800,0,53298,1
2,29517,30743,32119,53734,33339,-4208,928,-724,15,-15,22,55,469,-173,1,0,35,50,840,0,53298,1
2,29516,30745,32114,53735,33364,-4198,935,-720,5,-11,21,58,470,-170,1,0,35,50,880,0,53298,1
2,29508,30745,32119,53736,33388,-4219,914,-728,-10,1,35,60,462,-164,1,0,35,50,920,0,53298,1
2,29518,30743,32118,53737,33412,-4207,923,-722,3,-14,22,60,472,-166,1,0,35,50,960,0,53298,1
1,29533,30744,32118,53738,0,-4215,924,-721,8,-11,18,60,464,-168,1,0,35,51,0,1,53298,1
2,29529,30745,32132,53739,32403,-4210,919,-714,5,-3,12,53,467,-161,1,0,35,51,40,1,53298,1
2,29523,30746,32118,53740,32427,-4216,912,-708,26,8,15,59,475,-169,1,0,35,51,80,1,53298,1
2,29522,30745,32121,53741,32453,-4203,918,-734,10,12,13,54,464,-172,1,0,35,51,120,1,53298,1
2,29527,30746,32118,53742,32477,-4215,906,-714,25,4,12,62,466,-172,1,0,35,51,160,1,53298,1
2,29527,30745,32117,53743,32502,-4209,922,-712,17,-7,9,60,472,-158,1,0,35,51,200,1,53298,1
2,29508,30745,32110,53744,32527,-4213,928,-713,20,-15,20,60,466,-172,1,0,35,51,240,1,53298,1
2,29510,30744,32117,53745,32552,-4216,913,-717,3,-11,31,57,481,-165,1,0,35,51,280,1,53298,1
2,29499,30745,32120,53746,32577,-4218,924,-720,-7,-3,27,52,468,-172,1,0,35,51,320,1,53298,1
2,29489,30746,32117,53747,32602,-4195,932,-722,8,-18,17,56,474,-170,1,0,35,51,360,1,53298,1
2,29486,30745,32125,53748,32626,-4213,922,-710,3,-2,16,47,471,-163,1,0,35,51,400,1,53298,1
2,29487,30742,32120,53749,32649,-4207,913,-732,10,2,19,59,467,-169,1,0,35,51,440,1,53298,1
2,29479,30740,32118,53750,32673,-4198,937,-722,0,-4,18,47,473,-175,1,0,35,51,480,1,53298,1
2,29469,30742,32114,53751,32697,-4209,928,-718,1,-13,12,57,467,-171,1,0,35,51,520,1,53298,1
2,29471,30740,32117,53752,32722,-4201,922,-707,9,-17,25,45,473,-161,1,0,35,51,560,1,53298,1
2,29463,30741,32116,53753,32746,-4222,906,-722,4,-8,23,56,468,-174,1,0,35,51,600,1,53298,1
2,29482,30742,32121,53754,32769,-4214,928,-737,0,-7,23,62,470,-166,1,0,35,51,640,1,53298,1
2,29496,30741,32117,53755,32794,-4205,915,-723,19,-6,11,60,470,-174,1,0,35,51,680,1,53298,1
2,29493,30740,32115,53756,32818,-4214,913,-723,12,-3,19,62,468,-168,1,0,35,51,720,1,53298,1
2,29491,30742,32110,53757,32841,-4213,920,-716,6,8,19,58,468,-166,1,0,35,51,760,1,53298,1
2,29505,30742,32116,53758,32865,-4207,917,-721,16,4,12,50,474,-166,1,0,35,51,800,1,53298,1
2,29510,30741,32118,53759,32889,-4206,922,-724,15,7,23,59,463,-165,1,0,35,51,840,1,53298,1
2,29497,30741,32121,53760,32913,-4216,922,-726,19,5,9,63,469,-163,1,0,35,51,880,1,53298,1
2,29517,30742,32110,53761,32937,-4210,923,-703,8,9,11,63,465,-169,1,0,35,51,920,1,53298,1
2,29499,30742,32117,53762,32963,-4213,922,-719,13,-11,25,49,463,-171,1,0,35,51,960,1,53298,1
1,29494,30741,32117,53763,0,-4213,914,-709,9,-9,32,57,461,-165,1,0,35,52,0,1,53298,1
2,29501,30746,32110,53764,31959,-4208,916,-724,1,-12,24,55,463,-165,1,0,35,52,40,1,53298,1
2,29480,30746,32119,53765,31984,-4208,911,-729,-9,-16,20,58,472,-170,1,0,35,52,80,1,53298,1
2,29482,30746,32125,53766,32009,-4214,909,-716,3,-10,20,53,463,-171,1,0,35,52,120,1,53298,1
2,29489,30746,32110,53767,32033,-4209,919,-716,5,-9,26,48,468,-168,1,0,35,52,160,1,53298,1
2,29453,30745,32125,53768,32057,-4206,922,-714,1,-2,17,50,470,-170,1,0,35,52,200,1,53298,1
2,29449,30745,32117,53769,32082,-4208,919,-732,-7,-3,19,48,470,-166,1,0,35,52,240,1,53298,1
2,29450,30745,32125,53770,32106,-4220,906,-719,5,0,25,58,468,-170,1,0,35,52,280,1,53298,1
2,29461,30748,32129,53771,32131,-4212,919,-711,7,-5,22,57,471,-169,1,0,35,52,320,1,53298,1
2,29465,30745,32119,53772,32156,-4211,917,-700,8,-5,20,61,461,-167,1,0,35,52,360,1,53298,1
2,29462,30745,32114,53773,32180,-4213,914,-710,15,3,18,51,475,-165,1,0,35,52,400,1,53298,1
2,29465,30746,32121,53774,32204,-4209,921,-733,10,-2,17,52,474,-166,1,0,35,52,440,1,53298,1
2,29470,30747,32124,53775,32228,-4212,923,-714,3,-4,21,62,470,-170,1,0,35,52,480,1,53298,1
2,29454,30745,32120,53776,32253,-4207,925,-719,1,-6,16,54,474,-162,1,0,35,52,520,1,53298,1
2,29461,30745,32119,53777,32277,-4216,924,-713,7,-8,20,54,466,-174,1,0,35,52,560,1,53298,1
2,29462,30746,32126,53778,32301,-4203,928,-714,0,-11,20,59,467,-167,1,0,35,52,600,1,53298,1
2,29472,30743,32122,53779,32325,-4208,926,-720,6,3,21,49,467,-157,1,0,35,52,640,1,53298,1
2,29480,30744,32121,53780,32349,-4207,929,-708,9,-3,9,58,466,-166,1,0,35,52,680,1,53298,1
2,29473,30743,32125,53781,32374,-4221,908,-724,18,5,24,51,463,-175,1,0,35,52,720,1,53298,1
2,29487,30741,32120,53782,32398,-4213,918,-723,21,-1,27,70,460,-178,1,0,35,52,760,1,53298,1
2,29476,30741,32117,53783,32423,-4219,918,-712,13,-10,34,47,477,-163,1,0,35,52,800,1,53298,1
2,29490,30743,32121,53784,32446,-4227,916,-712,-9,-6,28,50,472,-162,1,0,35,52,840,1,53298,1
2,29477,30740,32115,53785,32471,-4206,916,-708,-3,-17,18,57,475,-171,1,0,35,52,880,1,53298,1
2,29498,30743,32130,53786,32495,-4217,910,-724,7,-21,17,57,465,-171,1,0,35,52,920,1,53298,1
2,29488,30742,32126,53787,32520,-4217,915,-715,14,-10,11,50,466,-168,1,0,35,52,960,1,53298,1
1,29490,30742,32125,53788,0,-4201,922,-721,8,11,16,63,477,-167,1,0,35,53,0,0,53298,1
2,29510,30745,32130,53789,31514,-4209,917,-727,10,7,18,57,473,-161,1,0,35,53,40,0,53298,1
2,29499,30744,32124,53790,31538,-4207,915,-722,14,4,24,62,470,-172,1,0,35,53,80,0,53298,1
2,29495,30742,32127,53791,31563,-4208,921,-709,4,-15,28,58,464,-174,1,0,35,53,120,0,53298,1
2,29516,30742,32127,53792,31587,-4218,904,-713,0,-16,30,59,467,-163,1,0,35,53,160,0,53298,1
2,29503,30743,32127,53793,31611,-4210,923,-709,7,-8,23,68,462,-174,1,0,35,53,200,0,53298,1
2,29463,30744,32125,53794,31635,-4217,922,-725,8,-7,21,57,473,-163,1,0,35,53,240,0,53298,1
2,29457,30743,32127,53795,31659,-4215,918,-730,8,-11,19,51,459,-161,1,0,35,53,280,0,53298,1
2,29479,30741,32124,53796,31683,-4213,915,-728,6,-8,12,60,460,-168,1,0,35,53,320,0,53298,1
2,29492,30741,32130,53797,31707,-4202,927,-714,12,-8,17,59,465,-169,1,0,35,53,360,0,53298,1
2,29497,30744,32122,53798,31731,-4211,914,-725,16,6,34,57,465,-169,1,0,35,53,400,0,53298,1
2,29500,30743,32128,53799,31755,-4204,922,-716,11,6,23,58,460,-164,1,0,35,53,440,0,53298,1
2,29485,30744,32123,53800,31779,-4206,914,-707,8,-7,19,57,467,-167,1,0,35,53,480,0,53298,1
2,29476,30742,32121,53801,31803,-4211,914,-726,5,-12,16,50,470,-162,1,0,35,53,520,0,53298,1
2,29477,30743,32117,53802,31828,-4206,919,-714,6,-16,26,53,473,-167,1,0,35,53,560,0,53298,1
2,29485,30743,32126,53803,31853,-4221,914,-712,1,-1,30,54,466,-162,1,0,35,53,600,0,53298,1
2,29479,30744,32124,53804,31878,-4215,917,-713,3,6,20,57,463,-171,1,0,35,53,640,0,53298,1
2,29488,30744,32132,53805,31903,-4229,907,-732,5,13,18,62,472,-170,1,0,35,53,680,0,53298,1
2,29473,30742,32120,53806,31928,-4221,915,-716,22,0,15,50,466,-166,1,0,35,53,720,0,53298,1
2,29491,30743,32128,53807,31952,-4215,923,-717,10,-8,17,58,470,-176,1,0,35,53,760,0,53298,1
2,29493,30742,32129,53808,31976,-4227,919,-713,-14,-3,29,57,471,-159,1,0,35,53,800,0,53298,1
2,29474,30742,32129,53809,32000,-4204,924,-719,3,-11,27,54,470,-172,1,0,35,53,840,0,53298,1
2,29490,30742,32123,53810,32023,-4215,919,-720,8,-17,30,54,474,-164,1,0,35,53,880,0,53298,1
2,29444,30741,32130,53811,32047,-4217,913,-721,1,-1,29,58,470,-162,1,0,35,53,920,0,53298,1
2,29450,30741,32123,53812,32070,-4218,911,-737,1,-4,16,60,462,-158,1,0,35,53,960,0,53298,1
1,29455,30742,32127,53813,0,-4225,916,-706,6,-7,15,54,468,-160,1,0,35,54,0,0,53298,1
2,29442,30739,32127,53814,31069,-4216,909,-724,11,-5,13,58,464,-162,1,0,35,54,40,0,53298,1
2,29431,30740,32118,53815,31092,-4220,914,-724,14,-1,19,56,464,-166,1,0,35,54,80,0,53298,1
2,29436,30742,32133,53816,31117,-4210,909,-723,-8,-11,20,58,474,-156,1,0,35,54,120,0,53298,1
2,29432,30744,32129,53817,31141,-4211,927,-724,0,-7,11,61,467,-165,1,0,35,54,160,0,53298,1
2,29439,30742,32135,53818,31166,-4212,920,-714,30,-8,8,70,462,-170,1,0,35,54,200,0,53298,1
2,29424,30742,32121,53819,31191,-4228,914,-709,4,1,10,63,469,-173,1,0,35,54,240,0,53298,1
2,29436,30743,32125,53820,31216,-4201,913,-711,5,-7,23,60,466,-180,1,0,35,54,280,0,53298,1
2,29421,30741,32122,53821,31241,-4211,919,-713,13,-1,25,47,461,-161,1,0,35,54,320,0,53298,1
2,29444,30742,32126,53822,31265,-4205,922,-730,3,-3,16,53,469,-165,1,0,35,54,360,0,53298,1
2,29435,30742,32124,53823,31289,-4204,924,-725,-8,-1,15,58,476,-164,1,0,35,54,400,0,53298,1
2,29438,30743,32127,53824,31314,-4224,902,-716,3,-10,19,56,468,-166,1,0,35,54,440,0,53298,1
2,29435,30745,32128,53825,31338,-4214,932,-715,17,-6,19,54,470,-168,1,0,35,54,480,0,53298,1
2,29421,30743,32130,53826,31361,-4208,923,-722,7,-4,21,48,472,-156,1,0,35,54,520,0,53298,1
2,29444,30743,32127,53827,31385,-4206,917,-713,11,3,27,50,464,-174,1,0,35,54,560,0,53298,1
2,29441,30744,32128,53828,31408,-4222,920,-719,12,8,23,64,464,-176,1,0,35,54,600,0,53298,1
2,29455,30745,32116,53829,31433,-4205,920,-715,10,-1,16,54,470,-168,1,0,35,54,640,0,53298,1
2,29446,30745,32119,53830,31458,-4200,921,-716,-2,-8,13,62,470,-166,1,0,35,54,680,0,53298,1
2,29434,30745,32123,53831,31481,-4213,914,-718,5,-10,19,59,463,-177,1,0,35,54,720,0,53298,1
2,29476,30745,32117,53832,31506,-4212,919,-725,2,-10,23,56,458,-158,1,0,35,54,760,0,53298,1
2,29498,30742,32128,53833,31530,-4211,922,-726,14,-10,15,57,467,-173,1,0,35,54,800,0,53298,1
2,29516,30743,32118,53834,31554,-4209,928,-719,-4,2,25,56,466,-176,1,0,35,54,840,0,53298,1
2,29535,30742,32127,53835,31579,-4214,925,-718,13,5,11,52,466,-166,1,0,35,54,880,0,53298,1
2,29556,30745,32123,53836,31603,-4216,932,-723,23,5,12,51,469,-163,1,0,35,54,920,0,53298,1
2,29525,30746,32132,53837,31627,-4207,918,-716,3,-7,9,52,466,-170,1,0,35,54,960,0,53298,1
1,29505,30744,32127,53838,0,-4209,913,-713,-9,-16,19,51,461,-163,1,0,35,55,0,1,53298,1
2,29521,30746,32120,53839,30625,-4225,923,-714,1,-9,20,52,466,-166,1,0,35,55,40,1,53298,1
2,29520,30743,32118,53840,30649,-4225,912,-729,14,-15,18,58,468,-174,1,0,35,55,80,1,53298,1
2,29519,30742,32120,53841,30672,-4225,905,-728,2,-8,23,54,472,-174,1,0,35,55,120,1,53298,1
2,29547,30744,32130,53842,30696,-4200,917,-716,8,3,20,59,469,-169,1,0,35,55,160,1,53298,1
2,29524,30743,32124,53843,30720,-4212,916,-717,7,3,18,42,470,-166,1,0,35,55,200,1,53298,1
2,29518,30742,32113,53844,30744,-4200,923,-719,2,-8,22,57,469,-165,1,0,35,55,240,1,53298,1
2,29515,30740,32113,53845,30768,-4218,915,-715,15,-11,20,59,473,-171,1,0,35,55,280,1,53298,1
2,29543,30741,32116,53846,30792,-4203,918,-724,12,-9,17,59,461,-171,1,0,35,55,320,1,53298,1
2,29530,30743,32128,53847,30815,-4211,924,-705,5,-3,20,61,465,-171,1,0,35,55,360,1,53298,1
2,29554,30744,32125,53848,30839,-4217,920,-731,12,-4,24,53,467,-163,1,0,35,55,400,1,53298,1
2,29554,30744,32121,53849,30863,-4217,917,-722,11,-7,21,56,470,-164,1,0,35,55,440,1,53298,1
2,29562,30749,32118,53850,30887,-4211,923,-722,6,-2,16,58,470,-178,1,0,35,55,480,1,53298,1
2,29549,30744,32112,53851,30911,-4199,931,-712,5,-6,13,53,471,-177,1,0,35,55,520,1,53298,1
2,29544,30745,32122,53852,30935,-4218,917,-723,10,-4,30,52,468,-166,1,0,35,55,560,1,53298,1
2,29560,30745,32121,53853,30959,-4212,915,-730,18,3,17,48,464,-162,1,0,35,55,600,1,53298,1
2,29544,30746,32124,53854,30983,-4218,902,-718,21,5,22,55,467,-167,1,0,35,55,640,1,53298,1
2,29533,30745,32130,53855,31008,-4220,915,-725,14,0,20,54,470,-166,1,0,35,55,680,1,53298,1
2,29534,30747,32127,53856,31032,-4217,905,-721,6,-11,17,63,471,-167,1,0,35,55,720,1,53298,1
2,29550,30747,32132,53857,31057,-4215,915,-725,-6,-4,26,55,465,-159,1,0,35,55,760,1,53298,1
2,29541,30747,32128,53858,31081,-4211,922,-706,7,-15,15,52,472,-168,1,0,35,55,800,1,53298,1
2,29526,30745,32124,53859,31105,-4224,913,-716,7,-8,23,60,470,-172,1,0,35,55,840,1,53298,1
2,29527,30745,32126,53860,31129,-4211,921,-711,7,-1,20,61,461,-171,1,0,35,55,880,1,53298,1
2,29540,30746,32123,53861,31154,-4220,923,-715,-2,0,19,64,464,-172,1,0,35,55,920,1,53298,1
2,29535,30743,32117,53862,31179,-4211,918,-723,8,-4,14,61,471,-165,1,0,35,55,960,1,53298,1
1,29547,30744,32122,53863,0,-4223,916,-712,20,-2,14,56,466,-172,1,0,35,56,0,0,53298,1
2,29530,30746,32124,53864,30181,-4215,916,-720,3,-4,20,56,468,-166,1,0,35,56,40,0,53298,1
2,29541,30742,32119,53865,30206,-4218,920,-723,-3,-4,26,58,472,-174,1,0,35,56,80,0,53298,1
2,29534,30745,32119,53866,30231,-4206,927,-724,5,-9,19,52,470,-160,1,0,35,56,120,0,53298,1
2,29543,30745,32132,53867,30256,-4220,910,-717,9,-16,17,60,464,-166,1,0,35,56,160,0,53298,1
2,29539,30746,32134,53868,30281,-4221,920,-714,1,-10,12,52,466,-168,1,0,35,56,200,0,53298,1
2,29551,30746,32130,53869,30306,-4215,906,-728,6,-8,9,58,460,-162,1,0,35,56,240,0,53298,1
2,29550,30746,32128,53870,30330,-4225,915,-707,14,3,20,51,463,-159,1,0,35,56,280,0,53298,1
2,29535,30746,32123,53871,30355,-4207,923,-729,17,-8,13,57,467,-157,1,0,35,56,320,0,53298,1
2,29520,30743,32124,53872,30378,-4203,920,-719,8,1,14,62,462,-172,1,0,35,56,360,0,53298,1
2,29534,30743,32125,53873,30401,-4215,922,-714,15,-2,23,62,466,-178,1,0,35,56,400,0,53298,1
2,29532,30746,32119,53874,30425,-4216,918,-723,13,-12,27,51,465,-169,1,0,35,56,440,0,53298,1
2,29535,30744,32122,53875,30449,-4209,919,-710,-13,-1,27,53,471,-167,1,0,35,56,480,0,53298,1
2,29532,30742,32127,53876,30473,-4222,909,-707,2,-13,14,61,467,-171,1,0,35,56,520,0,53298,1
2,29531,30747,32120,53877,30497,-4213,926,-723,9,-7,17,62,474,-152,1,0,35,56,560,0,53298,1
2,29532,30747,32121,53878,30520,-4206,924,-710,17,0,20,59,469,-163,1,0,35,56,600,0,53298,1
2,29533,30750,32123,53879,30544,-4216,918,-719,5,-3,13,54,470,-168,1,0,35,56,640,0,53298,1
2,29536,30748,32129,53880,30567,-4220,908,-726,14,-13,20,56,464,-166,1,0,35,56,680,0,53298,1
2,29523,30746,32125,53881,30591,-4216,911,-720,18,-4,18,51,467,-169,1,0,35,56,720,0,53298,1
2,29534,30752,32124,53882,30614,-4206,927,-719,1,-8,15,59,467,-167,1,0,35,56,760,0,53298,1
2,29536,30750,32125,53883,30638,-4209,917,-718,4,-8,25,56,468,-170,1,0,35,56,800,0,53298,1
2,29544,30753,32119,53884,30662,-4205,923,-715,10,-11,28,60,478,-168,1,0,35,56,840,0,53298,1
2,29532,30753,32122,53885,30685,-4210,928,-703,12,-7,23,57,461,-159,1,0,35,56,880,0,53298,1
2,29524,30753,32126,53886,30707,-4213,919,-716,-3,-13,18,53,467,-169,1,0,35,56,920,0,53298,1
2,29537,30751,32118,53887,30730,-4212,921,-723,7,1,14,65,463,-163,1,0,35,56,960,0,53298,1
1,29529,30750,32117,53888,0,-4217,912,-718,14,-2,19,57,463,-169,1,0,35,57,0,1,53298,1
2,29523,30751,32124,53889,29737,-4208,911,-717,12,-2,26,54,462,-172,1,0,35,57,40,1,53298,1
2,29525,30755,32117,53890,29761,-4208,925,-725,13,3,17,58,470,-172,1,0,35,57,80,1,53298,1
2,29523,30756,32117,53891,29785,-4210,911,-730,17,6,14,54,474,-172,1,0,35,57,120,1,53298,1
2,29507,30754,32110,53892,29809,-4213,919,-720,19,-8,24,62,480,-162,1,0,35,57,160,1,53298,1
2,29495,30752,32117,53893,29833,-4211,924,-708,4,-4,27,53,467,-165,1,0,35,57,200,1,53298,1
2,29495,30753,32119,53894,29858,-4202,927,-709,0,-10,24,61,469,-171,1,0,35,57,240,1,53298,1
2,29483,30752,32110,53895,29882,-4214,911,-715,7,-7,12,57,461,-173,1,0,35,57,280,1,53298,1
2,29500,30753,32116,53896,29907,-4212,921,-725,15,-6,19,56,466,-160,1,0,35,57,320,1,53298,1
2,29455,30753,32113,53897,29931,-4218,912,-728,11,-11,25,51,467,-165,1,0,35,57,360,1,53298,1
2,29490,30753,32121,53898,29955,-4215,909,-718,-2,-14,18,51,471,-175,1,0,35,57,400,1,53298,1
2,29455,30753,32127,53899,29979,-4210,924,-708,-2,-24,16,58,478,-168,1,0,35,57,440,1,53298,1
2,29485,30753,32119,53900,30003,-4205,926,-713,8,-26,19,64,464,-174,1,0,35,57,480,1,53298,1
2,29455,30751,32124,53901,30027,-4228,902,-703,19,-5,25,52,466,-166,1,0,35,57,520,1,53298,1
2,29479,30752,32122,53902,30050,-4216,915,-734,2,3,20,52,466,-158,1,0,35,57,560,1,53298,1
2,29490,30752,32131,53903,30074,-4218,917,-719,15,5,23,54,468,-160,1,0,35,57,600,1,53298,1
2,29472,30753,32123,53904,30097,-4224,909,-695,15,8,21,61,469,-163,1,0,35,57,640,1,53298,1
2,29425,30754,32122,53905,30120,-4222,906,-724,-1,-1,18,48,464,-164,1,0,35,57,680,1,53298,1
2,29494,30753,32126,53906,30143,-4213,925,-721,11,-6,20,60,474,-176,1,0,35,57,720,1,53298,1
2,29446,30754,32127,53907,30167,-4209,906,-715,16,-3,20,60,468,-168,1,0,35,57,760,1,53298,1
2,29460,30753,32119,53908,30190,-4205,928,-718,7,2,16,55,471,-159,1,0,35,57,800,1,53298,1
2,29480,30752,32121,53909,30213,-4226,903,-717,22,11,13,59,465,-159,1,0,35,57,840,1,53298,1
2,29494,30753,32127,53910,30238,-4216,907,-715,20,4,17,53,467,-173,1,0,35,57,880,1,53298,1
2,29481,30754,32124,53911,30261,-4219,908,-715,12,-9,29,55,469,-163,1,0,35,57,920,1,53298,1
2,29453,30752,32131,53912,30284,-4211,936,-724,10,-11,38,49,463,-157,1,0,35,57,960,1,53298,1
1,29483,30752,32129,53913,0,-4214,915,-713,7,-11,35,55,467,-173,1,0,35,58,0,1,53298,1
2,29425,30753,32127,53914,29293,-4211,925,-717,11,0,27,56,462,-164,1,0,35,58,40,1,53298,1
2,29442,30754,32134,53915,29317,-4212,929,-717,19,-1,22,51,475,-175,1,0,35,58,80,1,53298,1
2,29485,30754,32126,53916,29340,-4215,915,-722,15,-9,1,59,475,-157,1,0,35,58,120,1,53298,1
2,29454,30753,32125,53917,29363,-4207,923,-723,6,-2,7,48,460,-158,1,0,35,58,160,1,53298,1
2,29446,30753,32127,53918,29387,-4211,928,-711,30,0,16,55,465,-167,1,0,35,58,200,1,53298,1
2,29464,30755,32129,53919,29410,-4209,910,-726,36,25,29,57,469,-171,1,0,35,58,240,1,53298,1
2,29436,30754,32118,53920,29434,-4219,923,-726,12,18,22,58,464,-168,1,0,35,58,280,1,53298,1
2,29455,30753,32128,53921,29459,-4196,915,-722,-7,0,26,50,466,-168,1,0,35,58,320,1,53298,1
2,29468,30754,32127,53922,29483,-4221,909,-721,3,-19,20,62,464,-164,1,0,35,58,360,1,53298,1
2,29462,30753,32132,53923,29508,-4199,922,-724,4,-19,19,53,457,-165,1,0,35,58,400,1,53298,1
2,29465,30754,32139,53924,29532,-4219,909,-726,-4,-6,14,60,472,-170,1,0,35,58,440,1,53298,1
2,29450,30752,32136,53925,29557,-4231,913,-730,-5,12,22,52,462,-168,1,0,35,58,480,1,53298,1
2,29447,30754,32127,53926,29580,-4220,925,-729,21,-5,18,60,466,-172,1,0,35,58,520,1,53298,1
2,29462,30751,32128,53927,29603,-4224,903,-723,27,-7,11,58,464,-162,1,0,35,58,560,1,53298,1
2,29446,30751,32127,53928,29626,-4222,899,-715,0,-8,20,52,466,-164,1,0,35,58,600,1,53298,1
2,29464,30750,32132,53929,29649,-4208,916,-704,-7,-7,32,57,469,-161,1,0,35,58,640,1,53298,1
2,29498,30750,32132,53930,29673,-4217,915,-712,-3,-21,39,53,473,-167,1,0,35,58,680,1,53298,1
2,29514,30750,32131,53931,29697,-4216,923,-713,3,-23,29,49,463,-159,1,0,35,58,720,1,53298,1
2,29524,30751,32122,53932,29721,-4212,920,-737,-28,-29,26,56,462,-170,1,0,35,58,760,1,53298,1
2,29603,30750,32137,53933,29745,-4220,915,-723,1,-25,21,54,470,-166,1,0,35,58,800,1,53298,1
2,29530,30749,32131,53934,29769,-4209,924,-709,15,-24,12,56,468,-166,1,0,35,58,840,1,53298,1
2,29491,30749,32121,53935,29793,-4195,924,-726,5,-1,18,55,467,-169,1,0,35,58,880,1,53298,1
2,29519,30751,32130,53936,29817,-4219,922,-723,10,8,27,58,462,-168,1,0,35,58,920,1,53298,1
2,29492,30753,32134,53937,29840,-4204,918,-726,26,9,28,57,467,-175,1,0,35,58,960,1,53298,1
1,29495,30749,32129,53938,0,-4202,920,-714,11,2,15,52,470,-178,1,0,35,59,0,0,53298,1
2,29490,30751,32133,53939,28850,-4208,924,-719,0,-7,14,49,467,-175,1,0,35,59,40,0,53298,1
2,29490,30748,32126,53940,28874,-4205,919,-719,4,-12,14,58,470,-172,1,0,35,59,80,0,53298,1
2,29497,30752,32126,53941,28897,-4214,908,-707,19,-11,5,58,464,-170,1,0,35,59,120,0,53298,1
2,29492,30752,32128,53942,28921,-4216,918,-722,18,10,13,63,465,-167,1,0,35,59,160,0,53298,1
2,29468,30750,32133,53943,28944,-4213,917,-721,19,21,15,56,472,-170,1,0,35,59,200,0,53298,1
2,29490,30752,32126,53944,28967,-4212,907,-729,28,9,20,55,469,-163,1,0,35,59,240,0,53298,1
2,29489,30748,32137,53945,28990,-4220,910,-717,12,-10,15,46,464,-180,1,0,35,59,280,0,53298,1
2,29496,30750,32127,53946,29013,-4228,906,-719,-2,-14,30,51,461,-161,1,0,35,59,320,0,53298,1
2,29481,30750,32128,53947,29035,-4203,925,-722,-13,-30,28,58,476,-164,1,0,35,59,360,0,53298,1
2,29484,30751,32127,53948,29059,-4209,911,-717,-5,-23,20,55,471,-171,1,0,35,59,400,0,53298,1
2,29480,30752,32130,53949,29082,-4222,920,-714,-8,-8,23,59,475,-167,1,0,35,59,440,0,53298,1
2,29465,30752,32134,53950,29105,-4208,928,-710,7,-18,15,53,457,-167,1,0,35,59,480,0,53298,1
2,29473,30750,32130,53951,29127,-4216,925,-712,8,-1,12,59,469,-169,1,0,35,59,520,0,53298,1
2,29473,30753,32134,53952,29150,-4215,910,-727,24,1,16,58,470,-170,1,0,35,59,560,0,53298,1
2,29483,30754,32137,53953,29173,-4213,918,-712,17,0,16,53,463,-161,1,0,35,59,600,0,53298,1
2,29496,30754,32128,53954,29197,-4219,901,-723,3,4,19,58,464,-170,1,0,35,59,640,0,53298,1
2,29490,30752,32133,53955,29221,-4212,921,-715,9,-9,15,67,467,-161,1,0,35,59,680,0,53298,1
2,29524,30752,32129,53956,29245,-4214,911,-719,1,-12,24,48,472,-164,1,0,35,59,720,0,53298,1
2,29507,30750,32130,53957,29268,-4208,918,-709,8,-13,25,52,462,-170,1,0,35,59,760,0,53298,1
2,29497,30751,32133,53958,29292,-4220,905,-710,8,-8,17,57,465,-175,1,0,35,59,800,0,53298,1
2,29487,30747,32125,53959,29316,-4209,926,-705,17,-8,20,59,467,-173,1,0,35,59,840,0,53298,1
2,29478,30748,32132,53960,29341,-4206,924,-722,12,-5,19,52,476,-168,1,0,35,59,880,0,53298,1
2,29446,30749,32126,53961,29366,-4212,914,-713,26,-3,18,56,468,-156,1,0,35,59,920,0,53298,1
2,29457,30748,32122,53962,29390,-4204,916,-732,12,-5,13,57,465,-169,1,0,35,59,960,0,53298,1
1,29487,30750,32124,53963,0,-4219,908,-716,-1,-15,20,61,461,-157,1,0,36,0,0,1,53298,1
2,29505,30748,32124,53964,28408,-4224,908,-716,-3,-17,29,57,465,-169,1,0,36,0,40,1,53298,1
2,29482,30749,32128,53965,28432,-4212,926,-709,11,-14,27,52,474,-162,1,0,36,0,80,1,53298,1
2,29474,30749,32125,53966,28457,-4208,909,-715,10,2,21,59,463,-163,1,0,36,0,120,1,53298,1
2,29474,30748,32125,53967,28481,-4218,911,-721,6,10,15,57,469,-165,1,0,36,0,160,1,53298,1
2,29473,30749,32127,53968,28506,-4213,908,-717,16,-3,14,51,471,-163,1,0,36,0,200,1,53298,1
2,29477,30747,32126,53969,28530,-4207,932,-705,9,-6,20,44,466,-174,1,0,36,0,240,1,53298,1
2,29492,30747,32117,53970,28555,-4218,918,-717,17,-8,28,54,468,-174,1,0,36,0,280,1,53298,1
2,29471,30748,32127,53971,28580,-4206,924,-722,4,-6,25,56,466,-172,1,0,36,0,320,1,53298,1
2,29525,30748,32121,53972,28605,-4208,922,-716,8,-6,21,64,468,-170,1,0,36,0,360,1,53298,1
2,29519,30749,32124,53973,28630,-4207,931,-724,20,-7,15,50,462,-172,1,0,36,0,400,1,53298,1
2,29537,30749,32118,53974,28654,-4206,907,-711,9,-4,14,54,472,-170,1,0,36,0,440,1,53298,1
2,29541,30747,32121,53975,28678,-4226,905,-735,7,0,20,61,471,-157,1,0,36,0,480,1,53298,1
2,29561,30749,32124,53976,28703,-4205,927,-710,7,6,16,58,466,-166,1,0,36,0,520,1,53298,1
2,29548,30750,32128,53977,28727,-4207,912,-721,9,-10,21,49,457,-173,1,0,36,0,560,1,53298,1
2,29533,30750,32128,53978,28750,-4214,920,-725,7,0,20,56,472,-168,1,0,36,0,600,1,53298,1
2,29538,30750,32125,53979,28774,-4222,906,-724,21,-6,24,62,472,-168,1,0,36,0,640,1,53298,1
2,29505,30751,32123,53980,28799,-4218,902,-720,14,-1,24,55,465,-161,1,0,36,0,680,1,53298,1
2,29532,30751,32133,53981,28824,-4221,914,-725,10,-12,23,56,472,-166,1,0,36,0,720,1,53298,1
2,29535,30750,32125,53982,28849,-4220,894,-721,-11,-10,19,56,462,-166,1,0,36,0,760,1,53298,1
2,29541,30751,32129,53983,28875,-4205,923,-729,-2,-14,16,54,478,-172,1,0,36,0,800,1,53298,1
2,29543,30750,32123,53984,28899,-4213,916,-725,12,-6,17,56,468,-170,1,0,36,0,840,1,53298,1
2,29550,30751,32124,53985,28925,-4220,910,-720,10,0,15,59,471,-161,1,0,36,0,880,1,53298,1
2,29565,30750,32124,53986,28950,-4223,913,-723,11,-6,13,51,465,-169,1,0,36,0,920,1,53298,1
2,29566,30751,32126,53987,28975,-4204,920,-724,-1,-6,20,56,464,-164,1,0,36,0,960,1,53298,1
1,29555,30751,32122,53988,0,-4228,917,-715,7,-10,25,60,474,-166,1,0,36,1,0,1,53298,1
2,29569,30750,32122,53989,27965,-4211,920,-720,6,-15,20,59,461,-167,1,0,36,1,40,1,53298,1
2,29570,30750,32120,53990,27990,-4219,922,-722,10,3,23,59,469,-167,1,0,36,1,80,1,53298,1
2,29596,30751,32127,53991,28015,-4210,915,-720,1,3,26,64,466,-168,1,0,36,1,120,1,53298,1
2,29610,30751,32135,53992,28040,-4214,919,-717,14,-2,17,60,474,-164,1,0,36,1,160,1,53298,1
2,29617,30750,32124,53993,28065,-4212,910,-717,13,-2,15,59,467,-163,1,0,36,1,200,1,53298,1
2,29615,30750,32131,53994,28090,-4207,919,-718,7,-4,18,58,464,-162,1,0,36,1,240,1,53298,1
2,29633,30752,32127,53995,28115,-4215,919,-716,3,5,20,61,475,-171,1,0,36,1,280,1,53298,1
2,29637,30750,32133,53996,28140,-4218,903,-721,10,-13,16,52,466,-170,1,0,36,1,320,1,53298,1
2,29627,30751,32121,53997,28165,-4213,920,-719,-1,-10,24,47,475,-171,1,0,36,1,360,1,53298,1
2,29632,30749,32120,53998,28190,-4210,912,-707,14,-11,18,55,469,-167,1,0,36,1,400,1,53298,1
2,29615,30750,32125,53999,28214,-4218,905,-709,11,-3,13,55,465,-175,1,0,36,1,440,1,53298,1
2,29590,30749,32125,54000,28238,-4224,916,-724,12,2,14,52,464,-166,1,0,36,1,480,1,53298,1
2,29616,30750,32125,54001,28262,-4218,909,-718,8,0,15,51,475,-159,1,0,36,1,520,1,53298,1
2,29629,30753,32123,54002,28286,-4224,909,-721,1,-8,22,59,465,-169,1,0,36,1,560,1,53298,1
2,29613,30750,32124,54003,28311,-4208,909,-717,12,-13,14,56,472,-166,1,0,36,1,600,1,53298,1
2,29607,30752,32127,54004,28335,-4214,921,-718,-14,-4,16,49,461,-163,1,0,36,1,640,1,53298,1
2,29633,30750,32118,54005,28360,-4215,917,-721,-5,-7,17,57,459,-169,1,0,36,1,680,1,53298,1
2,29616,30751,32125,54006,28385,-4228,904,-719,4,5,25,61,471,-169,1,0,36,1,720,1,53298,1
2,29611,30750,32127,54007,28409,-4218,917,-719,12,-2,19,62,474,-168,1,0,36,1,760,1,53298,1
2,29615,30750,32126,54008,28433,-4220,912,-718,20,-5,22,55,467,-175,1,0,36,1,800,1,53298,1
2,29609,30751,32126,54009,28457,-4213,920,-713,19,3,22,53,461,-165,1,0,36,1,840,1,53298,1
2,29597,30751,32127,54010,28481,-4212,921,-708,12,7,19,60,474,-170,1,0,36,1,880,1,53298,1
2,29609,30751,32125,54011,28505,-4227,908,-722,5,-3,17,48,472,-156,1,0,36,1,920,1,53298,1
2,29598,30752,32124,54012,28530,-4204,916,-728,11,-15,22,54,470,-174,1,0,36,1,960,1,53298,1
1,29587,30752,32128,54013,0,-4217,912,-715,14,-3,18,71,467,-167,1,0,36,2,0,0,53298,1
2,29590,30750,32126,54014,27523,-4205,926,-710,4,0,22,60,464,-168,1,0,36,2,40,0,53298,1
2,29585,30752,32117,54015,27548,-4227,912,-730,5,-2,18,57,467,-173,1,0,36,2,80,0,53298,1
2,29593,30750,32128,54016,27573,-4218,904,-726,13,-3,22,53,471,-157,1,0,36,2,120,0,53298,1
2,29591,30750,32127,54017,27597,-4220,924,-699,11,-1,18,56,474,-158,1,0,36,2,160,0,53298,1
2,29585,30750,32130,54018,27622,-4201,932,-718,11,-4,15,56,464,-170,1,0,36,2,200,0,53298,1
2,29596,30751,32128,54019,27647,-4220,903,-714,7,-4,12,62,462,-170,1,0,36,2,240,0,53298,1
2,29585,30750,32129,54020,27672,-4220,912,-732,17,-6,21,61,461,-169,1,0,36,2,280,0,53298,1
2,29562,30752,32127,54021,27696,-4215,918,-709,4,-13,31,62,472,-156,1,0,36,2,320,0,53298,1
2,29575,30751,32129,54022,27721,-4218,918,-724,-1,-5,27,48,462,-166,1,0,36,2,360,0,53298,1
2,29573,30750,32121,54023,27745,-4207,907,-708,6,-17,23,53,459,-161,1,0,36,2,400,0,53298,1
2,29551,30752,32118,54024,27770,-4226,907,-715,11,3,16,53,469,-159,1,0,36,2,440,0,53298,1
2,29569,30750,32117,54025,27795,-4216,923,-701,10,2,15,57,467,-175,1,0,36,2,480,0,53298,1
2,29568,30750,32125,54026,27820,-4207,918,-719,-2,5,13,50,468,-168,1,0,36,2,520,0,53298,1
2,29568,30750,32120,54027,27844,-4218,909,-722,12,-13,17,55,465,-163,1,0,36,2,560,0,53298,1
2,29524,30749,32118,54028,27868,-4212,920,-717,13,-8,30,67,463,-177,1,0,36,2,600,0,53298,1
2,29534,30749,32121,54029,27892,-4206,932,-715,-3,-7,26,56,464,-176,1,0,36,2,640,0,53298,1
2,29531,30750,32132,54030,27917,-4217,909,-723,-3,2,25,59,463,-165,1,0,36,2,680,0,53298,1
2,29529,30752,32127,54031,27941,-4200,916,-720,14,-7,17,55,461,-163,1,0,36,2,720,0,53298,1
2,29515,30750,32126,54032,27965,-4208,918,-725,8,-5,20,60,464,-172,1,0,36,2,760,0,53298,1
2,29517,30751,32125,54033,27989,-4216,908,-718,3,-6,14,55,469,-173,1,0,36,2,800,0,53298,1
2,29499,30750,32125,54034,28014,-4217,917,-708,1,-4,16,60,470,-170,1,0,36,2,840,0,53298,1
2,29544,30751,32120,54035,28038,-4217,894,-716,0,-2,23,54,464,-168,1,0,36,2,880,0,53298,1
2,29524,30749,32130,54036,28063,-4214,910,-735,2,-4,25,50,466,-164,1,0,36,2,920,0,53298,1
2,29499,30749,32127,54037,28088,-4204,926,-720,6,-1,22,59,469,-173,1,0,36,2,960,0,53298,1
1,29510,30750,32125,54038,0,-4211,915,-720,19,-8,26,54,460,-168,1,0,36,3,0,1,53298,1
2,29519,30748,32120,54039,27079,-4214,918,-706,16,-6,19,58,478,-162,1,0,36,3,40,1,53298,1
2,29542,30750,32130,54040,27104,-4213,910,-723,12,-7,16,55,465,-163,1,0,36,3,80,1,53298,1
2,29533,30748,32126,54041,27128,-4207,924,-722,3,-3,22,53,461,-165,1,0,36,3,120,1,53298,1
2,29528,30747,32122,54042,27153,-4221,911,-719,14,-5,24,52,472,-172,1,0,36,3,160,1,53298,1
2,29516,30751,32117,54043,27176,-4206,923,-726,16,-2,28,60,472,-170,1,0,36,3,200,1,53298,1
2,29525,30750,32119,54044,27200,-4219,921,-724,8,-1,22,55,471,-157,1,0,36,3,240,1,53298,1
2,29512,30750,32117,54045,27224,-4221,906,-704,21,-6,23,55,469,-167,1,0,36,3,280,1,53298,1
2,29521,30751,32125,54046,27248,-4218,906,-711,-2,-9,22,50,462,-158,1,0,36,3,320,1,53298,1
2,29520,30749,32125,54047,27272,-4209,916,-723,0,-13,24,60,470,-168,1,0,36,3,360,1,53298,1
2,29533,30748,32123,54048,27296,-4208,922,-699,15,-3,20,55,465,-169,1,0,36,3,400,1,53298,1
2,29458,30749,32130,54049,27320,-4214,925,-714,17,-14,15,58,460,-170,1,0,36,3,440,1,53298,1
2,29437,30747,32126,54050,27344,-4224,909,-709,11,1,23,55,473,-173,1,0,36,3,480,1,53298,1
2,29433,30745,32121,54051,27369,-4222,907,-731,16,5,27,50,464,-170,1,0,36,3,520,1,53298,1
2,29436,30746,32123,54052,27394,-4206,916,-727,-1,4,28,54,468,-168,1,0,36,3,560,1,53298,1
2,29440,30748,32123,54053,27419,-4217,912,-719,3,-9,26,53,461,-165,1,0,36,3,600,1,53298,1
2,29437,30746,32132,54054,27444,-4205,923,-707,11,-15,16,54,460,-168,1,0,36,3,640,1,53298,1
2,29441,30747,32125,54055,27468,-4204,916,-713,6,-2,22,57,473,-163,1,0,36,3,680,1,53298,1
2,29428,30744,32130,54056,27493,-4219,907,-725,14,6,18,51,463,-167,1,0,36,3,720,1,53298,1
2,29431,30744,32119,54057,27517,-4221,916,-725,28,7,18,51,469,-159,1,0,36,3,760,1,53298,1
2,29424,30744,32121,54058,27542,-4198,914,-712,9,4,13,61,469,-169,1,0,36,3,800,1,53298,1
2,29418,30744,32133,54059,27566,-4221,903,-717,6,-9,22,48,468,-174,1,0,36,3,840,1,53298,1
2,29415,30745,32124,54060,27590,-4209,917,-721,2,-20,25,56,462,-168,1,0,36,3,880,1,53298,1
2,29421,30745,32128,54061,27615,-4215,913,-710,7,-15,31,56,460,-164,1,0,36,3,920,1,53298,1
2,29410,30743,32122,54062,27638,-4211,913,-717,-11,2,25,56,466,-160,1,0,36,3,960,1,53298,1
1,29422,30745,32117,54063,0,-4227,910,-725,8,3,31,55,463,-167,1,0,36,4,0,0,53298,1
2,29420,30747,32125,54064,26636,-4204,924,-715,11,-8,26,58,464,-172,1,0,36,4,40,0,53298,1
2,29456,30746,32120,54065,26660,-4213,924,-715,20,-6,21,57,467,-165,1,0,36,4,80,0,53298,1
2,29429,30747,32122,54066,26684,-4216,923,-721,19,7,24,56,462,-166,1,0,36,4,120,0,53298,1
2,29432,30745,32128,54067,26708,-4208,927,-711,3,-8,25,60,464,-172,1,0,36,4,160,0,53298,1
2,29449,30746,32117,54068,26732,-4221,915,-720,-1,-8,16,52,468,-158,1,0,36,4,200,0,53298,1
2,29439,30746,32117,54069,26757,-4216,909,-718,3,-15,12,60,466,-164,1,0,36,4,240,0,53298,1
2,29433,30745,32127,54070,26781,-4220,908,-704,9,-13,18,60,454,-170,1,0,36,4,280,0,53298,1
2,29431,30745,32120,54071,26806,-4217,922,-732,10,7,21,52,462,-164,1,0,36,4,320,0,53298,1
2,29425,30746,32133,54072,26830,-4227,909,-707,12,10,20,53,469,-151,1,0,36,4,360,0,53298,1
2,29443,30746,32126,54073,26854,-4218,925,-724,0,5,27,58,464,-170,1,0,36,4,400,0,53298,1
2,29479,30745,32120,54074,26879,-4207,922,-715,15,-16,19,61,473,-173,1,0,36,4,440,0,53298,1
2,29468,30746,32119,54075,26904,-4216,914,-723,19,-7,11,54,458,-164,1,0,36,4,480,0,53298,1
2,29483,30746,32117,54076,26929,-4211,924,-733,1,-12,14,57,471,-165,1,0,36,4,520,0,53298,1
2,29494,30747,32117,54077,26954,-4215,917,-715,9,-17,19,48,468,-162,1,0,36,4,560,0,53298,1
2,29459,30748,32129,54078,26979,-4210,918,-723,18,1,24,53,465,-169,1,0,36,4,600,0,53298,1
2,29496,30746,32118,54079,27004,-4215,921,-725,13,3,21,57,475,-165,1,0,36,4,640,0,53298,1
2,29445,30748,32120,54080,27029,-4199,920,-725,-5,-1,20,53,469,-155,1,0,36,4,680,0,53298,1
2,29452,30747,32129,54081,27053,-4227,912,-729,8,-8,8,50,466,-160,1,0,36,4,720,0,53298,1
2,29477,30746,32123,54082,27077,-4217,912,-723,4,-17,21,50,474,-168,1,0,36,4,760,0,53298,1
2,29453,30745,32119,54083,27102,-4211,920,-713,1,-8,20,58,468,-168,1,0,36,4,800,0,53298,1
2,29451,30745,32110,54084,27126,-4222,903,-715,7,-5,30,54,466,-166,1,0,36,4,840,0,53298,1
2,29469,30747,32125,54085,27150,-4206,924,-719,3,-4,26,43,469,-153,1,0,36,4,880,0,53298,1
2,29509,30747,32118,54086,27174,-4209,914,-729,7,-7,16,54,462,-170,1,0,36,4,920,0,53298,1
2,29485,30747,32133,54087,27199,-4214,919,-719,8,-7,17,61,465,-165,1,0,36,4,960,0,53298,1
1,29470,30742,32117,54088,0,-4225,910,-711,7,-11,19,57,467,-167,1,0,36,5,0,0,53298,1
2,29490,30746,32117,54089,26194,-4221,903,-719,15,-4,13,56,464,-162,1,0,36,5,40,0,53298,1
2,29475,30744,32124,54090,26219,-4210,921,-712,22,2,27,62,460,-172,1,0,36,5,80,0,53298,1
2,29460,30745,32117,54091,26243,-4218,919,-703,9,10,22,54,454,-172,1,0,36,5,120,0,53298,1
2,29457,30746,32124,54092,26267,-4217,909,-711,26,5,15,59,461,-163,1,0,36,5,160,0,53298,1
2,29471,30748,32136,54093,26289,-4213,905,-724,20,-4,10,62,472,-172,1,0,36,5,200,0,53298,1
2,29474,30748,32127,54094,26312,-4219,914,-722,9,-16,21,44,472,-162,1,0,36,5,240,0,53298,1
2,29473,30750,32125,54095,26336,-4208,921,-715,-1,-11,26,60,468,-164,1,0,36,5,280,0,53298,1
2,29465,30747,32128,54096,26360,-4212,920,-711,1,-12,18,57,465,-159,1,0,36,5,320,0,53298,1
2,29471,30750,32125,54097,26383,-4215,917,-709,-1,-7,17,60,468,-170,1,0,36,5,360,0,53298,1
2,29463,30748,32125,54098,26407,-4213,920,-717,11,-8,20,51,463,-157,1,0,36,5,400,0,53298,1
2,29458,30748,32129,54099,26430,-4214,918,-707,18,-5,20,62,470,-166,1,0,36,5,440,0,53298,1
2,29473,30751,32131,54100,26454,-4216,926,-722,0,0,13,58,472,-168,1,0,36,5,480,0,53298,1
2,29492,30751,32136,54101,26478,-4211,920,-723,9,-8,23,59,465,-173,1,0,36,5,520,0,53298,1
2,29476,30750,32136,54102,26502,-4231,907,-718,11,5,15,52,468,-158,1,0,36,5,560,0,53298,1
2,29495,30749,32142,54103,26525,-4214,912,-713,18,-15,23,58,466,-170,1,0,36,5,600,0,53298,1
2,29485,30750,32117,54104,26549,-4208,924,-721,10,-10,19,55,469,-165,1,0,36,5,640,0,53298,1
2,29472,30750,32131,54105,26573,-4220,911,-706,6,-8,18,67,465,-161,1,0,36,5,680,0,53298,1
2,29458,30747,32124,54106,26598,-4216,916,-713,0,3,19,62,464,-164,1,0,36,5,720,0,53298,1
2,29455,30749,32124,54107,26623,-4208,911,-711,13,-4,22,61,465,-167,1,0,36,5,760,0,53298,1
2,29468,30747,32120,54108,26647,-4216,919,-708,12,1,23,62,472,-174,1,0,36,5,800,0,53298,1
2,29462,30747,32121,54109,26672,-4214,922,-725,15,-9,10,50,470,-162,1,0,36,5,840,0,53298,1
2,29464,30747,32129,54110,26696,-4221,906,-715,19,-10,19,50,478,-160,1,0,36,5,880,0,53298,1
2,29466,30749,32129,54111,26720,-4213,922,-705,4,-8,19,52,478,-170,1,0,36,5,920,0,53298,1
2,29461,30747,32124,54112,26743,-4217,910,-709,-3,-12,21,66,472,-172,1,0,36,5,960,0,53298,1
1,29464,30748,32125,54113,0,-4226,909,-713,9,-2,27,55,465,-165,1,0,36,6,0,0,53298,1
2,29467,30749,32125,54114,25753,-4221,908,-715,-4,3,25,60,468,-174,1,0,36,6,40,0,53298,1
2,29481,30747,32125,54115,25778,-4213,924,-721,5,5,17,56,470,-172,1,0,36,6,80,0,53298,1
2,29482,30749,32125,54116,25802,-4215,910,-713,20,-4,15,59,471,-167,1,0,36,6,120,0,53298,1
2,29464,30749,32128,54117,25826,-4214,914,-733,10,-7,22,50,474,-168,1,0,36,6,160,0,53298,1
2,29478,30747,32120,54118,25850,-4217,930,-731,7,-5,21,51,469,-161,1,0,36,6,200,0,53298,1
2,29471,30749,32124,54119,25875,-4223,901,-712,11,-6,23,60,466,-170,1,0,36,6,240,0,53298,1
2,29456,30751,32129,54120,25899,-4226,909,-731,6,-6,27,56,458,-168,1,0,36,6,280,0,53298,1
2,29456,30749,32130,54121,25923,-4224,917,-713,5,-12,24,57,475,-169,1,0,36,6,320,0,53298,1
2,29446,30750,32127,54122,25948,-4223,929,-715,3,-12,15,59,465,-153,1,0,36,6,360,0,53298,1
2,29445,30747,32123,54123,25973,-4224,908,-714,14,-8,16,59,463,-171,1,0,36,6,400,0,53298,1
2,29455,30749,32133,54124,25997,-4218,904,-712,4,3,19,53,463,-165,1,0,36,6,440,0,53298,1
2,29443,30749,32130,54125,26021,-4229,909,-715,4,-6,18,61,465,-171,1,0,36,6,480,0,53298,1
2,29445,30748,32132,54126,26046,-4223,921,-724,12,-3,20,55,467,-173,1,0,36,6,520,0,53298,1
2,29438,30748,32118,54127,26069,-4200,930,-734,17,-4,12,57,469,-157,1,0,36,6,560,0,53298,1
2,29425,30746,32128,54128,26093,-4213,907,-714,6,-6,18,64,464,-164,1,0,36,6,600,0,53298,1
2,29442,30749,32126,54129,26116,-4213,922,-706,3,-7,27,63,471,-161,1,0,36,6,640,0,53298,1
2,29425,30747,32130,54130,26140,-4215,905,-703,-2,-11,14,55,465,-161,1,0,36,6,680,0,53298,1
2,29430,30748,32127,54131,26164,-4228,904,-712,7,-9,21,59,471,-173,1,0,36,6,720,0,53298,1
2,29407,30749,32127,54132,26187,-4221,909,-718,8,-9,17,58,472,-154,1,0,36,6,760,0,53298,1
2,29421,30749,32127,54133,26212,-4215,921,-717,8,-2,19,51,467,-165,1,0,36,6,800,0,53298,1
2,29402,30749,32117,54134,26235,-4226,915,-721,14,-13,18,58,468,-176,1,0,36,6,840,0,53298,1
2,29410,30749,32125,54135,26258,-4225,899,-732,-3,4,22,56,464,-170,1,0,36,6,880,0,53298,1
2,29415,30750,32128,54136,26281,-4216,906,-718,8,-13,19,56,468,-158,1,0,36,6,920,0,53298,1
2,29421,30748,32125,54137,26305,-4210,917,-707,9,-8,16,53,457,-175,1,0,36,6,960,0,53298,1
1,29419,30749,32129,54138,0,-4223,914,-736,5,-7,25,64,470,-170,1,0,36,7,0,1,53298,1
2,29432,30752,32127,54139,25309,-4227,900,-705,10,5,22,56,458,-168,1,0,36,7,40,1,53298,1
2,29431,30751,32128,54140,25333,-4220,907,-701,18,7,11,58,460,-164,1,0,36,7,80,1,53298,1
2,29463,30750,32123,54141,25357,-4224,898,-726,8,-10,15,55,469,-161,1,0,36,7,120,1,53298,1
2,29441,30753,32138,54142,25381,-4213,926,-720,4,-1,14,56,474,-172,1,0,36,7,160,1,53298,1
2,29425,30753,32131,54143,25404,-4210,912,-718,2,-9,14,61,467,-171,1,0,36,7,200,1,53298,1
2,29429,30752,32132,54144,25429,-4226,924,-714,12,-2,22,57,467,-161,1,0,36,7,240,1,53298,1
2,29438,30752,32135,54145,25453,-4222,905,-730,19,-2,11,61,471,-171,1,0,36,7,280,1,53298,1
2,29430,30750,32128,54146,25478,-4223,908,-718,11,6,13,49,463,-167,1,0,36,7,320,1,53298,1
2,29417,30750,32129,54147,25503,-4212,908,-714,20,-9,15,60,466,-172,1,0,36,7,360,1,53298,1
2,29450,30750,32131,54148,25528,-4208,920,-713,13,-9,23,49,471,-165,1,0,36,7,400,1,53298,1
2,29443,30750,32132,54149,25554,-4219,910,-722,-6,-4,21,59,461,-165,1,0,36,7,440,1,53298,1
2,29444,30749,32128,54150,25579,-4238,903,-715,8,-3,20,50,468,-170,1,0,36,7,480,1,53298,1
2,29446,30750,32120,54151,25605,-4213,922,-725,8,0,22,56,468,-168,1,0,36,7,520,1,53298,1
2,29435,30750,32126,54152,25628,-4221,916,-715,13,-11,21,68,472,-166,1,0,36,7,560,1,53298,1
2,29440,30749,32124,54153,25652,-4204,919,-726,2,0,21,55,471,-175,1,0,36,7,600,1,53298,1
2,29461,30749,32130,54154,25676,-4226,906,-712,10,-10,23,55,469,-161,1,0,36,7,640,1,53298,1
2,29469,30749,32125,54155,25701,-4213,909,-720,14,-4,22,63,465,-165,1,0,36,7,680,1,53298,1
2,29462,30748,32125,54156,25726,-4213,923,-725,11,-5,10,48,456,-156,1,0,36,7,720,1,53298,1
2,29452,30748,32133,54157,25750,-4226,911,-722,-5,-10,18,62,466,-170,1,0,36,7,760,1,53298,1
2,29496,30749,32128,54158,25775,-4220,908,-714,10,-11,24,51,465,-161,1,0,36,7,800,1,53298,1
2,29492,30750,32121,54159,25800,-4224,912,-725,12,-10,22,60,464,-172,1,0,36,7,840,1,53298,1
2,29490,30747,32128,54160,25825,-4220,918,-725,1,-1,17,59,469,-169,1,0,36,7,880,1,53298,1
2,29465,30750,32133,54161,25849,-4225,908,-708,-1,5,18,59,477,-165,1,0,36,7,920,1,53298,1
2,29448,30748,32130,54162,25873,-4220,906,-720,7,-10,19,61,471,-175,1,0,36,7,960,1,53298,1
1,29449,30750,32127,54163,0,-4214,911,-712,10,-8,17,53,473,-167,1,0,36,8,0,1,53298,1
2,29450,30750,32121,54164,24869,-4216,912,-708,2,1,24,53,475,-169,1,0,36,8,40,1,53298,1
2,29450,30750,32121,54165,24894,-4213,911,-723,8,-4,14,56,464,-170,1,0,36,8,80,1,53298,1
2,29462,30748,32124,54166,24919,-4217,909,-713,16,-5,27,51,467,-175,1,0,36,8,120,1,53298,1
2,29447,30749,32125,54167,24944,-4212,910,-728,12,-7,28,55,465,-171,1,0,36,8,160,1,53298,1
2,29446,30747,32117,54168,24968,-4217,909,-719,10,-3,26,55,469,-159,1,0,36,8,200,1,53298,1
2,29475,30749,32122,54169,24991,-4218,930,-735,-4,7,24,63,465,-169,1,0,36,8,240,1,53298,1
2,29464,30749,32126,54170,25015,-4206,916,-720,3,-5,15,56,466,-168,1,0,36,8,280,1,53298,1
2,29516,30750,32122,54171,25039,-4223,914,-717,6,-3,23,54,476,-160,1,0,36,8,320,1,53298,1
2,29491,30750,32129,54172,25062,-4224,912,-715,8,-3,20,49,469,-165,1,0,36,8,360,1,53298,1
2,29507,30750,32124,54173,25086,-4229,902,-715,5,-4,15,58,472,-170,1,0,36,8,400,1,53298,1
2,29498,30749,32126,54174,25110,-4206,922,-713,3,-17,22,57,469,-163,1,0,36,8,440,1,53298,1
2,29505,30750,32119,54175,25134,-4202,917,-713,16,-7,24,54,468,-166,1,0,36,8,480,1,53298,1
2,29499,30750,32129,54176,25159,-4227,908,-736,6,-1,25,55,463,-167,1,0,36,8,520,1,53298,1
2,29526,30750,32117,54177,25184,-4225,913,-717,-1,-6,21,55,469,-165,1,0,36,8,560,1,53298,1
2,29515,30747,32125,54178,25208,-4219,908,-716,8,-8,22,58,470,-162,1,0,36,8,600,1,53298,1
2,29556,30751,32129,54179,25233,-4223,911,-714,17,-7,16,61,473,-171,1,0,36,8,640,1,53298,1
2,29549,30750,32119,54180,25257,-4225,908,-720,7,-4,23,48,482,-158,1,0,36,8,680,1,53298,1
2,29541,30749,32119,54181,25281,-4224,913,-717,-2,-4,21,57,469,-167,1,0,36,8,720,1,53298,1
2,29561,30747,32117,54182,25306,-4226,915,-706,9,2,17,51,471,-175,1,0,36,8,760,1,53298,1
2,29574,30748,32120,54183,25330,-4214,901,-714,12,-3,20,58,476,-166,1,0,36,8,800,1,53298,1
2,29555,30750,32119,54184,25355,-4221,922,-726,4,4,27,51,467,-163,1,0,36,8,840,1,53298,1
2,29538,30748,32117,54185,25380,-4217,915,-711,15,-5,17,59,455,-169,1,0,36,8,880,1,53298,1
2,29584,30747,32120,54186,25404,-4214,904,-714,15,3,15,52,462,-152,1,0,36,8,920,1,53298,1
2,29566,30748,32126,54187,25428,-4208,919,-719,15,-2,16,58,472,-166,1,0,36,8,960,1,53298,1
1,29565,30749,32117,54188,0,-4219,901,-736,7,-4,24,57,463,-167,1,0,36,9,0,0,53298,1
2,29601,30747,32113,54189,24426,-4221,906,-732,1,-1,26,55,463,-167,1,0,36,9,40,0,53298,1
2,29593,30749,32118,54190,24449,-4217,913,-715,11,-6,17,46,470,-164,1,0,36,9,80,0,53298,1
2,29575,30747,32117,54191,24473,-4217,916,-717,1,-2,17,55,467,-165,1,0,36,9,120,0,53298,1
2,29628,30747,32118,54192,24496,-4217,904,-710,12,-2,22,53,469,-165,1,0,36,9,160,0,53298,1
2,29609,30746,32119,54193,24520,-4208,917,-721,1,-7,29,61,473,-167,1,0,36,9,200,0,53298,1
2,29507,30746,32111,54194,24544,-4216,917,-720,4,-15,17,55,469,-165,1,0,36,9,240,0,53298,1
2,29491,30746,32112,54195,24568,-4213,911,-716,9,-2,25,57,467,-169,1,0,36,9,280,0,53298,1
2,29506,30746,32121,54196,24592,-4207,917,-721,7,6,22,56,462,-158,1,0,36,9,320,0,53298,1
2,29496,30746,32110,54197,24616,-4212,926,-717,1,-3,25,59,463,-173,1,0,36,9,360,0,53298,1
2,29505,30746,32123,54198,24641,-4215,920,-723,19,-5,22,57,463,-167,1,0,36,9,400,0,53298,1
2,29465,30745,32116,54199,24666,-4216,914,-721,3,-6,22,52,464,-166,1,0,36,9,440,0,53298,1
2,29465,30746,32117,54200,24691,-4230,908,-713,-6,-6,16,56,476,-158,1,0,36,9,480,0,53298,1
2,29450,30747,32128,54201,24716,-4206,930,-725,4,-16,24,57,469,-165,1,0,36,9,520,0,53298,1
2,29485,30746,32118,54202,24741,-4204,928,-712,7,-3,21,52,468,-166,1,0,36,9,560,0,53298,1
2,29473,30748,32116,54203,24765,-4208,907,-713,5,6,27,57,465,-167,1,0,36,9,600,0,53298,1
2,29492,30748,32117,54204,24789,-4224,913,-724,8,5,29,60,464,-166,1,0,36,9,640,0,53298,1
2,29483,30747,32115,54205,24813,-4219,924,-723,21,-6,21,60,470,-172,1,0,36,9,680,0,53298,1
2,29464,30746,32111,54206,24837,-4208,911,-722,10,-12,14,58,468,-164,1,0,36,9,720,0,53298,1
2,29461,30748,32113,54207,24863,-4220,914,-722,-1,-10,18,59,471,-163,1,0,36,9,760,0,53298,1
2,29456,30747,32121,54208,24888,-4220,909,-715,5,-10,28,57,475,-165,1,0,36,9,800,0,53298,1
2,29463,30747,32117,54209,24913,-4201,919,-712,20,-1,30,62,470,-166,1,0,36,9,840,0,53298,1
2,29457,30747,32118,54210,24937,-4220,907,-715,10,8,31,57,467,-165,1,0,36,9,880,0,53298,1
2,29444,30747,32124,54211,24961,-4228,904,-733,13,13,26,48,466,-162,1,0,36,9,920,0,53298,1
2,29445,30746,32120,54212,24985,-4207,919,-718,9,-9,15,64,470,-168,1,0,36,9,960,0,53298,1
1,29451,30746,32117,54213,0,-4222,918,-729,-2,-13,12,55,465,-175,1,0,36,10,0,1,53298,1
2,29446,30747,32124,54214,23986,-4216,921,-705,18,-24,23,55,465,-173,1,0,36,10,40,1,53298,1
2,29455,30745,32121,54215,24010,-4222,921,-709,20,-11,20,57,469,-165,1,0,36,10,80,1,53298,1
2,29453,30747,32114,54216,24034,-4220,913,-719,5,15,23,56,470,-172,1,0,36,10,120,1,53298,1
2,29459,30743,32116,54217,24058,-4218,925,-728,11,10,21,57,465,-157,1,0,36,10,160,1,53298,1
2,29456,30748,32118,54218,24082,-4222,913,-700,16,-12,13,50,454,-162,1,0,36,10,200,1,53298,1
2,29452,30747,32117,54219,24106,-4231,904,-719,-3,-19,17,66,468,-166,1,0,36,10,240,1,53298,1
2,29446,30746,32114,54220,24130,-4205,916,-726,3,-12,13,56,462,-170,1,0,36,10,280,1,53298,1
2,29440,30748,32119,54221,24154,-4206,917,-727,19,-1,15,55,469,-171,1,0,36,10,320,1,53298,1
2,29429,30749,32121,54222,24179,-4216,917,-721,5,16,26,63,463,-161,1,0,36,10,360,1,53298,1
2,29430,30749,32120,54223,24203,-4209,912,-734,11,2,20,55,461,-171,1,0,36,10,400,1,53298,1
2,29436,30748,32117,54224,24228,-4211,910,-711,34,-11,19,59,463,-169,1,0,36,10,440,1,53298,1
2,29435,30747,32122,54225,24252,-4208,922,-710,8,-20,27,56,466,-166,1,0,36,10,480,1,53298,1
2,29439,30749,32119,54226,24277,-4225,904,-712,-5,-19,34,61,469,-163,1,0,36,10,520,1,53298,1
2,29433,30748,32122,54227,24302,-4213,917,-711,1,-10,19,61,481,-163,1,0,36,10,560,1,53298,1
2,29435,30747,32135,54228,24326,-4215,924,-729,-2,-7,18,59,467,-165,1,0,36,10,600,1,53298,1
2,29421,30748,32125,54229,24352,-4214,920,-725,7,-5,17,52,464,-164,1,0,36,10,640,1,53298,1
2,29431,30749,32129,54230,24377,-4218,913,-722,8,-5,14,55,465,-167,1,0,36,10,680,1,53298,1
2,29433,30748,32124,54231,24401,-4216,912,-725,6,-4,16,55,467,-169,1,0,36,10,720,1,53298,1
2,29435,30746,32118,54232,24426,-4219,901,-719,16,-3,17,48,470,-160,1,0,36,10,760,1,53298,1
2,29449,30749,32125,54233,24451,-4218,905,-711,7,-5,16,57,465,-159,1,0,36,10,800,1,53298,1
2,29439,30747,32115,54234,24476,-4213,914,-717,5,-4,21,69,459,-173,1,0,36,10,840,1,53298,1
2,29445,30747,32121,54235,24501,-4215,924,-719,2,-16,14,57,465,-161,1,0,36,10,880,1,53298,1
2,29447,30746,32123,54236,24526,-4207,913,-719,10,-17,18,56,470,-158,1,0,36,10,920,1,53298,1
2,29454,30744,32129,54237,24552,-4223,900,-708,5,-3,21,53,475,-161,1,0,36,10,960,1,53298,1
1,29446,30745,32120,54238,0,-4217,906,-701,5,-4,12,51,467,-171,1,0,36,11,0,0,53298,1
2,29464,30745,32117,54239,23544,-4213,913,-721,12,5,14,65,469,-165,1,0,36,11,40,0,53298,1
2,29464,30744,32113,54240,23569,-4225,914,-708,13,2,25,60,464,-166,1,0,36,11,80,0,53298,1
2,29463,30745,32121,54241,23594,-4217,911,-714,22,-7,10,51,467,-171,1,0,36,11,120,0,53298,1
2,29465,30744,32117,54242,23619,-4226,907,-727,9,-3,16,49,475,-163,1,0,36,11,160,0,53298,1
2,29447,30741,32108,54243,23643,-4218,906,-702,17,-5,16,68,470,-168,1,0,36,11,200,0,53298,1
2,29455,30744,32117,54244,23668,-4209,927,-720,-2,-4,26,64,468,-174,1,0,36,11,240,0,53298,1
2,29504,30744,32117,54245,23693,-4220,932,-724,1,-17,20,53,471,-171,1,0,36,11,280,0,53298,1
2,29504,30746,32113,54246,23717,-4219,907,-710,10,-13,21,65,459,-171,1,0,36,11,320,0,53298,1
2,29501,30745,32122,54247,23742,-4219,917,-724,18,-6,17,53,465,-163,1,0,36,11,360,0,53298,1
2,29511,30745,32123,54248,23766,-4227,914,-712,17,3,20,54,476,-170,1,0,36,11,400,0,53298,1
2,29462,30747,32110,54249,23791,-4220,907,-727,5,3,13,53,471,-165,1,0,36,11,440,0,53298,1
2,29461,30745,32118,54250,23816,-4232,917,-720,7,-15,16,51,469,-169,1,0,36,11,480,0,53298,1
2,29440,30745,32108,54251,23840,-4217,912,-732,18,-12,21,59,471,-169,1,0,36,11,520,0,53298,1
2,29459,30745,32111,54252,23865,-4212,916,-714,2,-4,23,57,469,-173,1,0,36,11,560,0,53298,1
2,29446,30746,32112,54253,23890,-4233,914,-736,-3,-1,21,56,466,-166,1,0,36,11,600,0,53298,1
2,29436,30745,32120,54254,23914,-4229,914,-710,10,-12,17,58,468,-170,1,0,36,11,640,0,53298,1
2,29459,30746,32115,54255,23939,-4227,898,-704,11,-9,15,53,469,-169,1,0,36,11,680,0,53298,1
2,29458,30746,32115,54256,23964,-4210,912,-715,-2,-1,14,55,473,-167,1,0,36,11,720,0,53298,1
2,29464,30743,32119,54257,23990,-4213,903,-708,13,-7,22,56,464,-170,1,0,36,11,760,0,53298,1
2,29465,30745,32114,54258,24014,-4205,926,-718,17,0,24,59,469,-177,1,0,36,11,800,0,53298,1
2,29474,30747,32119,54259,24039,-4222,909,-722,12,5,14,54,458,-170,1,0,36,11,840,0,53298,1
2,29472,30745,32108,54260,24063,-4232,900,-708,10,-4,21,62,466,-170,1,0,36,11,880,0,53298,1
2,29475,30743,32113,54261,24088,-4218,901,-712,21,-8,27,48,468,-158,1,0,36,11,920,0,53298,1
2,29485,30745,32115,54262,24114,-4217,915,-733,-1,-7,28,52,464,-176,1,0,36,11,960,0,53298,1
1,29473,30745,32108,54263,0,-4216,918,-725,-1,-11,13,60,462,-174,1,0,36,12,0,0,53298,1
2,29454,30741,32105,54264,23102,-4214,911,-715,3,-4,15,64,462,-180,1,0,36,12,40,0,53298,1
2,29437,30741,32116,54265,23126,-4207,927,-716,14,-9,18,56,474,-170,1,0,36,12,80,0,53298,1
2,29437,30741,32102,54266,23150,-4223,912,-713,8,-3,15,58,472,-160,1,0,36,12,120,0,53298,1
2,29471,30742,32109,54267,23174,-4223,911,-714,-1,-9,21,57,471,-161,1,0,36,12,160,0,53298,1
2,29457,30743,32110,54268,23199,-4223,909,-732,9,-15,20,42,472,-160,1,0,36,12,200,0,53298,1
2,29460,30743,32114,54269,23224,-4216,916,-705,8,-12,23,63,461,-173,1,0,36,12,240,0,53298,1
2,29453,30743,32117,54270,23247,-4206,927,-714,3,-2,30,61,469,-173,1,0,36,12,280,0,53298,1
2,29460,30746,32116,54271,23271,-4220,915,-710,7,-8,27,56,470,-172,1,0,36,12,320,0,53298,1
2,29435,30743,32121,54272,23295,-4218,919,-712,6,-12,9,55,471,-163,1,0,36,12,360,0,53298,1
2,29438,30746,32124,54273,23318,-4222,909,-723,1,-12,9,54,462,-162,1,0,36,12,400,0,53298,1
2,29455,30746,32117,54274,23342,-4218,922,-716,7,-7,20,57,467,-157,1,0,36,12,440,0,53298,1
2,29430,30746,32115,54275,23366,-4222,906,-702,17,-5,24,56,460,-170,1,0,36,12,480,0,53298,1
2,29418,30745,32115,54276,23391,-4226,901,-707,8,3,31,53,465,-171,1,0,36,12,520,0,53298,1
2,29424,30746,32109,54277,23416,-4203,925,-703,15,-1,20,57,467,-169,1,0,36,12,560,0,53298,1
2,29438,30746,32115,54278,23441,-4220,907,-713,16,4,16,57,469,-157,1,0,36,12,600,0,53298,1
2,29409,30746,32126,54279,23467,-4229,905,-712,19,-2,21,56,462,-170,1,0,36,12,640,0,53298,1
2,29428,30748,32113,54280,23492,-4211,917,-721,-7,-11,26,52,476,-166,1,0,36,12,680,0,53298,1
2,29426,30748,32118,54281,23516,-4208,923,-721,-6,-5,14,55,465,-161,1,0,36,12,720,0,53298,1
2,29420,30745,32112,54282,23541,-4213,910,-726,13,-18,19,57,463,-165,1,0,36,12,760,0,53298,1
2,29390,30745,32117,54283,23565,-4217,922,-731,5,-13,17,54,460,-168,1,0,36,12,800,0,53298,1
2,29420,30746,32118,54284,23590,-4219,911,-717,3,-9,18,61,465,-165,1,0,36,12,840,0,53298,1
2,29403,30748,32118,54285,23615,-4222,910,-721,1,-6,23,60,466,-162,1,0,36,12,880,0,53298,1
2,29420,30747,32123,54286,23640,-4219,908,-713,7,-8,23,46,470,-164,1,0,36,12,920,0,53298,1
2,29407,30745,32121,54287,23664,-4206,922,-719,7,-7,21,59,461,-167,1,0,36,12,960,0,53298,1
1,29430,30751,32117,54288,0,-4220,917,-722,9,-1,20,57,465,-155,1,0,36,13,0,0,53298,1
2,29414,30750,32127,54289,22661,-4217,913,-707,11,1,19,63,471,-167,1,0,36,13,40,0,53298,1
2,29403,30750,32123,54290,22685,-4212,908,-710,17,-5,12,55,465,-169,1,0,36,13,80,0,53298,1
2,29380,30749,32125,54291,22710,-4219,918,-712,9,2,13,65,463,-167,1,0,36,13,120,0,53298,1
2,29403,30752,32127,54292,22735,-4208,924,-719,4,-4,22,56,458,-166,1,0,36,13,160,0,53298,1
2,29382,30751,32116,54293,22760,-4211,915,-704,9,-8,23,56,476,-174,1,0,36,13,200,0,53298,1
2,29407,30751,32117,54294,22785,-4227,912,-719,14,-6,24,52,468,-164,1,0,36,13,240,0,53298,1
2,29426,30751,32118,54295,22810,-4211,914,-718,9,-7,24,64,470,-174,1,0,36,13,280,0,53298,1
2,29463,30750,32118,54296,22835,-4222,910,-720,8,1,16,58,474,-160,1,0,36,13,320,0,53298,1
2,29460,30749,32115,54297,22859,-4235,912,-727,18,-11,20,60,466,-172,1,0,36,13,360,0,53298,1
2,29463,30750,32119,54298,22884,-4206,915,-705,9,-4,18,49,463,-163,1,0,36,13,400,0,53298,1
2,29416,30751,32119,54299,22909,-4209,916,-727,2,-4,25,54,462,-162,1,0,36,13,440,0,53298,1
2,29415,30751,32122,54300,22934,-4220,915,-722,8,-6,22,55,465,-163,1,0,36,13,480,0,53298,1
2,29432,30751,32114,54301,22958,-4227,919,-704,16,-10,27,52,468,-170,1,0,36,13,520,0,53298,1
2,29424,30754,32117,54302,22983,-4223,906,-722,8,-2,25,63,465,-169,1,0,36,13,560,0,53298,1
2,29423,30750,32117,54303,23008,-4219,905,-715,0,-2,20,55,465,-169,1,0,36,13,600,0,53298,1
2,29423,30749,32119,54304,23033,-4224,922,-727,19,-8,24,53,469,-175,1,0,36,13,640,0,53298,1
2,29413,30751,32122,54305,23057,-4215,919,-715,11,-16,28,49,469,-159,1,0,36,13,680,0,53298,1
2,29435,30753,32116,54306,23082,-4222,907,-730,5,-6,22,51,461,-171,1,0,36,13,720,0,53298,1
2,29439,30755,32120,54307,23106,-4217,907,-725,3,-3,31,54,468,-176,1,0,36,13,760,0,53298,1
2,29435,30752,32122,54308,23131,-4224,907,-722,15,-8,19,57,469,-159,1,0,36,13,800,0,53298,1
2,29438,30752,32119,54309,23155,-4207,914,-704,7,-4,23,50,470,-162,1,0,36,13,840,0,53298,1
2,29415,30751,32117,54310,23179,-4217,911,-718,9,3,16,58,468,-170,1,0,36,13,880,0,53298,1
2,29420,30750,32114,54311,23204,-4211,923,-712,9,-12,25,51,473,-167,1,0,36,13,920,0,53298,1
2,29427,30749,32118,54312,23228,-4221,910,-724,10,1,27,57,467,-173,1,0,36,13,960,0,53298,1
1,29422,30749,32114,54313,0,-4211,924,-725,28,-3,20,64,472,-162,1,0,36,14,0,0,53298,1
2,29410,30750,32118,54314,22220,-4209,912,-713,12,0,19,62,460,-166,1,0,36,14,40,0,53298,1
2,29415,30750,32118,54315,22245,-4222,911,-715,15,-5,25,58,468,-172,1,0,36,14,80,0,53298,1
2,29411,30749,32119,54316,22270,-4211,915,-721,20,-14,20,56,470,-170,1,0,36,14,120,0,53298,1
2,29407,30748,32118,54317,22295,-4226,912,-712,5,-2,16,63,467,-167,1,0,36,14,160,0,53298,1
2,29424,30750,32117,54318,22319,-4215,912,-720,4,-3,15,56,472,-162,1,0,36,14,200,0,53298,1
2,29416,30749,32116,54319,22344,-4212,921,-726,9,7,24,45,461,-155,1,0,36,14,240,0,53298,1
2,29423,30747,32116,54320,22369,-4219,921,-718,21,3,27,56,470,-170,1,0,36,14,280,0,53298,1
2,29441,30748,32114,54321,22394,-4211,923,-720,1,4,30,57,465,-161,1,0,36,14,320,0,53298,1
2,29449,30750,32118,54322,22420,-4220,907,-718,15,-10,33,57,465,-165,1,0,36,14,360,0,53298,1
2,29465,30750,32120,54323,22444,-4225,923,-713,10,-17,19,57,467,-169,1,0,36,14,400,0,53298,1
2,29460,30750,32119,54324,22469,-4222,908,-711,8,-8,24,52,462,-172,1,0,36,14,440,0,53298,1
2,29447,30750,32123,54325,22495,-4213,910,-705,6,-3,18,54,464,-166,1,0,36,14,480,0,53298,1
2,29431,30749,32118,54326,22519,-4217,908,-726,6,-8,18,58,468,-164,1,0,36,14,520,0,53298,1
2,29399,30750,32128,54327,22544,-4218,911,-709,18,-7,22,58,466,-172,1,0,36,14,560,0,53298,1
2,29399,30749,32128,54328,22568,-4222,918,-722,19,5,14,63,467,-163,1,0,36,14,600,0,53298,1
2,29406,30749,32121,54329,22594,-4217,914,-721,-1,11,23,58,472,-166,1,0,36,14,640,0,53298,1
2,29409,30750,32128,54330,22619,-4222,910,-705,9,-2,18,59,469,-167,1,0,36,14,680,0,53298,1
2,29399,30750,32118,54331,22644,-4220,915,-713,29,-21,13,50,478,-160,1,0,36,14,720,0,53298,1
2,29410,30751,32122,54332,22668,-4225,913,-736,-2,-13,7,60,472,-164,1,0,36,14,760,0,53298,1
2,29410,30751,32120,54333,22693,-4219,921,-712,-8,-1,16,59,467,-171,1,0,36,14,800,0,53298,1
2,29390,30747,32117,54334,22718,-4232,908,-716,9,3,29,58,460,-164,1,0,36,14,840,0,53298,1
2,29399,30749,32113,54335,22744,-4213,911,-705,10,4,29,59,467,-167,1,0,36,14,880,0,53298,1
2,29391,30747,32116,54336,22770,-4216,910,-717,-2,7,23,62,474,-164,1,0,36,14,920,0,53298,1
2,29394,30749,32121,54337,22794,-4225,912,-725,9,-12,14,48,466,-166,1,0,36,14,960,0,53298,1
1,29378,30750,32120,54338,0,-4216,925,-713,2,-18,13,58,468,-166,1,0,36,15,0,1,53298,1
2,29378,30748,32123,54339,21780,-4218,916,-717,2,-20,21,53,475,-169,1,0,36,15,40,1,53298,1
2,29394,30749,32119,54340,21803,-4222,908,-723,7,0,20,54,462,-170,1,0,36,15,80,1,53298,1
2,29378,30750,32121,54341,21828,-4210,912,-703,11,-2,25,57,461,-163,1,0,36,15,120,1,53298,1
2,29383,30748,32123,54342,21853,-4224,907,-701,7,6,16,51,475,-163,1,0,36,15,160,1,53298,1
2,29385,30749,32119,54343,21879,-4213,920,-699,11,-5,21,56,466,-174,1,0,36,15,200,1,53298,1
2,29394,30746,32117,54344,21903,-4215,911,-717,15,-1,20,60,472,-168,1,0,36,15,240,1,53298,1
2,29406,30749,32124,54345,21928,-4223,907,-714,19,-6,7,56,464,-168,1,0,36,15,280,1,53298,1
2,29403,30749,32129,54346,21952,-4219,909,-736,8,-9,12,64,456,-164,1,0,36,15,320,1,53298,1
2,29410,30748,32122,54347,21976,-4203,918,-715,8,2,20,60,474,-164,1,0,36,15,360,1,53298,1
2,29403,30750,32120,54348,22000,-4222,908,-705,34,-4,15,50,468,-176,1,0,36,15,400,1,53298,1
2,29395,30749,32129,54349,22024,-4209,919,-722,10,-1,21,64,468,-168,1,0,36,15,440,1,53298,1
2,29380,30743,32101,54350,22047,-4211,909,-708,1,-8,22,52,472,-160,1,0,36,15,480,1,53298,1
2,29388,30747,32113,54351,22071,-4227,906,-714,3,-8,25,53,469,-177,1,0,36,15,520,1,53298,1
2,29384,30747,32119,54352,22095,-4218,909,-716,15,-10,21,59,471,-161,1,0,36,15,560,1,53298,1
2,29383,30747,32116,54353,22119,-4221,915,-729,1,0,16,53,467,-163,1,0,36,15,600,1,53298,1
2,29394,30748,32117,54354,22143,-4225,911,-703,9,-3,12,58,468,-162,1,0,36,15,640,1,53298,1
2,29378,30750,32114,54355,22168,-4229,909,-719,8,0,19,53,455,-161,1,0,36,15,680,1,53298,1
2,29377,30748,32118,54356,22192,-4222,908,-703,7,-9,22,53,463,-173,1,0,36,15,720,1,53298,1
2,29380,30750,32119,54357,22216,-4214,918,-711,12,-10,26,54,470,-162,1,0,36,15,760,1,53298,1
2,29386,30752,32123,54358,22240,-4215,912,-721,2,-3,28,49,475,-169,1,0,36,15,800,1,53298,1
2,29382,30750,32117,54359,22264,-4214,927,-710,11,-2,20,57,467,-167,1,0,36,15,840,1,53298,1
2,29369,30750,32114,54360,22289,-4221,927,-705,11,-6,24,55,461,-167,1,0,36,15,880,1,53298,1
2,29384,30748,32115,54361,22313,-4211,910,-719,7,-7,18,60,470,-170,1,0,36,15,920,1,53298,1
2,29373,30747,32112,54362,22338,-4210,909,-727,4,-1,19,56,462,-166,1,0,36,15,960,1,53298,1
1,29375,30747,32115,54363,0,-4224,899,-719,6,-3,22,53,465,-169,1,0,36,16,0,0,53298,1
2,29379,30747,32116,54364,21339,-4222,919,-718,11,-8,22,59,475,-165,1,0,36,16,40,0,53298,1
2,29400,30747,32111,54365,21363,-4226,909,-708,14,0,13,51,471,-165,1,0,36,16,80,0,53298,1
2,29399,30748,32121,54366,21388,-4223,904,-711,22,-2,14,49,465,-153,1,0,36,16,120,0,53298,1
2,29385,30747,32112,54367,21412,-4216,927,-709,21,-4,28,67,461,-165,1,0,36,16,160,0,53298,1
2,29360,30750,32116,54368,21436,-4200,924,-724,-4,-5,29,58,466,-170,1,0,36,16,200,0,53298,1
2,29350,30753,32121,54369,21460,-4209,913,-726,-9,-13,18,59,467,-159,1,0,36,16,240,0,53298,1
2,29350,30750,32128,54370,21485,-4215,910,-714,8,-15,14,49,467,-155,1,0,36,16,280,0,53298,1
2,29336,30752,32117,54371,21509,-4226,911,-701,14,-8,15,55,467,-171,1,0,36,16,320,0,53298,1
2,29343,30753,32122,54372,21533,-4225,907,-717,11,3,23,50,468,-164,1,0,36,16,360,0,53298,1
2,29342,30750,32117,54373,21557,-4224,911,-718,-5,1,18,67,463,-175,1,0,36,16,400,0,53298,1
2,29351,30753,32117,54374,21582,-4227,917,-715,17,-10,22,54,462,-174,1,0,36,16,440,0,53298,1
2,29357,30754,32116,54375,21607,-4223,916,-713,15,-9,25,58,466,-170,1,0,36,16,480,0,53298,1
2,29345,30752,32123,54376,21632,-4223,911,-720,2,-4,24,49,467,-163,1,0,36,16,520,0,53298,1
2,29349,30753,32121,54377,21657,-4220,916,-713,6,-12,24,56,470,-156,1,0,36,16,560,0,53298,1
2,29361,30752,32110,54378,21683,-4214,909,-716,-2,-8,22,54,470,-166,1,0,36,16,600,0,53298,1
2,29359,30750,32110,54379,21709,-4223,921,-714,5,-17,13,60,468,-170,1,0,36,16,640,0,53298,1
2,29348,30747,32113,54380,21735,-4216,907,-714,10,-10,20,56,464,-170,1,0,36,16,680,0,53298,1
2,29369,30747,32117,54381,21761,-4220,905,-720,12,-3,19,56,478,-168,1,0,36,16,720,0,53298,1
2,29366,30748,32117,54382,21786,-4219,907,-710,27,1,18,52,470,-160,1,0,36,16,760,0,53298,1
2,29361,30750,32117,54383,21812,-4215,913,-707,17,15,19,62,470,-170,1,0,36,16,800,0,53298,1
2,29365,30752,32111,54384,21837,-4215,917,-719,17,-3,20,55,473,-161,1,0,36,16,840,0,53298,1
2,29375,30749,32109,54385,21863,-4214,910,-719,12,-8,25,57,467,-163,1,0,36,16,880,0,53298,1
2,29375,30748,32125,54386,21888,-4214,921,-708,-1,-11,21,53,457,-175,1,0,36,16,920,0,53298,1
2,29377,30750,32111,54387,21914,-4227,900,-730,-1,-12,20,60,466,-168,1,0,36,16,960,0,53298,1
1,29380,30747,32121,54388,0,-4214,915,-722,2,-7,24,59,473,-165,1,0,36,17,0,0,53298,1
2,29376,30751,32122,54389,20898,-4219,905,-722,17,-3,18,61,471,-165,1,0,36,17,40,0,53298,1
2,29380,30748,32105,54390,20923,-4218,907,-727,3,1,24,61,469,-175,1,0,36,17,80,0,53298,1
2,29392,30748,32106,54391,20947,-4219,918,-734,6,-1,16,51,471,-167,1,0,36,17,120,0,53298,1
2,29384,30750,32119,54392,20972,-4215,915,-711,16,-7,22,54,476,-156,1,0,36,17,160,0,53298,1
2,29396,30749,32121,54393,20998,-4216,922,-708,4,0,23,52,464,-152,1,0,36,17,200,0,53298,1
2,29400,30749,32116,54394,21023,-4189,921,-721,-2,-9,20,61,471,-159,1,0,36,17,240,0,53298,1
2,29395,30748,32118,54395,21048,-4220,912,-722,6,-8,17,58,474,-170,1,0,36,17,280,0,53298,1
2,29400,30743,32114,54396,21073,-4207,912,-711,11,-4,12,59,467,-173,1,0,36,17,320,0,53298,1
2,29372,30744,32092,54397,21098,-4211,927,-716,8,-4,12,57,469,-163,1,0,36,17,360,0,53298,1
2,29388,30742,32098,54398,21124,-4218,907,-709,15,0,18,59,471,-167,1,0,36,17,400,0,53298,1
2,29390,30742,32087,54399,21149,-4220,909,-720,21,6,17,54,472,-158,1,0,36,17,440,0,53298,1
2,29392,30742,32095,54400,21175,-4214,910,-720,17,-6,16,46,472,-160,1,0,36,17,480,0,53298,1
2,29390,30740,32088,54401,21201,-4214,906,-724,16,-10,19,53,473,-163,1,0,36,17,520,0,53298,1
2,29386,30741,32090,54402,21226,-4212,911,-717,21,-11,21,61,467,-163,1,0,36,17,560,0,53298,1
2,29381,30741,32085,54403,21252,-4219,915,-722,1,-6,26,63,467,-177,1,0,36,17,600,0,53298,1
2,29403,30742,32089,54404,21277,-4213,912,-715,1,-8,29,59,465,-177,1,0,36,17,640,0,53298,1
2,29410,30742,32091,54405,21302,-4218,910,-708,18,-9,20,53,475,-169,1,0,36,17,680,0,53298,1
2,29417,30744,32090,54406,21326,-4211,919,-702,14,-3,21,59,477,-169,1,0,36,17,720,0,53298,1
2,29401,30744,32087,54407,21351,-4221,915,-701,3,-10,14,56,460,-168,1,0,36,17,760,0,53298,1
2,29397,30744,32085,54408,21375,-4216,905,-722,-3,-5,11,59,467,-175,1,0,36,17,800,0,53298,1
2,29417,30745,32090,54409,21400,-4206,925,-715,9,-15,18,55,463,-165,1,0,36,17,840,0,53298,1
2,29408,30744,32100,54410,21424,-4209,922,-724,12,-4,27,61,465,-163,1,0,36,17,880,0,53298,1
2,29406,30743,32089,54411,21448,-4225,911,-725,8,-3,32,58,460,-170,1,0,36,17,920,0,53298,1
2,29415,30744,32086,54412,21473,-4222,913,-721,5,-10,20,61,463,-169,1,0,36,17,960,0,53298,1
1,29427,30743,32097,54413,0,-4220,908,-714,17,-7,12,53,465,-167,1,0,36,18,0,1,53298,1
2,29426,30742,32098,54414,20458,-4224,909,-713,7,-7,17,51,463,-161,1,0,36,18,40,1,53298,1
2,29412,30744,32096,54415,20483,-4212,918,-709,6,-4,17,56,456,-164,1,0,36,18,80,1,53298,1
2,29412,30738,32080,54416,20507,-4229,902,-719,11,0,23,49,463,-163,1,0,36,18,120,1,53298,1
2,29394,30740,32084,54417,20532,-4213,923,-713,14,6,29,61,461,-173,1,0,36,18,160,1,53298,1
2,29391,30741,32088,54418,20556,-4214,910,-713,13,-3,19,57,471,-161,1,0,36,18,200,1,53298,1
2,29373,30740,32088,54419,20581,-4231,900,-727,14,-6,16,59,465,-181,1,0,36,18,240,1,53298,1
2,29384,30738,32085,54420,20606,-4227,897,-714,9,-14,20,45,467,-163,1,0,36,18,280,1,53298,1
2,29410,30740,32087,54421,20630,-4219,915,-731,3,-10,25,53,463,-171,1,0,36,18,320,1,53298,1
2,29395,30738,32078,54422,20655,-4224,906,-722,1,0,28,59,463,-167,1,0,36,18,360,1,53298,1
2,29394,30739,32088,54423,20679,-4229,908,-719,1,6,21,55,463,-165,1,0,36,18,400,1,53298,1
2,29389,30738,32082,54424,20704,-4221,919,-717,31,6,20,50,466,-166,1,0,36,18,440,1,53298,1
2,29398,30739,32085,54425,20729,-4214,913,-712,25,9,39,55,471,-169,1,0,36,18,480,1,53298,1
2,29400,30738,32079,54426,20753,-4225,905,-721,9,3,33,57,459,-161,1,0,36,18,520,1,53298,1
2,29394,30738,32086,54427,20777,-4217,901,-721,18,-5,26,49,465,-165,1,0,36,18,560,1,53298,1
2,29403,30737,32075,54428,20802,-4209,908,-719,-6,-17,19,62,466,-166,1,0,36,18,600,1,53298,1
2,29403,30738,32088,54429,20827,-4224,914,-720,10,-29,14,54,470,-168,1,0,36,18,640,1,53298,1
2,29411,30738,32079,54430,20851,-4207,924,-708,20,-14,13,59,461,-173,1,0,36,18,680,1,53298,1
2,29434,30739,32085,54431,20877,-4210,925,-705,9,7,34,63,471,-165,1,0,36,18,720,1,53298,1
2,29431,30739,32087,54432,20902,-4224,906,-735,7,14,31,53,461,-171,1,0,36,18,760,1,53298,1
2,29428,30740,32083,54433,20927,-4221,915,-717,19,5,24,57,473,-161,1,0,36,18,800,1,53298,1
2,29425,30740,32082,54434,20952,-4223,919,-710,5,4,23,49,461,-173,1,0,36,18,840,1,53298,1
2,29434,30740,32087,54435,20976,-4211,916,-718,1,-15,2,62,474,-168,1,0,36,18,880,1,53298,1
2,29430,30739,32089,54436,21001,-4221,900,-720,28,-10,9,61,465,-171,1,0,36,18,920,1,53298,1
2,29428,30739,32079,54437,21025,-4216,920,-718,13,-4,9,60,472,-168,1,0,36,18,960,1,53298,1
1,29402,30739,32074,54438,0,-4214,920,-701,12,0,29,57,473,-163,1,0,36,19,0,0,53298,1
2,29424,30733,32075,54439,20017,-4217,911,-718,18,0,31,61,471,-175,1,0,36,19,40,0,53298,1
2,29428,30741,32095,54440,20041,-4217,923,-709,14,-8,25,52,476,-172,1,0,36,19,80,0,53298,1
2,29420,30741,32088,54441,20065,-4214,912,-723,-2,-7,14,58,462,-170,1,0,36,19,120,0,53298,1
2,29420,30744,32085,54442,20090,-4211,912,-704,2,-21,17,66,466,-156,1,0,36,19,160,0,53298,1
2,29432,30743,32098,54443,20114,-4220,918,-706,2,-22,20,61,463,-163,1,0,36,19,200,0,53298,1
2,29432,30741,32099,54444,20138,-4217,916,-714,10,-15,21,51,469,-167,1,0,36,19,240,0,53298,1
2,29413,30740,32089,54445,20162,-4219,901,-713,9,-5,25,54,474,-168,1,0,36,19,280,0,53298,1
2,29417,30743,32088,54446,20186,-4217,911,-711,16,8,20,60,462,-174,1,0,36,19,320,0,53298,1
2,29406,30740,32077,54447,20210,-4223,912,-719,8,7,30,60,462,-166,1,0,36,19,360,0,53298,1
2,29414,30738,32085,54448,20234,-4223,916,-712,7,-6,24,48,476,-162,1,0,36,19,400,0,53298,1
2,29409,30742,32085,54449,20258,-4221,908,-717,5,-7,15,55,457,-171,1,0,36,19,440,0,53298,1
2,29407,30742,32090,54450,20282,-4212,919,-722,3,-13,11,58,468,-172,1,0,36,19,480,0,53298,1
2,29409,30743,32099,54451,20305,-4209,920,-715,12,-21,18,52,458,-164,1,0,36,19,520,0,53298,1
2,29395,30740,32083,54452,20328,-4219,909,-724,7,2,29,53,469,-167,1,0,36,19,560,0,53298,1
2,29408,30740,32087,54453,20352,-4215,906,-723,16,6,24,61,469,-179,1,0,36,19,600,0,53298,1
2,29412,30738,32083,54454,20376,-4219,912,-712,18,1,15,54,464,-158,1,0,36,19,640,0,53298,1
2,29409,30739,32075,54455,20400,-4223,917,-718,16,-8,21,64,468,-168,1,0,36,19,680,0,53298,1
2,29410,30737,32075,54456,20424,-4221,910,-725,-3,-7,20,59,461,-165,1,0,36,19,720,0,53298,1
2,29427,30738,32092,54457,20449,-4212,919,-721,6,-6,19,51,471,-169,1,0,36,19,760,0,53298,1
2,29432,30738,32094,54458,20473,-4216,915,-716,9,-12,7,54,470,-170,1,0,36,19,800,0,53298,1
2,29446,30740,32089,54459,20497,-4224,906,-724,10,-1,10,60,468,-176,1,0,36,19,840,0,53298,1
2,29434,30739,32081,54460,20522,-4217,921,-719,19,-1,18,61,475,-165,1,0,36,19,880,0,53298,1
2,29440,30741,32089,54461,20547,-4215,908,-709,6,6,21,55,469,-161,1,0,36,19,920,0,53298,1
2,29453,30740,32091,54462,20572,-4215,915,-719,10,-7,16,58,464,-168,1,0,36,19,960,0,53298,1
1,29446,30738,32087,54463,0,-4216,910,-724,9,-10,14,60,468,-172,1,0,36,20,0,1,53298,1
2,29445,30736,32077,54464,19577,-4218,903,-699,3,-15,24,57,463,-163,1,0,36,20,40,1,53298,1
2,29462,30739,32089,54465,19601,-4214,906,-725,4,-11,20,60,476,-166,1,0,36,20,80,1,53298,1
2,29446,30737,32085,54466,19625,-4218,915,-713,15,-4,24,59,469,-159,1,0,36,20,120,1,53298,1
2,29446,30740,32090,54467,19650,-4209,906,-712,1,-2,20,55,469,-169,1,0,36,20,160,1,53298,1
2,29427,30738,32085,54468,19675,-4227,915,-736,2,-1,15,55,463,-161,1,0,36,20,200,1,53298,1
2,29459,30737,32080,54469,19699,-4226,901,-720,6,-8,16,53,463,-167,1,0,36,20,240,1,53298,1
2,29452,30740,32093,54470,19723,-4224,920,-702,15,-4,18,55,475,-169,1,0,36,20,280,1,53298,1
2,29435,30739,32093,54471,19747,-4222,921,-714,10,5,18,59,467,-171,1,0,36,20,320,1,53298,1
2,29434,30740,32092,54472,19771,-4215,906,-731,16,5,18,60,466,-170,1,0,36,20,360,1,53298,1
2,29441,30740,32083,54473,19795,-4217,913,-705,19,-3,18,55,471,-167,1,0,36,20,400,1,53298,1
2,29439,30740,32087,54474,19819,-4220,911,-715,10,-8,25,57,469,-159,1,0,36,20,440,1,53298,1
2,29443,30739,32085,54475,19844,-4221,905,-733,-1,-5,24,57,461,-169,1,0,36,20,480,1,53298,1
2,29443,30740,32087,54476,19868,-4224,904,-709,7,-7,12,49,469,-169,1,0,36,20,520,1,53298,1
2,29460,30740,32085,54477,19892,-4215,917,-722,7,-13,21,63,467,-177,1,0,36,20,560,1,53298,1
2,29448,30740,32082,54478,19915,-4217,909,-720,18,-5,12,57,469,-169,1,0,36,20,600,1,53298,1
2,29465,30740,32081,54479,19938,-4214,910,-719,-5,-1,21,49,463,-165,1,0,36,20,640,1,53298,1
2,29478,30740,32095,54480,19962,-4209,918,-712,6,0,22,62,470,-170,1,0,36,20,680,1,53298,1
2,29456,30740,32093,54481,19985,-4219,907,-715,16,5,25,57,469,-169,1,0,36,20,720,1,53298,1
2,29455,30738,32090,54482,20010,-4208,913,-726,-11,-5,25,52,464,-166,1,0,36,20,760,1,53298,1
2,29446,30741,32080,54483,20034,-4217,923,-715,-1,-7,20,54,472,-162,1,0,36,20,800,1,53298,1
2,29488,30739,32083,54484,20058,-4219,915,-717,23,-9,22,61,467,-167,1,0,36,20,840,1,53298,1
2,29485,30742,32087,54485,20083,-4226,913,-718,15,-5,7,49,465,-155,1,0,36,20,880,1,53298,1
2,29545,30736,32072,54486,20106,-4223,897,-725,-12,6,12,60,468,-170,1,0,36,20,920,1,53298,1
2,29457,30738,32082,54487,20130,-4230,907,-715,27,-3,18,57,467,-169,1,0,36,20,960,1,53298,1
1,29556,30736,32072,54488,0,-4214,918,-729,15,-5,23,53,467,-159,1,0,36,21,0,1,53298,1
2,29461,30740,32076,54489,19137,-4211,913,-712,5,1,25,58,462,-164,1,0,36,21,40,1,53298,1
2,29461,30739,32082,54490,19161,-4217,918,-708,-1,-6,20,57,461,-163,1,0,36,21,80,1,53298,1
2,29446,30739,32083,54491,19186,-4218,907,-717,29,-15,19,61,467,-165,1,0,36,21,120,1,53298,1
2,29452,30739,32088,54492,19211,-4224,908,-702,14,-9,24,54,470,-170,1,0,36,21,160,1,53298,1
2,29449,30738,32081,54493,19235,-4215,917,-712,-8,1,23,57,465,-163,1,0,36,21,200,1,53298,1
2,29456,30739,32090,54494,19260,-4232,911,-727,8,4,31,60,466,-168,1,0,36,21,240,1,53298,1
2,29523,30739,32078,54495,19284,-4218,917,-728,13,-8,20,55,465,-167,1,0,36,21,280,1,53298,1
2,29562,30739,32083,54496,19308,-4215,914,-706,15,-4,24,56,464,-168,1,0,36,21,320,1,53298,1
2,29583,30738,32081,54497,19332,-4208,915,-712,5,-4,19,51,473,-169,1,0,36,21,360,1,53298,1
2,29464,30740,32083,54498,19357,-4216,909,-731,2,-2,15,53,475,-167,1,0,36,21,400,1,53298,1
2,29462,30735,32081,54499,19381,-4218,915,-715,16,-10,23,49,465,-157,1,0,36,21,440,1,53298,1
2,29432,30738,32080,54500,19406,-4218,912,-726,13,-4,24,61,463,-153,1,0,36,21,480,1,53298,1
2,29430,30736,32076,54501,19431,-4214,912,-722,7,2,19,58,466,-168,1,0,36,21,520,1,53298,1
2,29446,30737,32074,54502,19456,-4225,912,-726,12,-1,26,60,466,-166,1,0,36,21,560,1,53298,1
2,29440,30737,32075,54503,19480,-4222,909,-731,21,-5,25,55,469,-163,1,0,36,21,600,1,53298,1
2,29444,30736,32086,54504,19505,-4228,905,-721,8,-9,16,56,470,-166,1,0,36,21,640,1,53298,1
2,29442,30737,32077,54505,19530,-4207,908,-696,6,-8,17,58,466,-160,1,0,36,21,680,1,53298,1
2,29448,30740,32084,54506,19554,-4224,909,-720,8,-6,23,57,465,-169,1,0,36,21,720,1,53298,1
2,29445,30740,32079,54507,19579,-4220,911,-714,14,-2,29,59,467,-165,1,0,36,21,760,1,53298,1
2,29417,30737,32074,54508,19603,-4234,906,-721,7,0,22,53,469,-163,1,0,36,21,800,1,53298,1
2,29431,30736,32076,54509,19628,-4225,912,-706,8,-11,18,60,470,-160,1,0,36,21,840,1,53298,1
2,29422,30737,32086,54510,19653,-4225,905,-713,17,-3,17,58,468,-170,1,0,36,21,880,1,53298,1
2,29440,30737,32095,54511,19677,-4223,908,-711,12,-7,21,62,468,-166,1,0,36,21,920,1,53298,1
2,29435,30736,32088,54512,19702,-4216,908,-710,-3,-1,22,47,467,-165,1,0,36,21,960,1,53298,1
1,29412,30741,32096,54513,0,-4214,910,-705,-2,-3,18,54,466,-170,1,0,36,22,0,1,53298,1
2,29426,30743,32106,54514,18698,-4207,917,-717,12,-12,16,56,466,-168,1,0,36,22,40,1,53298,1
2,29435,30745,32092,54515,18722,-4221,912,-707,1,-4,21,55,469,-157,1,0,36,22,80,1,53298,1
2,29445,30744,32104,54516,18748,-4220,913,-716,17,-3,18,53,467,-167,1,0,36,22,120,1,53298,1
2,29444,30742,32112,54517,18774,-4207,906,-725,-6,-1,21,61,467,-167,1,0,36,22,160,1,53298,1
2,29450,30740,32091,54518,18799,-4222,919,-712,14,-12,15,59,463,-165,1,0,36,22,200,1,53298,1
2,29456,30741,32090,54519,18824,-4204,926,-716,16,-7,25,59,465,-165,1,0,36,22,240,1,53298,1
2,29461,30743,32096,54520,18849,-4214,919,-707,6,2,31,58,466,-164,1,0,36,22,280,1,53298,1
2,29443,30743,32094,54521,18874,-4210,917,-729,-3,-7,18,51,471,-165,1,0,36,22,320,1,53298,1
2,29460,30743,32093,54522,18898,-4221,911,-727,8,-6,17,66,474,-170,1,0,36,22,360,1,53298,1
2,29459,30743,32092,54523,18923,-4212,921,-712,7,-16,21,64,478,-164,1,0,36,22,400,1,53298,1
2,29488,30746,32094,54524,18948,-4232,897,-708,3,-1,31,63,473,-163,1,0,36,22,440,1,53298,1
2,29489,30745,32095,54525,18973,-4218,918,-716,7,-6,25,60,474,-162,1,0,36,22,480,1,53298,1
2,29487,30743,32086,54526,18997,-4220,909,-719,14,-4,21,55,465,-159,1,0,36,22,520,1,53298,1
2,29496,30745,32095,54527,19021,-4214,926,-726,7,-1,28,56,462,-170,1,0,36,22,560,1,53298,1
2,29480,30742,32093,54528,19045,-4220,915,-716,15,-4,30,59,459,-173,1,0,36,22,600,1,53298,1
2,29490,30744,32093,54529,19070,-4220,915,-720,16,4,18,52,474,-160,1,0,36,22,640,1,53298,1
2,29488,30744,32096,54530,19095,-4211,919,-730,16,-9,12,50,464,-168,1,0,36,22,680,1,53298,1
2,29505,30745,32094,54531,19119,-4218,903,-717,-1,-4,11,62,462,-176,1,0,36,22,720,1,53298,1
2,29522,30742,32091,54532,19144,-4235,897,-718,2,-7,21,60,468,-172,1,0,36,22,760,1,53298,1
2,29518,30745,32088,54533,19168,-4220,903,-707,12,5,23,55,467,-169,1,0,36,22,800,1,53298,1
2,29524,30743,32091,54534,19191,-4226,910,-709,11,7,12,51,473,-163,1,0,36,22,840,1,53298,1
2,29510,30744,32088,54535,19215,-4216,916,-710,13,13,29,58,474,-176,1,0,36,22,880,1,53298,1
2,29491,30744,32085,54536,19239,-4231,910,-716,10,6,27,59,471,-165,1,0,36,22,920,1,53298,1
2,29482,30743,32082,54537,19264,-4214,901,-722,7,-11,28,49,467,-167,1,0,36,22,960,1,53298,1
1,29480,30741,32082,54538,0,-4220,919,-720,1,-22,25,65,473,-153,1,0,36,23,0,0,53298,1
2,29474,30743,32083,54539,18257,-4224,920,-717,-3,-13,23,62,462,-162,1,0,36,23,40,0,53298,1
2,29479,30746,32094,54540,18282,-4224,909,-713,-1,-2,16,57,463,-171,1,0,36,23,80,0,53298,1
2,29482,30743,32090,54541,18306,-4220,918,-728,13,-3,17,64,466,-168,1,0,36,23,120,0,53298,1
2,29472,30740,32086,54542,18330,-4223,912,-712,18,8,16,57,457,-171,1,0,36,23,160,0,53298,1
2,29464,30743,32088,54543,18355,-4228,916,-706,3,6,21,48,468,-166,1,0,36,23,200,0,53298,1
2,29464,30743,32085,54544,18379,-4207,925,-722,11,-9,26,55,471,-167,1,0,36,23,240,0,53298,1
2,29492,30742,32092,54545,18404,-4217,911,-732,14,-11,18,65,471,-173,1,0,36,23,280,0,53298,1
2,29476,30744,32100,54546,18428,-4217,910,-726,-2,-5,25,64,466,-170,1,0,36,23,320,0,53298,1
2,29509,30744,32085,54547,18451,-4227,923,-733,19,5,20,51,467,-157,1,0,36,23,360,0,53298,1
2,29461,30747,32097,54548,18476,-4223,919,-718,25,2,18,55,465,-161,1,0,36,23,400,0,53298,1
2,29452,30742,32091,54549,18500,-4223,911,-731,3,-2,23,63,469,-169,1,0,36,23,440,0,53298,1
2,29463,30743,32092,54550,18524,-4214,919,-725,2,-11,27,63,467,-171,1,0,36,23,480,0,53298,1
2,29396,30743,32091,54551,18548,-4212,924,-709,6,-13,24,53,459,-163,1,0,36,23,520,0,53298,1
2,29427,30743,32093,54552,18571,-4213,923,-708,-2,-3,19,65,469,-159,1,0,36,23,560,0,53298,1
2,29414,30744,32087,54553,18595,-4209,918,-716,3,-3,12,51,467,-173,1,0,36,23,600,0,53298,1
2,29414,30743,32094,54554,18618,-4218,912,-710,16,-3,26,61,467,-165,1,0,36,23,640,0,53298,1
2,29398,30743,32085,54555,18642,-4222,911,-717,7,-2,16,54,474,-164,1,0,36,23,680,0,53298,1
2,29424,30741,32091,54556,18665,-4214,906,-709,14,-6,19,47,463,-171,1,0,36,23,720,0,53298,1
2,29407,30742,32087,54557,18688,-4220,913,-701,4,-5,23,50,456,-166,1,0,36,23,760,0,53298,1
2,29402,30745,32094,54558,18713,-4219,910,-717,-3,-15,16,50,468,-176,1,0,36,23,800,0,53298,1
2,29420,30744,32095,54559,18737,-4224,905,-705,5,-16,16,49,469,-175,1,0,36,23,840,0,53298,1
2,29435,30744,32087,54560,18762,-4216,923,-710,12,-13,12,64,466,-168,1,0,36,23,880,0,53298,1
2,29412,30745,32095,54561,18787,-4222,910,-718,7,4,23,54,464,-162,1,0,36,23,920,0,53298,1
2,29419,30743,32086,54562,18812,-4214,918,-708,8,8,19,62,472,-164,1,0,36,23,960,0,53298,1
1,29409,30742,32088,54563,0,-4225,912,-713,10,-7,25,57,471,-169,1,0,36,24,0,0,53298,1
2,29423,30744,32103,54564,17817,-4214,914,-714,0,-12,22,55,469,-169,1,0,36,24,40,0,53298,1
2,29422,30744,32093,54565,17842,-4213,921,-702,18,-5,12,54,462,-166,1,0,36,24,80,0,53298,1
2,29424,30742,32096,54566,17867,-4216,908,-707,12,0,6,52,470,-176,1,0,36,24,120,0,53298,1
2,29414,30745,32090,54567,17892,-4217,914,-716,10,-1,16,62,466,-172,1,0,36,24,160,0,53298,1
2,29416,30742,32094,54568,17917,-4210,913,-695,19,0,22,58,470,-170,1,0,36,24,200,0,53298,1
2,29430,30745,32096,54569,17941,-4218,906,-715,10,11,13,57,473,-163,1,0,36,24,240,0,53298,1
2,29410,30743,32094,54570,17966,-4222,898,-708,4,5,19,59,457,-163,1,0,36,24,280,0,53298,1
2,29406,30742,32094,54571,17990,-4218,919,-727,12,-2,13,47,475,-173,1,0,36,24,320,0,53298,1
2,29439,30744,32091,54572,18014,-4210,925,-713,12,-12,19,61,467,-165,1,0,36,24,360,0,53298,1
2,29446,30744,32089,54573,18038,-4213,911,-735,-3,-13,13,59,471,-165,1,0,36,24,400,0,53298,1
2,29442,30745,32092,54574,18062,-4216,916,-718,2,-18,19,54,472,-164,1,0,36,24,440,0,53298,1
2,29460,30741,32093,54575,18086,-4220,914,-709,10,-9,21,58,474,-166,1,0,36,24,480,0,53298,1
2,29447,30746,32095,54576,18110,-4209,923,-726,-1,-2,18,64,456,-166,1,0,36,24,520,0,53298,1
2,29439,30745,32102,54577,18134,-4223,901,-713,6,-10,20,56,468,-168,1,0,36,24,560,0,53298,1
2,29433,30746,32095,54578,18158,-4221,912,-705,11,-3,25,59,467,-173,1,0,36,24,600,0,53298,1
2,29430,30744,32102,54579,18182,-4222,911,-715,3,-7,21,50,468,-156,1,0,36,24,640,0,53298,1
2,29436,30745,32094,54580,18205,-4211,912,-727,0,-7,15,59,467,-157,1,0,36,24,680,0,53298,1
2,29446,30747,32097,54581,18229,-4220,910,-707,13,-5,21,49,465,-157,1,0,36,24,720,0,53298,1
2,29440,30745,32097,54582,18252,-4230,911,-724,23,-2,26,57,459,-173,1,0,36,24,760,0,53298,1
2,29431,30744,32092,54583,18275,-4219,911,-723,23,-1,19,59,469,-169,1,0,36,24,800,0,53298,1
2,29450,30744,32098,54584,18300,-4212,905,-731,9,8,15,61,469,-165,1,0,36,24,840,0,53298,1
2,29436,30745,32096,54585,18324,-4233,900,-704,17,2,22,56,466,-174,1,0,36,24,880,0,53298,1
2,29441,30744,32099,54586,18348,-4215,909,-711,7,1,20,62,474,-172,1,0,36,24,920,0,53298,1
2,29424,30745,32096,54587,18372,-4223,919,-711,4,-6,18,53,465,-165,1,0,36,24,960,0,53298,1
1,29428,30746,32090,54588,0,-4223,904,-705,13,-13,15,57,471,-167,1,0,36,25,0,0,53298,1
2,29422,30744,32099,54589,17377,-4222,911,-700,7,-3,28,56,460,-166,1,0,36,25,40,0,53298,1
2,29401,30745,32099,54590,17400,-4218,906,-703,12,0,28,59,471,-171,1,0,36,25,80,0,53298,1
2,29420,30742,32087,54591,17423,-4227,909,-730,-10,-1,24,58,472,-162,1,0,36,25,120,0,53298,1
2,29428,30746,32090,54592,17447,-4221,917,-715,13,-17,14,53,475,-169,1,0,36,25,160,0,53298,1
2,29421,30747,32096,54593,17471,-4224,910,-707,9,-11,16,47,471,-163,1,0,36,25,200,0,53298,1
2,29411,30748,32108,54594,17495,-4218,917,-716,8,-12,18,55,465,-159,1,0,36,25,240,0,53298,1
2,29410,30744,32094,54595,17519,-4213,913,-714,3,-2,19,50,460,-152,1,0,36,25,280,0,53298,1
2,29410,30743,32088,54596,17544,-4223,900,-725,19,0,22,59,469,-177,1,0,36,25,320,0,53298,1
2,29400,30744,32083,54597,17568,-4198,912,-719,6,-3,23,61,465,-173,1,0,36,25,360,0,53298,1
2,29415,30743,32086,54598,17592,-4217,920,-724,7,-3,24,59,465,-173,1,0,36,25,400,0,53298,1
2,29418,30743,32103,54599,17617,-4225,915,-705,4,-3,10,54,466,-164,1,0,36,25,440,0,53298,1
2,29428,30744,32094,54600,17640,-4217,925,-709,9,-9,19,54,466,-160,1,0,36,25,480,0,53298,1
2,29428,30742,32098,54601,17665,-4205,927,-709,13,-3,17,55,463,-173,1,0,36,25,520,0,53298,1
2,29411,30742,32089,54602,17689,-4217,911,-713,5,1,18,52,464,-170,1,0,36,25,560,0,53298,1
2,29422,30743,32092,54603,17713,-4219,911,-723,20,-3,26,48,474,-166,1,0,36,25,600,0,53298,1
2,29428,30743,32088,54604,17738,-4224,905,-719,21,2,26,54,470,-172,1,0,36,25,640,0,53298,1
2,29434,30742,32089,54605,17762,-4215,909,-711,3,0,30,63,465,-167,1,0,36,25,680,0,53298,1
2,29413,30742,32097,54606,17786,-4216,917,-722,11,-12,16,62,468,-162,1,0,36,25,720,0,53298,1
2,29410,30741,32086,54607,17809,-4216,909,-730,11,-6,24,61,463,-161,1,0,36,25,760,0,53298,1
2,29409,30743,32082,54608,17834,-4219,921,-712,8,-6,22,57,469,-161,1,0,36,25,800,0,53298,1
2,29433,30741,32097,54609,17858,-4229,913,-721,-3,-3,23,55,461,-159,1,0,36,25,840,0,53298,1
2,29433,30745,32086,54610,17882,-4213,912,-708,6,-2,21,60,466,-168,1,0,36,25,880,0,53298,1
2,29440,30743,32084,54611,17906,-4222,918,-725,13,-9,18,52,472,-154,1,0,36,25,920,0,53298,1
2,29430,30745,32090,54612,17931,-4211,928,-723,0,-2,14,53,463,-171,1,0,36,25,960,0,53298,1
1,29452,30745,32083,54613,0,-4233,904,-723,6,-5,17,63,459,-169,1,0,36,26,0,0,53298,1
2,29436,30743,32090,54614,16938,-4218,912,-718,20,-2,21,59,463,-165,1,0,36,26,40,0,53298,1
2,29445,30744,32089,54615,16962,-4230,898,-715,10,0,22,57,469,-171,1,0,36,26,80,0,53298,1
2,29424,30744,32082,54616,16987,-4208,916,-725,-4,-2,27,50,478,-154,1,0,36,26,120,0,53298,1
2,29419,30746,32090,54617,17011,-4238,897,-714,-1,-3,27,53,469,-167,1,0,36,26,160,0,53298,1
2,29410,30745,32102,54618,17036,-4217,896,-711,16,-3,20,57,473,-173,1,0,36,26,200,0,53298,1
2,29406,30744,32093,54619,17060,-4213,908,-724,14,10,22,61,467,-173,1,0,36,26,240,0,53298,1
2,29398,30746,32093,54620,17084,-4209,914,-729,8,1,10,53,461,-161,1,0,36,26,280,0,53298,1
2,29394,30747,32088,54621,17108,-4231,902,-718,20,3,20,50,458,-168,1,0,36,26,320,0,53298,1
2,29403,30746,32095,54622,17134,-4218,916,-713,24,-13,25,57,469,-163,1,0,36,26,360,0,53298,1
2,29421,30745,32088,54623,17158,-4222,907,-724,-3,3,27,54,464,-166,1,0,36,26,400,0,53298,1
2,29435,30748,32092,54624,17183,-4212,914,-706,-2,-16,28,52,462,-170,1,0,36,26,440,0,53298,1
2,29446,30747,32096,54625,17208,-4220,911,-721,8,-11,24,51,469,-165,1,0,36,26,480,0,53298,1
2,29434,30746,32092,54626,17232,-4215,912,-717,14,-3,22,57,467,-167,1,0,36,26,520,0,53298,1
2,29431,30746,32086,54627,17256,-4229,903,-715,4,0,22,62,464,-162,1,0,36,26,560,0,53298,1
2,29427,30745,32092,54628,17281,-4229,907,-716,-4,-10,19,56,462,-174,1,0,36,26,600,0,53298,1
2,29433,30744,32089,54629,17306,-4217,911,-708,12,-10,20,61,471,-167,1,0,36,26,640,0,53298,1
2,29436,30747,32091,54630,17332,-4220,911,-708,8,-3,32,47,465,-171,1,0,36,26,680,0,53298,1
2,29413,30747,32089,54631,17357,-4215,912,-717,2,-7,20,50,470,-160,1,0,36,26,720,0,53298,1
2,29422,30746,32090,54632,17382,-4222,890,-718,11,-1,19,50,460,-166,1,0,36,26,760,0,53298,1
2,29422,30744,32091,54633,17407,-4219,914,-715,16,-5,20,51,465,-169,1,0,36,26,800,0,53298,1
2,29421,30747,32091,54634,17431,-4218,908,-723,3,-7,15,55,471,-173,1,0,36,26,840,0,53298,1
2,29427,30748,32093,54635,17455,-4203,919,-710,7,-5,18,60,462,-172,1,0,36,26,880,0,53298,1
2,29432,30745,32090,54636,17480,-4212,902,-712,14,-2,20,58,466,-172,1,0,36,26,920,0,53298,1
2,29441,30749,32097,54637,17504,-4220,918,-727,12,-6,30,58,466,-156,1,0,36,26,960,0,53298,1
1,29411,30747,32093,54638,0,-4213,926,-706,15,-4,27,49,473,-165,1,0,36,27,0,0,53298,1
2,29424,30747,32090,54639,16498,-4216,905,-716,7,0,21,55,475,-163,1,0,36,27,40,0,53298,1
2,29416,30746,32096,54640,16523,-4213,902,-731,15,-7,22,63,463,-167,1,0,36,27,80,0,53298,1
2,29441,30747,32087,54641,16547,-4234,903,-719,15,-2,32,49,463,-167,1,0,36,27,120,0,53298,1
2,29440,30746,32091,54642,16571,-4220,914,-716,2,-2,30,50,470,-170,1,0,36,27,160,0,53298,1
2,29415,30747,32105,54643,16595,-4225,904,-720,-4,-7,27,64,472,-162,1,0,36,27,200,0,53298,1
2,29435,30747,32095,54644,16618,-4202,916,-720,1,-13,12,56,468,-160,1,0,36,27,240,0,53298,1
2,29421,30746,32090,54645,16643,-4216,911,-717,12,-19,17,52,468,-162,1,0,36,27,280,0,53298,1
2,29424,30747,32092,54646,16667,-4215,914,-715,8,-6,19,63,467,-169,1,0,36,27,320,0,53298,1
2,29414,30745,32091,54647,16692,-4209,921,-717,12,-2,24,65,465,-173,1,0,36,27,360,0,53298,1
2,29414,30747,32084,54648,16716,-4234,903,-721,7,6,27,56,470,-168,1,0,36,27,400,0,53298,1
2,29412,30743,32091,54649,16741,-4219,903,-698,8,-6,24,53,469,-165,1,0,36,27,440,0,53298,1
2,29410,30744,32087,54650,16765,-4207,921,-705,6,-14,18,63,467,-161,1,0,36,27,480,0,53298,1
2,29417,30745,32100,54651,16789,-4216,918,-703,3,-8,14,54,470,-166,1,0,36,27,520,0,53298,1
2,29402,30743,32081,54652,16814,-4208,912,-721,0,-2,16,58,474,-168,1,0,36,27,560,0,53298,1
2,29392,30744,32085,54653,16839,-4224,911,-702,19,9,15,66,468,-162,1,0,36,27,600,0,53298,1
2,29405,30744,32092,54654,16864,-4219,917,-720,8,10,31,54,472,-174,1,0,36,27,640,0,53298,1
2,29411,30750,32103,54655,16889,-4225,903,-729,11,-2,27,57,465,-171,1,0,36,27,680,0,53298,1
2,29417,30744,32095,54656,16913,-4225,902,-729,19,-6,21,55,465,-175,1,0,36,27,720,0,53298,1
2,29414,30745,32103,54657,16937,-4215,904,-723,-7,-12,12,56,464,-160,1,0,36,27,760,0,53298,1
2,29416,30745,32101,54658,16963,-4220,904,-714,3,-15,29,49,465,-159,1,0,36,27,800,0,53298,1
2,29394,30744,32095,54659,16987,-4220,920,-707,5,-4,31,58,470,-164,1,0,36,27,840,0,53298,1
2,29395,30746,32097,54660,17011,-4212,916,-714,5,-8,23,56,468,-168,1,0,36,27,880,0,53298,1
2,29394,30747,32098,54661,17035,-4210,919,-710,13,4,9,57,467,-169,1,0,36,27,920,0,53298,1
2,29412,30746,32090,54662,17060,-4214,912,-727,21,2,14,54,466,-170,1,0,36,27,960,0,53298,1
1,29407,30747,32096,54663,0,-4219,909,-722,7,-3,13,58,464,-168,1,0,36,28,0,1,53298,1
2,29395,30747,32094,54664,16059,-4226,911,-724,11,-6,19,50,460,-164,1,0,36,28,40,1,53298,1
2,29404,30747,32087,54665,16082,-4215,906,-711,6,-13,25,52,472,-166,1,0,36,28,80,1,53298,1
2,29402,30748,32100,54666,16106,-4225,916,-720,-1,-9,26,59,467,-171,1,0,36,28,120,1,53298,1
2,29412,30747,32096,54667,16130,-4225,917,-725,4,-2,23,68,464,-164,1,0,36,28,160,1,53298,1
2,29393,30747,32095,54668,16154,-4225,898,-717,8,-3,15,57,465,-173,1,0,36,28,200,1,53298,1
2,29420,30747,32098,54669,16178,-4222,916,-717,13,-6,17,62,466,-174,1,0,36,28,240,1,53298,1
2,29419,30748,32096,54670,16201,-4228,903,-719,7,-8,17,64,470,-162,1,0,36,28,280,1,53298,1
2,29414,30746,32099,54671,16225,-4216,921,-720,7,-1,27,58,470,-160,1,0,36,28,320,1,53298,1
2,29442,30747,32090,54672,16249,-4212,924,-717,9,-14,15,55,465,-169,1,0,36,28,360,1,53298,1
2,29430,30746,32096,54673,16274,-4227,903,-707,25,-7,25,54,468,-170,1,0,36,28,400,1,53298,1
2,29439,30745,32095,54674,16299,-4217,914,-727,16,-3,15,59,467,-161,1,0,36,28,440,1,53298,1
2,29440,30745,32098,54675,16323,-4221,904,-710,4,-4,24,53,467,-171,1,0,36,28,480,1,53298,1
2,29439,30745,32100,54676,16348,-4225,916,-722,13,19,20,59,473,-153,1,0,36,28,520,1,53298,1
2,29437,30745,32092,54677,16372,-4213,914,-719,18,2,16,62,470,-172,1,0,36,28,560,1,53298,1
2,29445,30745,32099,54678,16395,-4217,909,-722,8,0,14,62,464,-172,1,0,36,28,600,1,53298,1
2,29424,30745,32104,54679,16419,-4204,922,-716,21,1,18,57,469,-161,1,0,36,28,640,1,53298,1
2,29425,30744,32085,54680,16443,-4230,902,-732,8,5,24,54,462,-162,1,0,36,28,680,1,53298,1
2,29429,30742,32095,54681,16467,-4217,916,-718,2,-13,12,56,462,-176,1,0,36,28,720,1,53298,1
2,29438,30747,32095,54682,16491,-4218,909,-714,9,-17,25,57,467,-157,1,0,36,28,760,1,53298,1
2,29433,30745,32085,54683,16515,-4212,915,-713,9,-14,23,57,465,-167,1,0,36,28,800,1,53298,1
2,29435,30747,32096,54684,16539,-4221,919,-715,9,-7,30,58,472,-158,1,0,36,28,840,1,53298,1
2,29443,30745,32088,54685,16563,-4218,909,-726,5,-4,18,51,469,-177,1,0,36,28,880,1,53298,1
2,29440,30745,32096,54686,16587,-4211,916,-738,13,-6,18,51,461,-175,1,0,36,28,920,1,53298,1
2,29461,30741,32092,54687,16612,-4222,902,-720,-1,-11,18,50,468,-170,1,0,36,28,960,1,53298,1
1,29460,30744,32087,54688,0,-4220,910,-714,1,-7,24,57,463,-167,1,0,36,29,0,0,53298,1
2,29471,30746,32092,54689,15620,-4216,917,-715,7,-3,17,53,475,-171,1,0,36,29,40,0,53298,1
2,29459,30743,32085,54690,15644,-4226,910,-723,23,-9,22,45,469,-153,1,0,36,29,80,0,53298,1
2,29461,30741,32094,54691,15668,-4229,905,-719,9,-3,25,52,458,-166,1,0,36,29,120,0,53298,1
2,29461,30741,32083,54692,15692,-4219,921,-727,15,-9,24,60,476,-166,1,0,36,29,160,0,53298,1
2,29465,30745,32088,54693,15715,-4219,917,-723,-3,-6,22,58,462,-174,1,0,36,29,200,0,53298,1
2,29448,30744,32090,54694,15738,-4221,917,-716,1,-18,22,54,468,-166,1,0,36,29,240,0,53298,1
2,29463,30748,32083,54695,15762,-4220,906,-723,3,-9,26,64,462,-166,1,0,36,29,280,0,53298,1
2,29467,30749,32095,54696,15786,-4212,918,-730,16,-17,23,55,467,-161,1,0,36,29,320,0,53298,1
2,29463,30747,32091,54697,15810,-4209,923,-713,8,0,23,54,468,-174,1,0,36,29,360,0,53298,1
2,29459,30746,32105,54698,15834,-4224,908,-706,2,-9,11,68,470,-164,1,0,36,29,400,0,53298,1
2,29454,30746,32093,54699,15858,-4219,916,-719,19,-7,25,49,465,-173,1,0,36,29,440,0,53298,1
2,29462,30747,32096,54700,15882,-4218,923,-718,8,-5,17,51,463,-163,1,0,36,29,480,0,53298,1
2,29437,30746,32100,54701,15906,-4225,908,-719,12,0,30,57,471,-167,1,0,36,29,520,0,53298,1
2,29461,30745,32097,54702,15930,-4218,912,-726,8,-3,16,53,463,-155,1,0,36,29,560,0,53298,1
2,29449,30749,32089,54703,15956,-4228,908,-709,9,-3,17,63,467,-169,1,0,36,29,600,0,53298,1
2,29457,30754,32114,54704,15980,-4222,915,-715,10,-7,24,53,471,-169,1,0,36,29,640,0,53298,1
2,29457,30749,32095,54705,16005,-4223,918,-707,1,-4,21,54,468,-172,1,0,36,29,680,0,53298,1
2,29469,30752,32089,54706,16028,-4205,913,-712,13,1,24,55,467,-165,1,0,36,29,720,0,53298,1
2,29446,30748,32091,54707,16053,-4227,912,-717,18,6,16,55,463,-161,1,0,36,29,760,0,53298,1
2,29470,30751,32103,54708,16076,-4221,909,-716,14,5,16,63,457,-169,1,0,36,29,800,0,53298,1
2,29445,30748,32096,54709,16100,-4215,922,-719,16,-5,17,62,466,-166,1,0,36,29,840,0,53298,1
2,29445,30750,32106,54710,16124,-4217,918,-702,17,-4,23,57,465,-167,1,0,36,29,880,0,53298,1
2,29463,30748,32093,54711,16149,-4220,918,-717,-6,-5,28,59,475,-165,1,0,36,29,920,0,53298,1
2,29456,30749,32104,54712,16173,-4237,903,-718,1,-12,22,55,463,-159,1,0,36,29,960,0,53298,1
1,29443,30749,32106,54713,0,-4216,918,-719,8,-7,22,53,471,-165,1,0,36,30,0,0,53298,1
2,29436,30748,32100,54714,15180,-4217,911,-715,18,-8,24,60,466,-168,1,0,36,30,40,0,53298,1
2,29461,30748,32100,54715,15205,-4223,899,-708,6,-2,26,55,475,-167,1,0,36,30,80,0,53298,1
2,29463,30747,32099,54716,15229,-4219,919,-721,2,-5,17,56,476,-174,1,0,36,30,120,0,53298,1
2,29446,30749,32110,54717,15252,-4219,912,-709,9,-9,17,58,462,-164,1,0,36,30,160,0,53298,1
2,29428,30749,32112,54718,15276,-4214,916,-711,7,-9,18,53,461,-157,1,0,36,30,200,0,53298,1
2,29435,30745,32100,54719,15300,-4233,908,-695,6,-1,17,49,473,-171,1,0,36,30,240,0,53298,1
2,29437,30743,32095,54720,15325,-4224,918,-713,11,3,19,62,476,-164,1,0,36,30,280,0,53298,1
2,29428,30743,32088,54721,15350,-4212,917,-711,20,-5,16,54,472,-178,1,0,36,30,320,0,53298,1
2,29428,30745,32102,54722,15374,-4207,915,-726,12,-8,23,56,468,-170,1,0,36,30,360,0,53298,1
2,29446,30749,32087,54723,15397,-4219,913,-721,11,3,16,53,471,-163,1,0,36,30,400,0,53298,1
2,29440,30749,32091,54724,15421,-4205,925,-724,13,-6,23,59,473,-165,1,0,36,30,440,0,53298,1
2,29463,30743,32098,54725,15445,-4217,925,-712,6,-6,20,55,465,-163,1,0,36,30,480,0,53298,1
2,29445,30743,32091,54726,15469,-4229,911,-731,17,4,22,62,462,-166,1,0,36,30,520,0,53298,1
2,29469,30745,32104,54727,15493,-4215,908,-715,10,-2,18,47,473,-171,1,0,36,30,560,0,53298,1
2,29459,30745,32084,54728,15518,-4212,916,-697,15,-10,22,60,468,-164,1,0,36,30,600,0,53298,1
2,29447,30745,32092,54729,15543,-4226,900,-715,-8,0,19,52,462,-158,1,0,36,30,640,0,53298,1
2,29451,30745,32089,54730,15567,-4223,923,-715,-2,-7,20,61,469,-171,1,0,36,30,680,0,53298,1
2,29435,30745,32089,54731,15591,-4217,906,-714,11,-2,22,56,466,-166,1,0,36,30,720,0,53298,1
2,29432,30745,32085,54732,15616,-4217,908,-722,10,-4,27,61,469,-165,1,0,36,30,760,0,53298,1
2,29462,30745,32091,54733,15640,-4208,923,-705,5,-2,21,62,460,-164,1,0,36,30,800,0,53298,1
2,29459,30745,32090,54734,15665,-4213,911,-722,1,-13,20,50,472,-158,1,0,36,30,840,0,53298,1
2,29457,30745,32094,54735,15690,-4228,900,-710,15,-12,27,62,468,-174,1,0,36,30,880,0,53298,1
2,29450,30744,32089,54736,15714,-4228,909,-722,12,-10,24,58,458,-166,1,0,36,30,920,0,53298,1
2,29430,30745,32090,54737,15739,-4219,909,-707,10,-2,27,57,471,-173,1,0,36,30,960,0,53298,1
1,29438,30747,32086,54738,0,-4226,906,-713,5,3,19,59,469,-167,1,0,36,31,0,1,53298,1
2,29443,30747,32095,54739,14741,-4224,906,-712,15,3,21,51,469,-173,1,0,36,31,40,1,53298,1
2,29450,30745,32108,54740,14767,-4215,909,-718,7,-6,20,60,468,-158,1,0,36,31,80,1,53298,1
2,29444,30748,32095,54741,14792,-4220,912,-708,4,-8,20,58,462,-168,1,0,36,31,120,1,53298,1
2,29457,30746,32107,54742,14816,-4215,915,-734,6,-10,24,56,468,-170,1,0,36,31,160,1,53298,1
2,29430,30747,32097,54743,14842,-4211,916,-712,12,-10,21,54,460,-168,1,0,36,31,200,1,53298,1
2,29433,30746,32096,54744,14866,-4232,910,-727,-1,7,28,54,464,-168,1,0,36,31,240,1,53298,1
2,29423,30747,32098,54745,14892,-4215,919,-719,15,-5,20,55,463,-173,1,0,36,31,280,1,53298,1
2,29443,30748,32107,54746,14917,-4221,919,-730,20,2,25,57,467,-169,1,0,36,31,320,1,53298,1
2,29428,30748,32089,54747,14941,-4218,912,-732,18,-11,18,56,472,-160,1,0,36,31,360,1,53298,1
2,29426,30745,32095,54748,14967,-4215,929,-712,4,-8,28,51,463,-159,1,0,36,31,400,1,53298,1
2,29425,30747,32099,54749,14993,-4221,916,-728,-6,-3,19,63,471,-173,1,0,36,31,440,1,53298,1
2,29410,30749,32097,54750,15018,-4213,918,-696,6,-9,17,66,472,-172,1,0,36,31,480,1,53298,1
2,29404,30745,32099,54751,15044,-4221,910,-709,9,-13,20,62,456,-172,1,0,36,31,520,1,53298,1
2,29415,30744,32094,54752,15068,-4217,922,-719,15,-6,24,62,470,-174,1,0,36,31,560,1,53298,1
2,29431,30743,32102,54753,15093,-4229,907,-704,0,2,20,64,470,-170,1,0,36,31,600,1,53298,1
2,29439,30746,32095,54754,15117,-4225,901,-710,7,-10,20,50,464,-154,1,0,36,31,640,1,53298,1
2,29446,30746,32095,54755,15142,-4225,908,-721,11,-11,23,55,463,-161,1,0,36,31,680,1,53298,1
2,29462,30744,32095,54756,15166,-4218,918,-708,8,-8,25,52,470,-162,1,0,36,31,720,1,53298,1
2,29463,30747,32096,54757,15190,-4215,919,-720,7,-5,18,60,470,-162,1,0,36,31,760,1,53298,1
2,29455,30747,32099,54758,15214,-4215,913,-705,16,-1,21,59,463,-171,1,0,36,31,800,1,53298,1
2,29466,30746,32094,54759,15237,-4220,903,-717,18,-5,21,63,475,-169,1,0,36,31,840,1,53298,1
2,29485,30743,32104,54760,15261,-4218,917,-713,9,-7,14,53,473,-163,1,0,36,31,880,1,53298,1
2,29468,30746,32093,54761,15286,-4222,904,-701,12,2,9,53,463,-165,1,0,36,31,920,1,53298,1
2,29455,30748,32094,54762,15310,-4220,902,-724,13,-2,20,59,459,-165,1,0,36,31,960,1,53298,1
1,29447,30744,32087,54763,0,-4226,911,-708,3,11,29,55,471,-163,1,0,36,32,0,0,53298,1
2,29460,30745,32096,54764,14303,-4216,924,-713,15,-10,21,64,460,-166,1,0,36,32,40,0,53298,1
2,29465,30745,32096,54765,14327,-4233,911,-720,14,4,21,55,477,-163,1,0,36,32,80,0,53298,1
2,29482,30747,32096,54766,14351,-4219,913,-717,5,-14,18,60,466,-156,1,0,36,32,120,0,53298,1
2,29477,30747,32095,54767,14376,-4234,904,-706,3,-3,26,49,473,-157,1,0,36,32,160,0,53298,1
2,29467,30746,32097,54768,14400,-4220,915,-716,13,2,18,60,468,-174,1,0,36,32,200,0,53298,1
2,29458,30746,32103,54769,14424,-4215,914,-718,3,4,13,51,465,-161,1,0,36,32,240,0,53298,1
2,29479,30746,32097,54770,14449,-4222,909,-720,6,-4,22,53,467,-163,1,0,36,32,280,0,53298,1
2,29476,30751,32095,54771,14474,-4217,919,-721,6,-14,16,58,466,-176,1,0,36,32,320,0,53298,1
2,29460,30747,32094,54772,14499,-4218,912,-711,-14,-16,14,62,464,-162,1,0,36,32,360,0,53298,1
2,29488,30746,32104,54773,14524,-4231,895,-717,-9,-16,32,54,460,-172,1,0,36,32,400,0,53298,1
2,29494,30746,32097,54774,14549,-4225,914,-713,4,-12,36,55,465,-169,1,0,36,32,440,0,53298,1
2,29499,30744,32090,54775,14573,-4228,906,-713,9,-5,58,62,468,-170,1,0,36,32,480,0,53298,1
2,29499,30747,32092,54776,14597,-4214,924,-716,68,8,55,52,470,-152,1,0,36,32,520,0,53298,1
2,29482,30747,32098,54777,14621,-4224,923,-721,115,-5,56,56,462,-170,1,0,36,32,560,0,53298,1
2,29487,30748,32090,54778,14646,-4217,906,-739,35,-3,54,53,463,-155,1,0,36,32,600,0,53298,1
2,29463,30746,32094,54779,14671,-4222,925,-703,88,-25,72,51,463,-157,1,0,36,32,640,0,53298,1
2,29465,30748,32098,54780,14698,-4219,928,-682,164,15,67,52,470,-164,1,0,36,32,680,0,53298,1
2,29452,30748,32096,54781,14724,-4217,935,-705,145,105,53,54,456,-166,1,0,36,32,720,0,53298,1
2,29456,30749,32100,54782,14749,-4217,933,-720,95,146,-5,61,463,-165,1,0,36,32,760,0,53298,1
2,29450,30749,32102,54783,14775,-4210,918,-737,57,127,-46,62,466,-174,1,0,36,32,800,0,53298,1
2,29449,30745,32098,54784,14801,-4221,903,-743,69,57,-65,51,467,-169,1,0,36,32,840,0,53298,1
2,29448,30746,32092,54785,14827,-4212,920,-721,97,35,-73,53,465,-161,1,0,36,32,880,0,53298,1
2,29461,30747,32095,54786,14852,-4217,902,-735,1,28,-60,45,469,-159,1,0,36,32,920,0,53298,1
2,29446,30747,32101,54787,14877,-4224,893,-767,-62,-16,-14,63,473,-165,1,0,36,32,960,0,53298,1
1,29457,30747,32096,54788,0,-4208,909,-743,-33,-85,47,55,463,-167,1,0,36,33,0,0,53298,1
2,29434,30748,32091,54789,13864,-4234,909,-711,-12,-113,87,62,462,-174,1,0,36,33,40,0,53298,1
2,29428,30747,32092,54790,13889,-4220,914,-711,-23,-66,88,56,472,-168,1,0,36,33,80,0,53298,1
2,29450,30747,32096,54791,13913,-4217,910,-717,68,25,86,60,466,-170,1,0,36,33,120,0,53298,1
2,29440,30745,32089,54792,13938,-4218,919,-734,140,96,51,61,471,-165,1,0,36,33,160,0,53298,1
2,29423,30745,32090,54793,13963,-4210,919,-755,94,102,-1,57,469,-167,1,0,36,33,200,0,53298,1
2,29435,30746,32103,54794,13989,-4220,911,-763,41,42,-27,60,466,-170,1,0,36,33,240,0,53298,1
2,29453,30742,32092,54795,14015,-4216,901,-750,15,-16,-23,60,474,-174,1,0,36,33,280,0,53298,1
2,29464,30744,32100,54796,14040,-4220,911,-730,12,-59,10,61,465,-169,1,0,36,33,320,0,53298,1
2,29447,30744,32093,54797,14066,-4209,917,-729,-17,-30,44,62,462,-174,1,0,36,33,360,0,53298,1
2,29445,30742,32095,54798,14092,-4209,918,-733,-20,4,75,62,470,-160,1,0,36,33,400,0,53298,1
2,29436,30745,32086,54799,14119,-4215,922,-748,-22,-10,69,54,468,-172,1,0,36,33,440,0,53298,1
2,29446,30741,32085,54800,14144,-4216,911,-742,-8,-60,24,56,470,-172,1,0,36,33,480,0,53298,1
2,29453,30743,32090,54801,14170,-4222,914,-721,-12,-72,14,54,468,-170,1,0,36,33,520,0,53298,1
2,29456,30743,32090,54802,14195,-4220,903,-725,5,-49,30,60,460,-176,1,0,36,33,560,0,53298,1
2,29455,30743,32087,54803,14220,-4222,904,-730,30,20,56,59,473,-165,1,0,36,33,600,0,53298,1
2,29454,30740,32085,54804,14246,-4214,925,-733,49,69,50,54,470,-168,1,0,36,33,640,0,53298,1
2,29469,30741,32086,54805,14272,-4217,916,-744,40,58,22,60,462,-170,1,0,36,33,680,0,53298,1
2,29471,30743,32089,54806,14297,-4207,926,-742,36,21,3,56,474,-170,1,0,36,33,720,0,53298,1
2,29421,30742,32081,54807,14322,-4214,910,-725,18,-13,5,63,477,-169,1,0,36,33,760,0,53298,1
2,29436,30745,32084,54808,14347,-4211,907,-725,-21,-25,14,65,475,-169,1,0,36,33,800,0,53298,1
2,29419,30740,32091,54809,14372,-4218,910,-714,-8,-39,17,55,461,-165,1,0,36,33,840,0,53298,1
2,29424,30740,32085,54810,14396,-4223,904,-729,-2,-20,36,53,465,-171,1,0,36,33,880,0,53298,1
2,29430,30743,32096,54811,14421,-4210,922,-728,20,-3,34,55,469,-159,1,0,36,33,920,0,53298,1
2,29438,30743,32091,54812,14446,-4210,915,-730,6,17,29,53,457,-169,1,0,36,33,960,0,53298,1
1,29434,30740,32091,54813,0,-4220,913,-745,35,25,17,54,470,-174,1,0,36,34,0,1,53298,1
2,29445,30741,32090,54814,13425,-4216,914,-741,71,17,3,52,466,-174,1,0,36,34,40,1,53298,1
2,29460,30744,32084,54815,13450,-4210,911,-741,34,23,12,55,463,-167,1,0,36,34,80,1,53298,1
2,29470,30744,32087,54816,13476,-4223,925,-747,0,14,21,59,467,-175,1,0,36,34,120,1,53298,1
2,29454,30741,32088,54817,13501,-4220,918,-741,31,-17,27,48,466,-168,1,0,36,34,160,1,53298,1
2,29390,30740,32094,54818,13526,-4223,898,-732,17,-22,24,54,466,-154,1,0,36,34,200,1,53298,1
2,29410,30742,32085,54819,13550,-4210,923,-735,-36,-26,19,57,469,-163,1,0,36,34,240,1,53298,1
2,29399,30739,32087,54820,13575,-4218,914,-732,1,-18,23,62,466,-166,1,0,36,34,280,1,53298,1
2,29415,30741,32095,54821,13600,-4226,907,-721,43,17,20,55,475,-169,1,0,36,34,320,1,53298,1
2,29430,30742,32095,54822,13625,-4225,907,-734,50,35,9,59,467,-175,1,0,36,34,360,1,53298,1
2,29422,30742,32098,54823,13650,-4208,918,-751,55,60,8,56,470,-174,1,0,36,34,400,1,53298,1
2,29429,30742,32091,54824,13676,-4220,903,-739,89,57,27,47,471,-159,1,0,36,34,440,1,53298,1
2,29433,30742,32095,54825,13701,-4229,905,-737,84,48,47,62,470,-166,1,0,36,34,480,1,53298,1
2,29418,30742,32100,54826,13726,-4214,915,-756,32,12,62,52,476,-166,1,0,36,34,520,1,53298,1
2,29425,30739,32091,54827,13751,-4204,912,-755,-64,-45,44,61,469,-167,1,0,36,34,560,1,53298,1
2,29433,30744,32091,54828,13776,-4231,910,-729,-74,-116,24,53,469,-167,1,0,36,34,600,1,53298,1
2,29438,30742,32089,54829,13802,-4206,919,-739,-106,-142,24,58,466,-176,1,0,36,34,640,1,53298,1
2,29425,30744,32093,54830,13827,-4215,910,-727,-135,-113,19,55,473,-167,1,0,36,34,680,1,53298,1
2,29415,30741,32095,54831,13851,-4216,909,-700,-45,-54,19,52,474,-170,1,0,36,34,720,1,53298,1
2,29430,30739,32082,54832,13876,-4217,920,-710,25,37,36,52,464,-156,1,0,36,34,760,1,53298,1
2,29425,30744,32092,54833,13901,-4196,922,-737,36,98,32,54,466,-174,1,0,36,34,800,1,53298,1
2,29419,30740,32090,54834,13925,-4230,920,-755,58,87,3,53,463,-169,1,0,36,34,840,1,53298,1
2,29425,30740,32097,54835,13949,-4216,892,-745,33,19,-34,57,467,-167,1,0,36,34,880,1,53298,1
2,29434,30741,32090,54836,13974,-4222,903,-731,40,-22,10,55,469,-157,1,0,36,34,920,1,53298,1
2,29411,30741,32097,54837,13999,-4214,925,-709,79,7,84,53,463,-167,1,0,36,34,960,1,53298,1
1,29405,30740,32102,54838,0,-4221,912,-726,23,72,107,54,466,-158,1,0,36,35,0,0,53298,1
2,29414,30743,32095,54839,12987,-4210,930,-764,8,77,46,54,466,-170,1,0,36,35,40,0,53298,1
2,29416,30740,32091,54840,13012,-4220,909,-756,37,8,-42,59,477,-169,1,0,36,35,80,0,53298,1
2,29414,30741,32099,54841,13037,-4222,897,-764,-74,-102,-95,60,478,-166,1,0,36,35,120,0,53298,1
2,29409,30741,32100,54842,13063,-4223,881,-747,-251,-217,-37,58,466,-166,1,0,36,35,160,0,53298,1
2,29396,30741,32098,54843,13090,-4216,901,-712,-214,-289,77,69,461,-163,1,0,36,35,200,0,53298,1
2,29384,30740,32091,54844,13116,-4201,938,-686,-142,-251,165,57,461,-173,1,0,36,35,240,0,53298,1
2,29393,30741,32092,54845,13142,-4212,930,-683,-127,-107,182,46,468,-160,1,0,36,35,280,0,53298,1
2,29391,30741,32095,54846,13168,-4213,947,-705,-35,48,122,52,460,-166,1,0,36,35,320,0,53298,1
2,29372,30745,32090,54847,13194,-4220,925,-712,117,140,26,64,462,-168,1,0,36,35,360,0,53298,1
2,29395,30747,32095,54848,13220,-4211,937,-737,168,161,-37,56,460,-162,1,0,36,35,400,0,53298,1
2,29371,30744,32102,54849,13245,-4227,909,-743,148,131,-65,54,468,-172,1,0,36,35,440,0,53298,1
2,29392,30742,32096,54850,13271,-4224,906,-733,110,92,-37,51,471,-159,1,0,36,35,480,0,53298,1
2,29379,30741,32099,54851,13296,-4216,904,-747,50,46,1,46,468,-166,1,0,36,35,520,0,53298,1
2,29368,30743,32102,54852,13321,-4218,908,-724,57,12,40,56,464,-168,1,0,36,35,560,0,53298,1
2,29369,30745,32096,54853,13347,-4208,931,-737,58,16,61,43,477,-163,1,0,36,35,600,0,53298,1
2,29367,30740,32095,54854,13373,-4219,919,-743,-1,8,38,56,468,-156,1,0,36,35,640,0,53298,1
2,29368,30743,32094,54855,13399,-4228,902,-740,-18,-17,5,59,465,-169,1,0,36,35,680,0,53298,1
2,29398,30743,32097,54856,13425,-4220,916,-720,-2,-50,-27,56,468,-164,1,0,36,35,720,0,53298,1
2,29389,30745,32101,54857,13451,-4219,917,-717,-32,-51,-22,48,466,-156,1,0,36,35,760,0,53298,1
2,29385,30749,32100,54858,13476,-4213,919,-734,-50,-31,4,55,465,-171,1,0,36,35,800,0,53298,1
2,29395,30741,32093,54859,13501,-4208,920,-722,-15,-31,24,58,464,-160,1,0,36,35,840,0,53298,1
2,29415,30743,32098,54860,13527,-4229,910,-748,-9,-47,36,57,467,-169,1,0,36,35,880,0,53298,1
2,29394,30746,32107,54861,13553,-4211,919,-718,-7,-32,43,58,462,-172,1,0,36,35,920,0,53298,1
2,29393,30743,32096,54862,13577,-4222,910,-727,16,1,46,56,458,-168,1,0,36,35,960,0,53298,1
1,29377,30744,32095,54863,0,-4209,929,-716,72,35,31,54,460,-168,1,0,36,36,0,0,53298,1
2,29379,30743,32090,54864,12547,-4215,924,-735,55,74,22,59,465,-181,1,0,36,36,40,0,53298,1
2,29375,30742,32091,54865,12573,-4206,916,-733,64,68,16,60,472,-160,1,0,36,36,80,0,53298,1
2,29389,30742,32089,54866,12598,-4212,915,-742,36,27,12,59,465,-175,1,0,36,36,120,0,53298,1
2,29389,30744,32099,54867,12623,-4222,919,-736,15,-29,15,46,472,-162,1,0,36,36,160,0,53298,1
2,29393,30745,32107,54868,12648,-4216,908,-720,-63,-66,14,54,472,-162,1,0,36,36,200,0,53298,1
2,29386,30746,32101,54869,12673,-4206,923,-726,-68,-78,27,55,467,-163,1,0,36,36,240,0,53298,1
2,29375,30742,32102,54870,12697,-4215,923,-714,-20,-38,37,49,465,-169,1,0,36,36,280,0,53298,1
2,29373,30742,32097,54871,12723,-4219,912,-738,-44,-9,18,58,464,-170,1,0,36,36,320,0,53298,1
2,29378,30745,32092,54872,12748,-4211,906,-738,-63,-36,-4,51,471,-167,1,0,36,36,360,0,53298,1
2,29373,30745,32095,54873,12773,-4213,915,-724,-5,-59,3,56,470,-162,1,0,36,36,400,0,53298,1
2,29398,30743,32093,54874,12799,-4224,901,-707,17,-47,37,50,466,-170,1,0,36,36,440,0,53298,1
2,29387,30742,32103,54875,12824,-4197,945,-721,-25,-4,61,50,464,-166,1,0,36,36,480,0,53298,1
2,29356,30743,32106,54876,12850,-4214,919,-727,-50,11,27,54,476,-162,1,0,36,36,520,0,53298,1
2,29371,30745,32095,54877,12875,-4218,932,-742,-24,-18,-10,55,467,-167,1,0,36,36,560,0,53298,1
2,29384,30746,32099,54878,12900,-4216,913,-739,-36,-30,-39,61,471,-173,1,0,36,36,600,0,53298,1
2,29371,30746,32103,54879,12924,-4226,899,-692,65,-16,3,58,462,-168,1,0,36,36,640,0,53298,1
2,29390,30743,32102,54880,12950,-4206,925,-703,96,59,74,54,466,-174,1,0,36,36,680,0,53298,1
2,29373,30745,32099,54881,12973,-4226,910,-725,67,103,97,47,467,-163,1,0,36,36,720,0,53298,1
2,29369,30745,32097,54882,12998,-4217,916,-713,126,98,93,49,467,-159,1,0,36,36,760,0,53298,1
2,29378,30742,32096,54883,13022,-4198,939,-749,113,73,52,56,462,-164,1,0,36,36,800,0,53298,1
2,29376,30743,32102,54884,13047,-4194,943,-738,74,37,-42,59,469,-167,1,0,36,36,840,0,53298,1
2,29384,30743,32099,54885,13072,-4228,888,-737,58,22,-98,55,461,-169,1,0,36,36,880,0,53298,1
2,29394,30745,32105,54886,13096,-4231,902,-716,266,41,-78,66,472,-162,1,0,36,36,920,0,53298,1
2,29400,30744,32096,54887,13120,-4164,1005,-741,487,78,-113,56,464,-170,1,0,36,36,960,0,53298,1
1,29419,30740,32094,54888,0,-4306,874,-734,-106,217,-218,55,477,-167,1,0,36,37,0,1,53298,1
2,29398,30743,32099,54889,12109,-4142,864,-801,-362,80,-117,54,464,-168,1,0,36,37,40,1,53298,1
2,29418,30743,32096,54890,12134,-4270,815,-830,-503,-186,210,48,474,-162,1,0,36,37,80,1,53298,1
2,29406,30742,32087,54891,12158,-4240,926,-641,332,-449,276,56,466,-168,1,0,36,37,120,1,53298,1
2,29419,30741,32092,54892,12183,-4181,1017,-608,471,-234,129,58,472,-166,1,0,36,37,160,1,53298,1
2,29408,30742,32089,54893,12208,-4271,892,-727,-380,167,-53,60,464,-170,1,0,36,37,200,1,53298,1
2,29415,30742,32091,54894,12233,-4171,857,-835,-584,253,-85,64,472,-174,1,0,36,37,240,1,53298,1
2,29410,30742,32094,54895,12258,-4243,854,-754,255,8,97,53,455,-157,1,0,36,37,280,1,53298,1
2,29412,30743,32092,54896,12283,-4217,983,-696,650,-122,118,60,472,-170,1,0,36,37,320,1,53298,1
2,29419,30744,32108,54897,12307,-4206,966,-653,47,56,-29,50,472,-164,1,0,36,37,360,1,53298,1
2,29409,30745,32103,54898,12333,-4234,851,-803,-573,166,-108,49,473,-173,1,0,36,37,400,1,53298,1
2,29416,30743,32100,54899,12357,-4213,870,-765,11,-31,-54,58,462,-170,1,0,36,37,440,1,53298,1
