sensorStatus,cap1,cap2,cap3,counter,microseconds_since_last_tick,accX,accY,accZ,gyroX,gyroY,gyroZ,magnetX,magnetY,magnetZ,day,hour,min,sec,msec,sync,battery_fuel,crc_good
2,26799,29790,31314,93822,5644,-4602,-1427,-188,-14,4,22,319,491,-171,1,1,2,34,360,0,53298,1
2,26792,29797,31312,93823,5659,-4587,-1419,-190,0,-3,25,317,491,-173,1,1,2,34,400,0,53298,1
2,26787,29781,31315,93824,5674,-4585,-1420,-193,-7,-23,35,314,490,-176,1,1,2,34,440,0,53298,1
2,26790,29797,31315,93825,5689,-4595,-1418,-189,-5,-26,45,318,492,-174,1,1,2,34,480,0,53298,1
2,26780,29768,31317,93826,5704,-4604,-1430,-171,-6,-21,32,323,493,-169,1,1,2,34,520,0,53298,1
2,26780,29802,31318,93827,5719,-4588,-1419,-184,-16,-14,15,314,494,-174,1,1,2,34,560,0,53298,1
2,26785,29804,31318,93828,5733,-4592,-1417,-182,-10,-5,14,315,493,-171,1,1,2,34,600,0,53298,1
2,26794,29817,31319,93829,5748,-4591,-1429,-189,-13,3,22,318,490,-188,1,1,2,34,640,0,53298,1
2,26787,29809,31315,93830,5763,-4593,-1420,-191,-10,-10,37,310,484,-178,1,1,2,34,680,0,53298,1
2,26786,29793,31314,93831,5778,-4601,-1418,-174,2,-13,34,319,481,-179,1,1,2,34,720,0,53298,1
2,26773,29809,31318,93832,5793,-4595,-1418,-187,-3,-7,22,324,490,-176,1,1,2,34,760,0,53298,1
2,26785,29799,31317,93833,5808,-4610,-1426,-179,-17,-16,17,314,486,-172,1,1,2,34,800,0,53298,1
2,26781,29772,31312,93834,5823,-4594,-1415,-192,-15,-12,17,309,483,-175,1,1,2,34,840,0,53298,1
2,26780,29767,31311,93835,5838,-4599,-1422,-181,-10,-11,17,312,490,-170,1,1,2,34,880,0,53298,1
2,26773,29761,31312,93836,5854,-4596,-1423,-181,-5,-13,14,316,490,-180,1,1,2,34,920,0,53298,1
2,26778,29776,31312,93837,5854,-4606,-1424,-182,-5,-7,28,318,498,-186,1,1,2,34,960,0,53298,1
1,26777,29770,31310,93838,5076,-4596,-1417,-193,-3,-15,32,311,485,-177,1,1,2,35,0,0,53298,1
2,26783,29760,31310,93839,5090,-4596,-1425,-183,-5,-25,25,314,488,-180,1,1,2,35,40,0,53298,1
2,26782,29778,31310,93840,5104,-4593,-1421,-181,-4,-32,28,312,484,-174,1,1,2,35,80,0,53298,1
2,26783,29762,31310,93841,5118,-4590,-1423,-174,0,-27,30,318,488,-170,1,1,2,35,120,0,53298,1
2,26790,29780,31317,93842,5132,-4589,-1411,-179,-4,-7,28,315,489,-177,1,1,2,35,160,0,53298,1
2,26795,29781,31313,93843,5147,-4591,-1423,-190,-5,-8,21,318,488,-172,1,1,2,35,200,0,53298,1
2,26794,29775,31315,93844,5161,-4599,-1432,-180,-4,-4,22,305,479,-175,1,1,2,35,240,0,53298,1
2,26797,29794,31315,93845,5175,-4580,-1419,-181,-2,3,16,314,484,-172,1,1,2,35,280,0,53298,1
2,26793,29803,31319,93846,5189,-4590,-1424,-183,-4,-5,13,315,495,-177,1,1,2,35,320,0,53298,1
2,26806,29840,31317,93847,5204,-4599,-1418,-186,-6,-11,30,313,491,-173,1,1,2,35,360,0,53298,1
2,26797,29820,31317,93848,5218,-4595,-1425,-184,-3,-8,31,312,488,-172,1,1,2,35,400,0,53298,1
2,26798,29811,31320,93849,5233,-4594,-1418,-179,-2,-14,34,315,485,-179,1,1,2,35,440,0,53298,1
0,26798,29811,31320,93849,5233,-4594,-1418,-179,-2,-14,34,315,485,-179,1,1,2,35,440,0,53298,1
2,26794,29829,31322,93851,5263,-4597,-1425,-184,-10,-7,20,315,489,-175,1,1,2,35,520,0,53298,1
2,26791,29830,31321,93852,5278,-4601,-1434,-182,-6,1,17,315,491,-169,1,1,2,35,560,0,53298,1
2,26794,29840,31317,93853,5293,-4606,-1433,-181,-11,1,19,325,487,-179,1,1,2,35,600,0,53298,1
2,26790,29850,31320,93854,5306,-4584,-1420,-180,-8,-5,29,315,493,-171,1,1,2,35,640,0,53298,1
2,26797,29874,31320,93855,5321,-4592,-1417,-189,-2,-3,36,316,488,-176,1,1,2,35,680,0,53298,1
2,26802,29872,31321,93856,5335,-4596,-1423,-176,-5,-13,22,314,490,-176,1,1,2,35,720,0,53298,1
2,26780,29889,31319,93857,5350,-4590,-1423,-187,3,-17,16,316,492,-180,1,1,2,35,760,0,53298,1
2,26787,29893,31318,93858,5365,-4596,-1427,-181,-5,-13,29,322,486,-176,1,1,2,35,800,0,53298,1
2,26780,29880,31325,93859,5380,-4599,-1420,-182,-2,-16,31,312,482,-166,1,1,2,35,840,0,53298,1
2,26784,29912,31323,93860,5395,-4607,-1434,-179,-12,-7,22,314,492,-162,1,1,2,35,880,0,53298,1
2,26784,29936,31325,93861,5411,-4604,-1417,-179,-19,-1,24,316,492,-166,1,1,2,35,920,0,53298,1
2,26795,29924,31325,93862,5411,-4587,-1424,-175,-7,-5,28,310,486,-176,1,1,2,35,960,0,53298,1
1,26786,29950,31325,93863,4636,-4584,-1418,-193,-12,-8,21,323,487,-173,1,1,2,36,0,1,53298,1
2,26786,29930,31326,93864,4652,-4589,-1424,-187,-7,-12,29,308,488,-168,1,1,2,36,40,1,53298,1
2,26789,29919,31325,93865,4667,-4595,-1430,-192,-4,-15,45,313,491,-177,1,1,2,36,80,1,53298,1
2,26784,29948,31325,93866,4683,-4587,-1416,-182,-6,-11,35,317,485,-175,1,1,2,36,120,1,53298,1
2,26792,29942,31326,93867,4698,-4590,-1419,-174,-9,-9,33,314,492,-178,1,1,2,36,160,1,53298,1
2,26789,29924,31326,93868,4715,-4590,-1412,-187,-12,-4,16,316,484,-178,1,1,2,36,200,1,53298,1
2,26780,29909,31324,93869,4731,-4600,-1416,-185,-9,-5,19,319,491,-173,1,1,2,36,240,1,53298,1
2,26780,29915,31328,93870,4747,-4596,-1428,-190,-11,-9,23,320,486,-180,1,1,2,36,280,1,53298,1
2,26781,29925,31327,93871,4763,-4588,-1415,-187,-13,-8,26,317,489,-177,1,1,2,36,320,1,53298,1
2,26778,29910,31328,93872,4779,-4599,-1414,-173,-2,-27,34,315,489,-167,1,1,2,36,360,1,53298,1
2,26790,29931,31330,93873,4795,-4588,-1425,-184,0,-19,33,314,486,-170,1,1,2,36,400,1,53298,1
2,26794,29922,31326,93874,4811,-4593,-1425,-180,-5,-21,38,315,485,-177,1,1,2,36,440,1,53298,1
0,26794,29922,31326,93874,4811,-4593,-1425,-180,-5,-21,38,315,485,-177,1,1,2,36,440,1,53298,1
2,26777,29996,31329,93889,4212,-4600,-1428,-192,-13,-7,23,311,483,-183,1,1,2,37,40,0,53298,1
2,26776,29998,31330,93890,4228,-4588,-1414,-192,-12,-3,17,317,491,-169,1,1,2,37,80,0,53298,1
2,26779,30031,31330,93891,4244,-4605,-1437,-188,-10,-2,12,317,497,-173,1,1,2,37,120,0,53298,1
2,26789,30035,31331,93892,4260,-4597,-1422,-188,-14,-5,19,314,500,-176,1,1,2,37,160,0,53298,1
2,26782,30037,31335,93893,4276,-4584,-1418,-177,-1,-8,21,315,493,-169,1,1,2,37,200,0,53298,1
2,26785,30062,31332,93894,4291,-4596,-1421,-192,-4,-6,12,315,497,-181,1,1,2,37,240,0,53298,1
2,26787,30059,31332,93895,4306,-4607,-1429,-188,-3,-7,17,318,486,-174,1,1,2,37,280,0,53298,1
2,26784,30074,31330,93896,4322,-4602,-1431,-186,-1,-20,15,315,487,-173,1,1,2,37,320,0,53298,1
2,26780,30085,31331,93897,4338,-4590,-1425,-175,3,-18,25,315,489,-181,1,1,2,37,360,0,53298,1
2,26785,30107,31331,93898,4353,-4586,-1412,-190,-10,-23,32,320,490,-178,1,1,2,37,400,0,53298,1
2,26787,30119,31330,93899,4369,-4592,-1413,-187,1,-17,25,317,493,-163,1,1,2,37,440,0,53298,1
2,26793,30122,31333,93900,4384,-4603,-1433,-201,-10,4,18,316,480,-172,1,1,2,37,480,0,53298,1
2,26784,30118,31329,93901,4400,-4597,-1424,-181,-12,-10,19,320,492,-174,1,1,2,37,520,0,53298,1
2,26778,30139,31336,93902,4414,-4590,-1422,-182,-9,-13,15,318,492,-174,1,1,2,37,560,0,53298,1
2,26779,30131,31333,93903,4428,-4591,-1423,-191,-10,-18,19,319,483,-175,1,1,2,37,600,0,53298,1
2,26776,30135,31332,93904,4444,-4590,-1428,-172,-4,-13,25,315,493,-179,1,1,2,37,640,0,53298,1
2,26773,30137,31330,93905,4459,-4590,-1421,-193,-4,-6,45,314,488,-172,1,1,2,37,680,0,53298,1
2,26771,30131,31332,93906,4474,-4599,-1422,-188,-1,-10,28,317,481,-175,1,1,2,37,720,0,53298,1
2,26783,30142,31333,93907,4489,-4588,-1418,-188,-10,-12,23,311,497,-161,1,1,2,37,760,0,53298,1
2,26779,30152,31332,93908,4503,-4578,-1417,-183,-6,-10,28,318,488,-176,1,1,2,37,800,0,53298,1
2,26779,30159,31337,93909,4518,-4589,-1427,-188,-7,-3,30,312,490,-174,1,1,2,37,840,0,53298,1
2,26774,30147,31335,93910,4533,-4584,-1418,-189,-6,-12,21,312,486,-174,1,1,2,37,880,0,53298,1
2,26770,30159,31329,93911,4549,-4590,-1417,-185,-12,-9,17,317,489,-171,1,1,2,37,920,0,53298,1
2,26775,30174,31330,93912,4549,-4594,-1422,-188,-7,-10,16,317,477,-167,1,1,2,37,960,0,53298,1
1,26774,30182,31335,93913,3755,-4583,-1419,-185,-5,-9,24,311,489,-175,1,1,2,38,0,1,53298,1
2,26768,30157,31334,93914,3771,-4593,-1417,-188,-5,-15,31,309,489,-171,1,1,2,38,40,1,53298,1
2,26772,30166,31332,93915,3787,-4597,-1410,-202,-1,-7,32,320,484,-178,1,1,2,38,80,1,53298,1
2,26776,30174,31332,93916,3803,-4606,-1428,-173,-6,-5,31,320,480,-166,1,1,2,38,120,1,53298,1
2,26774,30141,31329,93917,3819,-4595,-1421,-181,-12,-10,19,323,493,-173,1,1,2,38,160,1,53298,1
2,26779,30189,31332,93918,3834,-4598,-1430,-186,-3,-11,15,305,491,-169,1,1,2,38,200,1,53298,1
2,26771,30185,31334,93919,3850,-4595,-1417,-197,-13,-11,21,311,485,-177,1,1,2,38,240,1,53298,1
2,26776,30197,31336,93920,3865,-4571,-1410,-190,-10,-21,20,318,488,-178,1,1,2,38,280,1,53298,1
2,26781,30192,31335,93921,3881,-4575,-1409,-185,-1,-12,28,320,494,-168,1,1,2,38,320,1,53298,1
2,26788,30202,31335,93922,3896,-4586,-1418,-185,5,-13,33,313,483,-179,1,1,2,38,360,1,53298,1
2,26780,30217,31334,93923,3911,-4608,-1430,-185,-9,-17,24,318,494,-180,1,1,2,38,400,1,53298,1
2,26779,30208,31335,93924,3925,-4591,-1427,-187,-5,-17,29,322,488,-180,1,1,2,38,440,1,53298,1
2,26789,30211,31335,93925,3940,-4590,-1427,-186,-5,-4,25,312,490,-162,1,1,2,38,480,1,53298,1
2,26781,30221,31334,93926,3954,-4589,-1427,-200,-7,-8,28,312,494,-176,1,1,2,38,520,1,53298,1
2,26785,30204,31333,93927,3969,-4592,-1411,-198,-5,-13,26,312,492,-174,1,1,2,38,560,1,53298,1
2,26779,30212,31335,93928,3983,-4582,-1427,-198,-16,-4,12,321,487,-173,1,1,2,38,600,1,53298,1
2,26774,30218,31335,93929,3998,-4599,-1428,-187,-7,-7,18,320,494,-180,1,1,2,38,640,1,53298,1
2,26780,30218,31335,93930,4012,-4589,-1422,-167,-6,-13,27,322,494,-178,1,1,2,38,680,1,53298,1
2,26778,30224,31339,93931,4027,-4593,-1418,-192,3,-14,31,324,486,-176,1,1,2,38,720,1,53298,1
2,26788,30226,31334,93932,4042,-4602,-1435,-195,-6,-4,36,320,492,-168,1,1,2,38,760,1,53298,1
2,26790,30237,31336,93933,4057,-4585,-1411,-197,-8,-6,28,315,491,-167,1,1,2,38,800,1,53298,1
2,26784,30220,31341,93934,4073,-4591,-1416,-189,-11,-8,18,310,486,-184,1,1,2,38,840,1,53298,1
2,26779,30245,31334,93935,4089,-4590,-1426,-170,-16,-9,25,315,481,-179,1,1,2,38,880,1,53298,1
2,26788,30241,31335,93936,4104,-4589,-1426,-189,-15,-11,18,318,486,-180,1,1,2,38,920,1,53298,1
2,26784,30238,31331,93937,4104,-4591,-1428,-176,-12,-6,31,317,491,-177,1,1,2,38,960,1,53298,1
1,26780,30246,31337,93938,3314,-4591,-1424,-175,-1,-9,26,317,489,-173,1,1,2,39,0,0,53298,1
2,26782,30253,31335,93939,3329,-4593,-1409,-187,-5,-15,26,320,490,-176,1,1,2,39,40,0,53298,1
2,26781,30250,31335,93940,3345,-4592,-1432,-169,-12,-10,23,323,487,-169,1,1,2,39,80,0,53298,1
2,26779,30255,31335,93941,3360,-4582,-1419,-188,-9,-15,26,312,488,-182,1,1,2,39,120,0,53298,1
2,26786,30262,31337,93942,3375,-4602,-1428,-185,-7,0,23,320,480,-176,1,1,2,39,160,0,53298,1
2,26784,30248,31337,93943,3389,-4594,-1417,-188,-4,-8,27,316,488,-174,1,1,2,39,200,0,53298,1
2,26786,30259,31338,93944,3403,-4591,-1408,-171,-10,-12,14,316,484,-172,1,1,2,39,240,0,53298,1
2,26790,30241,31334,93945,3418,-4584,-1420,-194,-13,-13,20,309,489,-177,1,1,2,39,280,0,53298,1
2,26790,30268,31335,93946,3432,-4593,-1429,-175,-1,-19,22,320,486,-176,1,1,2,39,320,0,53298,1
2,26783,30270,31337,93947,3447,-4575,-1423,-177,-5,-17,27,313,493,-177,1,1,2,39,360,0,53298,1
2,26781,30259,31334,93948,3462,-4596,-1422,-194,-4,-16,32,324,494,-178,1,1,2,39,400,0,53298,1
2,26795,30252,31334,93949,3476,-4580,-1415,-192,-2,-19,27,319,485,-173,1,1,2,39,440,0,53298,1
2,26780,30264,31335,93950,3490,-4593,-1417,-178,-7,-11,25,317,489,-173,1,1,2,39,480,0,53298,1
2,26786,30262,31335,93951,3504,-4605,-1427,-190,-14,-25,8,309,491,-171,1,1,2,39,520,0,53298,1
2,26785,30264,31339,93952,3518,-4595,-1425,-179,-17,-49,-13,320,488,-176,1,1,2,39,560,0,53298,1
2,26780,30274,31339,93953,3532,-4595,-1413,-181,-10,-61,-2,307,481,-163,1,1,2,39,600,0,53298,1
2,26772,30291,31337,93954,3545,-4590,-1424,-177,-17,-60,3,317,493,-175,1,1,2,39,640,0,53298,1
2,26778,30290,31332,93955,3560,-4597,-1428,-173,0,-36,27,315,489,-171,1,1,2,39,680,0,53298,1
2,26787,30280,31334,93956,3575,-4592,-1422,-157,5,9,36,313,489,-165,1,1,2,39,720,0,53298,1
2,26796,30290,31335,93957,3589,-4597,-1423,-176,-9,45,37,319,481,-177,1,1,2,39,760,0,53298,1
2,26792,30289,31337,93958,3604,-4598,-1421,-201,-23,47,25,311,487,-173,1,1,2,39,800,0,53298,1
2,26783,30299,31331,93959,3619,-4606,-1429,-197,-16,10,19,311,479,-163,1,1,2,39,840,0,53298,1
2,26789,30291,31332,93960,3632,-4596,-1425,-181,-10,-29,13,312,490,-174,1,1,2,39,880,0,53298,1
2,26783,30316,31335,93961,3646,-4586,-1414,-192,-4,-57,20,315,493,-171,1,1,2,39,920,0,53298,1
2,26784,30298,31333,93962,3646,-4590,-1425,-181,-3,-55,22,319,493,-175,1,1,2,39,960,0,53298,1
1,26789,30297,31335,93963,2874,-4591,-1423,-188,9,-231,34,311,493,-177,1,1,2,40,0,1,53298,1
2,26806,30298,31335,93964,2888,-4606,-1436,-175,-9,25,33,323,495,-181,1,1,2,40,40,1,53298,1
2,26814,30300,31335,93965,2903,-4588,-1427,-191,-13,33,20,310,482,-178,1,1,2,40,80,1,53298,1
2,26806,30317,31337,93966,2918,-4591,-1425,-195,-8,25,12,308,480,-186,1,1,2,40,120,1,53298,1
2,26799,30305,31330,93967,2934,-4607,-1437,-182,-10,9,18,312,492,-174,1,1,2,40,160,1,53298,1
2,26798,30307,31337,93968,2948,-4583,-1412,-194,-5,-12,22,316,488,-178,1,1,2,40,200,1,53298,1
2,26788,30308,31333,93969,2963,-4598,-1431,-181,-5,-33,45,323,485,-181,1,1,2,40,240,1,53298,1
2,26793,30315,31335,93970,2979,-4598,-1421,-194,-8,-41,47,310,488,-178,1,1,2,40,280,1,53298,1
2,26800,30315,31334,93971,2994,-4590,-1425,-173,-6,-34,22,327,489,-181,1,1,2,40,320,1,53298,1
2,26795,30310,31334,93972,3008,-4593,-1417,-187,-6,-32,1,311,491,-169,1,1,2,40,360,1,53298,1
2,26795,30311,31332,93973,3023,-4602,-1426,-182,-17,-35,10,318,480,-168,1,1,2,40,400,1,53298,1
2,26799,30317,31331,93974,3038,-4585,-1420,-175,-2,-35,25,307,487,-173,1,1,2,40,440,1,53298,1
2,26803,30321,31335,93975,3053,-4588,-1423,-184,-3,-32,19,311,487,-185,1,1,2,40,480,1,53298,1
2,26797,30317,31333,93976,3067,-4601,-1430,-177,-5,4,29,314,490,-176,1,1,2,40,520,1,53298,1
2,26797,30322,31335,93977,3082,-4598,-1430,-183,-2,26,37,313,489,-177,1,1,2,40,560,1,53298,1
2,26795,30317,31335,93978,3098,-4602,-1432,-191,-15,37,19,315,487,-181,1,1,2,40,600,1,53298,1
2,26798,30334,31339,93979,3112,-4597,-1422,-180,-15,23,11,312,490,-172,1,1,2,40,640,1,53298,1
2,26795,30318,31332,93980,3127,-4588,-1430,-185,-17,5,18,315,487,-173,1,1,2,40,680,1,53298,1
2,26793,30311,31335,93981,3141,-4582,-1421,-178,-7,-8,21,310,488,-156,1,1,2,40,720,1,53298,1
2,26795,30314,31333,93982,3155,-4601,-1436,-198,-4,-9,36,312,490,-178,1,1,2,40,760,1,53298,1
2,26795,30316,31333,93983,3169,-4593,-1422,-198,-4,-32,45,314,492,-168,1,1,2,40,800,1,53298,1
2,26796,30314,31335,93984,3183,-4585,-1421,-179,7,-34,52,315,493,-173,1,1,2,40,840,1,53298,1
2,26788,30309,31333,93985,3197,-4590,-1423,-174,-3,-30,33,320,490,-172,1,1,2,40,880,1,53298,1
2,26796,30304,31334,93986,3212,-4599,-1426,-186,-3,-27,10,320,486,-174,1,1,2,40,920,1,53298,1
2,26797,30321,31333,93987,3212,-4587,-1421,-182,-12,-10,13,306,490,-170,1,1,2,40,960,1,53298,1
1,26808,30319,31333,93988,2434,-4591,-1430,-170,-8,-4,29,312,494,-178,1,1,2,41,0,1,53298,1
2,26805,30309,31334,93989,2448,-4586,-1420,-187,-7,-14,31,319,483,-173,1,1,2,41,40,1,53298,1
2,26797,30319,31337,93990,2462,-4595,-1436,-184,-3,-15,39,312,488,-174,1,1,2,41,80,1,53298,1
2,26799,30336,31337,93991,2477,-4596,-1429,-195,-1,-22,33,312,488,-180,1,1,2,41,120,1,53298,1
2,26796,30335,31336,93992,2491,-4588,-1414,-174,2,-24,30,317,493,-185,1,1,2,41,160,1,53298,1
2,26795,30332,31335,93993,2505,-4592,-1424,-200,-3,-18,26,312,484,-180,1,1,2,41,200,1,53298,1
2,26797,30326,31335,93994,2519,-4598,-1432,-179,-5,-11,18,316,490,-182,1,1,2,41,240,1,53298,1
2,26797,30332,31339,93995,2533,-4586,-1417,-193,-6,2,21,311,493,-163,1,1,2,41,280,1,53298,1
2,26793,30332,31335,93996,2547,-4597,-1423,-172,-11,7,8,322,494,-164,1,1,2,41,320,1,53298,1
2,26787,30330,31333,93997,2560,-4603,-1434,-182,-14,3,13,318,488,-172,1,1,2,41,360,1,53298,1
2,26796,30331,31333,93998,2574,-4590,-1420,-187,-16,5,17,308,488,-162,1,1,2,41,400,1,53298,1
2,26792,30318,31335,93999,2587,-4579,-1423,-194,-6,254,25,316,494,-172,1,1,2,41,440,1,53298,1
2,26796,30334,31335,94000,2601,-4601,-1435,-186,-7,-18,37,317,487,-179,1,1,2,41,480,1,53298,1
2,26798,30332,31335,94001,2614,-4589,-1420,-183,-5,-16,37,314,490,-172,1,1,2,41,520,1,53298,1
2,26814,30340,31332,94002,2627,-4597,-1426,-176,-2,-19,28,312,490,-178,1,1,2,41,560,1,53298,1
2,26810,30333,31330,94003,2641,-4585,-1420,-193,-4,-7,13,322,486,-174,1,1,2,41,600,1,53298,1
2,26809,30345,31335,94004,2654,-4598,-1436,-183,-16,-3,23,321,489,-185,1,1,2,41,640,1,53298,1
2,26820,30332,31333,94005,2668,-4591,-1421,-194,-4,-1,21,320,492,-184,1,1,2,41,680,1,53298,1
2,26811,30340,31332,94006,2683,-4606,-1435,-185,-10,-7,28,316,486,-174,1,1,2,41,720,1,53298,1
2,26803,30340,31337,94007,2697,-4591,-1426,-185,-4,-19,29,322,484,-182,1,1,2,41,760,1,53298,1
2,26802,30326,31334,94008,2710,-4595,-1420,-187,-3,-12,31,322,494,-172,1,1,2,41,800,1,53298,1
2,26793,30336,31333,94009,2724,-4587,-1417,-185,-1,-13,26,318,490,-172,1,1,2,41,840,1,53298,1
2,26799,30335,31334,94010,2737,-4586,-1427,-203,-4,-4,27,311,481,-181,1,1,2,41,880,1,53298,1
2,26807,30351,31337,94011,2750,-4588,-1416,-177,-8,-6,27,319,493,-169,1,1,2,41,920,1,53298,1
2,26803,30355,31335,94012,2750,-4589,-1425,-180,1,-254,28,314,486,-172,1,1,2,41,960,1,53298,1
1,26802,30349,31337,94013,1993,-4585,-1418,-182,-9,-13,27,306,490,-162,1,1,2,42,0,0,53298,1
2,26795,30337,31334,94014,2007,-4584,-1412,-181,-8,-1,22,308,486,-172,1,1,2,42,40,0,53298,1
2,26804,30337,31335,94015,2020,-4597,-1432,-175,-6,-12,13,315,487,-175,1,1,2,42,80,0,53298,1
2,26798,30350,31337,94016,2034,-4595,-1434,-186,-6,-17,22,319,487,-173,1,1,2,42,120,0,53298,1
2,26800,30349,31341,94017,2048,-4588,-1419,-182,0,-25,25,322,484,-180,1,1,2,42,160,0,53298,1
2,26802,30349,31336,94018,2063,-4595,-1431,-168,-3,-15,39,312,492,-180,1,1,2,42,200,0,53298,1
2,26797,30346,31335,94019,2078,-4594,-1415,-177,-9,-6,33,316,484,-176,1,1,2,42,240,0,53298,1
2,26804,30354,31340,94020,2094,-4583,-1422,-176,-15,4,22,319,485,-175,1,1,2,42,280,0,53298,1
2,26815,30350,31340,94021,2107,-4595,-1431,-191,-11,2,6,310,486,-168,1,1,2,42,320,0,53298,1
2,26814,30349,31335,94022,2122,-4576,-1416,-192,-14,-6,6,308,490,-162,1,1,2,42,360,0,53298,1
2,26812,30356,31338,94023,2136,-4602,-1433,-186,-9,-10,21,322,484,-182,1,1,2,42,400,0,53298,1
2,26810,30339,31337,94024,2149,-4600,-1439,-192,-8,-24,27,316,490,-166,1,1,2,42,440,0,53298,1
2,26805,30329,31336,94025,2164,-4577,-1414,-187,-6,-14,31,310,488,-174,1,1,2,42,480,0,53298,1
2,26801,30351,31336,94026,2178,-4583,-1416,-177,-5,-13,23,308,486,-172,1,1,2,42,520,0,53298,1
2,26794,30340,31333,94027,2192,-4587,-1421,-194,-7,-6,24,319,493,-171,1,1,2,42,560,0,53298,1
2,26795,30339,31335,94028,2206,-4595,-1426,-192,-9,-2,25,316,486,-178,1,1,2,42,600,0,53298,1
2,26812,30349,31335,94029,2220,-4600,-1432,-176,-4,-8,34,309,479,-179,1,1,2,42,640,0,53298,1
2,26799,30347,31335,94030,2235,-4596,-1420,-188,-1,-18,34,312,484,-174,1,1,2,42,680,0,53298,1
2,26801,30351,31338,94031,2248,-4584,-1420,-184,-7,-18,22,305,489,-173,1,1,2,42,720,0,53298,1
2,26810,30352,31333,94032,2262,-4584,-1414,-177,-13,-11,16,306,484,-178,1,1,2,42,760,0,53298,1
2,26802,30348,31335,94033,2276,-4594,-1436,-199,-8,-14,21,304,486,-172,1,1,2,42,800,0,53298,1
2,26815,30352,31335,94034,2291,-4606,-1427,-184,-6,-23,25,320,484,-182,1,1,2,42,840,0,53298,1
2,26810,30355,31336,94035,2305,-4580,-1420,-182,-4,-3,34,324,482,-168,1,1,2,42,880,0,53298,1
2,26805,30349,31336,94036,2320,-4597,-1432,-197,-4,1,29,312,488,-176,1,1,2,42,920,0,53298,1
2,26811,30347,31337,94037,2320,-4600,-1424,-178,-15,-5,20,322,488,-182,1,1,2,42,960,0,53298,1
1,26808,30320,31330,94038,1553,-4601,-1429,-191,-6,-20,29,320,494,-180,1,1,2,43,0,1,53298,1
2,26802,30326,31336,94039,1567,-4587,-1424,-176,-7,-17,21,320,490,-172,1,1,2,43,40,1,53298,1
2,26802,30332,31334,94040,1581,-4589,-1424,-185,-15,-15,30,319,483,-173,1,1,2,43,80,1,53298,1
2,26803,30329,31335,94041,1595,-4591,-1425,-188,-1,-14,32,315,483,-173,1,1,2,43,120,1,53298,1
2,26821,30330,31335,94042,1609,-4595,-1419,-190,-9,-7,28,316,482,-174,1,1,2,43,160,1,53298,1
2,26812,30333,31334,94043,1624,-4600,-1439,-181,-9,-7,20,313,485,-185,1,1,2,43,200,1,53298,1
2,26812,30339,31336,94044,1638,-4583,-1418,-180,-7,-12,23,318,492,-178,1,1,2,43,240,1,53298,1
2,26805,30346,31337,94045,1653,-4592,-1436,-180,-3,-11,27,311,483,-177,1,1,2,43,280,1,53298,1
2,26817,30345,31336,94046,1668,-4599,-1433,-187,-8,-8,23,321,485,-175,1,1,2,43,320,1,53298,1
2,26809,30338,31334,94047,1683,-4598,-1437,-183,-8,-7,24,315,491,-175,1,1,2,43,360,1,53298,1
2,26804,30353,31337,94048,1697,-4592,-1420,-178,-5,-12,20,315,485,-171,1,1,2,43,400,1,53298,1
2,26801,30355,31334,94049,1712,-4597,-1428,-188,-12,-10,15,315,491,-167,1,1,2,43,440,1,53298,1
2,26793,30343,31337,94050,1726,-4597,-1425,-190,-3,-13,19,315,483,-177,1,1,2,43,480,1,53298,1
2,26804,30358,31338,94051,1741,-4592,-1419,-196,-5,-19,35,314,490,-176,1,1,2,43,520,1,53298,1
2,26800,30354,31334,94052,1755,-4593,-1413,-175,-4,-12,31,313,487,-173,1,1,2,43,560,1,53298,1
2,26804,30360,31334,94053,1770,-4586,-1420,-196,-2,-1,27,314,492,-176,1,1,2,43,600,1,53298,1
2,26802,30360,31335,94054,1785,-4590,-1419,-190,-13,-4,22,314,492,-172,1,1,2,43,640,1,53298,1
2,26793,30352,31335,94055,1801,-4598,-1428,-182,-13,-14,15,313,489,-177,1,1,2,43,680,1,53298,1
2,26795,30360,31337,94056,1816,-4581,-1421,-190,-4,-18,21,318,478,-180,1,1,2,43,720,1,53298,1
2,26796,30364,31333,94057,1831,-4602,-1430,-181,-6,-17,26,318,484,-176,1,1,2,43,760,1,53298,1
2,26789,30353,31334,94058,1846,-4587,-1438,-187,-4,-13,34,319,481,-163,1,1,2,43,800,1,53298,1
2,26798,30352,31333,94059,1861,-4596,-1427,-185,-7,-6,31,329,487,-181,1,1,2,43,840,1,53298,1
2,26799,30368,31340,94060,1876,-4597,-1429,-182,-7,-5,20,320,488,-168,1,1,2,43,880,1,53298,1
2,26807,30366,31335,94061,1891,-4589,-1421,-185,-15,-12,19,315,489,-177,1,1,2,43,920,1,53298,1
2,26803,30373,31338,94062,1891,-4594,-1425,-182,-11,-15,22,316,490,-184,1,1,2,43,960,1,53298,1
1,26801,30371,31335,94063,1113,-4589,-1438,-185,-1,-8,27,313,483,-169,1,1,2,44,0,1,53298,1
2,26805,30370,31336,94064,1128,-4600,-1436,-192,-2,-7,27,314,492,-176,1,1,2,44,40,1,53298,1
2,26800,30359,31338,94065,1143,-4597,-1431,-183,-9,-6,24,314,484,-176,1,1,2,44,80,1,53298,1
2,26801,30365,31338,94066,1159,-4596,-1430,-191,-8,-8,10,311,495,-173,1,1,2,44,120,1,53298,1
2,26805,30369,31337,94067,1174,-4598,-1444,-188,-7,-9,21,321,493,-179,1,1,2,44,160,1,53298,1
2,26794,30369,31333,94068,1190,-4593,-1444,-186,-7,-12,30,316,484,-178,1,1,2,44,200,1,53298,1
2,26798,30364,31336,94069,1204,-4590,-1421,-183,-8,-11,36,321,487,-173,1,1,2,44,240,1,53298,1
2,26796,30359,31337,94070,1219,-4594,-1421,-179,0,-2,24,317,493,-175,1,1,2,44,280,1,53298,1
2,26785,30368,31338,94071,1234,-4590,-1417,-202,-5,3,28,319,487,-173,1,1,2,44,320,1,53298,1
2,26798,30369,31337,94072,1250,-4589,-1421,-187,-5,-13,18,312,480,-178,1,1,2,44,360,1,53298,1
2,26800,30360,31335,94073,1265,-4577,-1421,-186,-4,-20,22,314,490,-176,1,1,2,44,400,1,53298,1
2,26802,30361,31332,94074,1280,-4599,-1427,-195,-5,-20,25,315,491,-163,1,1,2,44,440,1,53298,1
2,26807,30355,31338,94075,1295,-4582,-1426,-204,-6,-14,27,319,493,-175,1,1,2,44,480,1,53298,1
2,26800,30345,31336,94076,1311,-4590,-1427,-186,-6,-5,26,317,493,-175,1,1,2,44,520,1,53298,1
2,26807,30365,31337,94077,1326,-4592,-1427,-175,-10,-8,17,317,493,-165,1,1,2,44,560,1,53298,1
2,26812,30372,31338,94078,1342,-4599,-1432,-179,-9,-13,20,313,487,-179,1,1,2,44,600,1,53298,1
2,26810,30363,31338,94079,1357,-4601,-1439,-189,-5,-17,17,316,480,-170,1,1,2,44,640,1,53298,1
2,26810,30359,31335,94080,1372,-4593,-1439,-186,-9,-14,26,311,491,-163,1,1,2,44,680,1,53298,1
2,26807,30348,31336,94081,1388,-4589,-1431,-187,-1,-13,26,317,489,-181,1,1,2,44,720,1,53298,1
2,26801,30356,31334,94082,1404,-4595,-1418,-185,-7,-4,25,315,493,-179,1,1,2,44,760,1,53298,1
2,26799,30346,31336,94083,1419,-4586,-1427,-191,-3,-11,16,316,488,-174,1,1,2,44,800,1,53298,1
2,26797,30346,31335,94084,1434,-4585,-1418,-181,-3,-2,20,315,495,-177,1,1,2,44,840,1,53298,1
2,26801,30345,31338,94085,1449,-4594,-1434,-182,0,-14,28,318,492,-180,1,1,2,44,880,1,53298,1
2,26801,30344,31335,94086,1465,-4590,-1432,-183,-5,-7,36,311,489,-173,1,1,2,44,920,1,53298,1
2,26805,30345,31335,94087,1465,-4602,-1434,-173,-5,-4,28,312,482,-174,1,1,2,44,960,1,53298,1
1,26804,30349,31336,94088,673,-4597,-1434,-196,-6,-4,27,317,497,-171,1,1,2,45,0,0,53298,1
2,26808,30371,31338,94089,689,-4589,-1433,-192,-3,-14,23,313,491,-173,1,1,2,45,40,0,53298,1
2,26809,30353,31337,94090,705,-4589,-1428,-202,-4,-18,28,317,485,-171,1,1,2,45,80,0,53298,1
2,26808,30354,31336,94091,720,-4587,-1428,-174,2,-11,25,316,490,-176,1,1,2,45,120,0,53298,1
2,26814,30372,31336,94092,734,-4596,-1424,-188,-2,-22,28,313,489,-173,1,1,2,45,160,0,53298,1
2,26822,30377,31337,94093,748,-4596,-1422,-180,-10,-16,30,315,489,-177,1,1,2,45,200,0,53298,1
2,26802,30388,31337,94094,763,-4586,-1428,-177,-11,-7,23,308,492,-170,1,1,2,45,240,0,53298,1
2,26814,30365,31339,94095,779,-4594,-1423,-189,0,-11,19,315,485,-171,1,1,2,45,280,0,53298,1
2,26809,30350,31335,94096,795,-4596,-1428,-182,-3,-13,23,304,480,-172,1,1,2,45,320,0,53298,1
2,26821,30374,31336,94097,810,-4593,-1425,-186,-10,-14,33,312,488,-178,1,1,2,45,360,0,53298,1
2,26815,30383,31337,94098,824,-4588,-1425,-181,-4,-6,24,311,487,-175,1,1,2,45,400,0,53298,1
2,26818,30374,31335,94099,837,-4593,-1426,-188,-7,-14,12,320,490,-172,1,1,2,45,440,0,53298,1
2,26810,30373,31339,94100,852,-4587,-1431,-186,-7,-10,20,323,491,-179,1,1,2,45,480,0,53298,1
2,26810,30383,31335,94101,866,-4595,-1417,-188,-1,-11,23,314,486,-176,1,1,2,45,520,0,53298,1
2,26814,30399,31337,94102,881,-4591,-1422,-188,-4,-11,29,315,481,-163,1,1,2,45,560,0,53298,1
2,26812,30378,31338,94103,895,-4583,-1428,-194,1,-13,34,314,484,-178,1,1,2,45,600,0,53298,1
2,26811,30364,31339,94104,908,-4588,-1434,-180,-4,-14,33,321,493,-175,1,1,2,45,640,0,53298,1
2,26806,30381,31335,94105,922,-4593,-1422,-181,-6,-6,25,313,485,-171,1,1,2,45,680,0,53298,1
2,26811,30381,31338,94106,936,-4592,-1430,-185,-9,-6,22,314,494,-178,1,1,2,45,720,0,53298,1
2,26812,30377,31339,94107,951,-4612,-1438,-191,-13,-8,20,312,484,-172,1,1,2,45,760,0,53298,1
2,26811,30391,31339,94108,965,-4603,-1416,-186,-5,-11,25,313,489,-169,1,1,2,45,800,0,53298,1
2,26803,30393,31339,94109,980,-4579,-1421,-195,-9,-15,24,303,483,-173,1,1,2,45,840,0,53298,1
2,26802,30390,31335,94110,994,-4591,-1419,-182,1,-17,29,305,483,-173,1,1,2,45,880,0,53298,1
2,26808,30405,31336,94111,1009,-4586,-1430,-173,-5,-15,22,317,491,-173,1,1,2,45,920,0,53298,1
2,26802,30412,31338,94112,1009,-4588,-1440,-186,-5,-6,24,315,489,-173,1,1,2,45,960,0,53298,1
1,26800,30410,31339,94113,233,-4589,-1436,-198,-8,-6,23,316,496,-174,1,1,2,46,0,0,53298,1
3,26803,30406,31337,94114,247,-4588,-1422,-188,-11,0,26,316,490,-182,1,1,2,46,40,0,53298,1
3,26806,30405,31335,94115,262,-4594,-1425,-175,-13,1,24,316,482,-180,1,1,2,46,80,0,53298,1
3,26800,30410,31336,94116,277,-4603,-1429,-188,-5,-9,21,312,490,-180,1,1,2,46,120,0,53298,1
3,26800,30408,31337,94117,293,-4586,-1421,-180,-7,-14,20,317,489,-173,1,1,2,46,160,0,53298,1
0,26804,30400,31337,94118,308,-4586,-1421,-180,-7,-14,20,316,494,-168,1,1,2,46,200,0,53298,1
2,26809,30395,31337,94119,323,-4587,-1427,-178,1,-12,34,315,483,-179,1,1,2,46,240,0,53298,1
2,26800,30384,31334,94120,338,-4590,-1436,-178,-2,-11,34,305,495,-165,1,1,2,46,280,0,53298,1
2,26804,30391,31335,94121,354,-4595,-1423,-188,-9,-6,35,310,492,-174,1,1,2,46,320,0,53298,1
2,26802,30388,31337,94122,369,-4602,-1425,-200,-11,-4,18,314,482,-172,1,1,2,46,360,0,53298,1
2,26798,30388,31334,94123,383,-4597,-1427,-182,-10,9,8,317,487,-179,1,1,2,46,400,0,53298,1
2,26813,30395,31337,94124,398,-4592,-1434,-184,-11,7,19,312,490,-176,1,1,2,46,440,0,53298,1
2,26809,30400,31335,94125,413,-4589,-1420,-188,-11,-10,26,320,500,-170,1,1,2,46,480,0,53298,1
2,26805,30414,31337,94126,427,-4588,-1427,-173,-7,-16,32,311,481,-175,1,1,2,46,520,0,53298,1
2,26795,30405,31339,94127,441,-4588,-1423,-201,-9,-16,33,325,489,-175,1,1,2,46,560,0,53298,1
2,26795,30386,31335,94128,457,-4605,-1433,-198,-5,-12,33,316,486,-176,1,1,2,46,600,0,53298,1
2,26797,30388,31339,94129,472,-4595,-1433,-185,-7,-17,21,319,493,-179,1,1,2,46,640,0,53298,1
2,26803,30385,31334,94130,487,-4586,-1417,-182,-9,-10,20,322,492,-178,1,1,2,46,680,0,53298,1
2,26803,30399,31336,94131,501,-4596,-1430,-180,-10,0,23,308,486,-166,1,1,2,46,720,0,53298,1
2,26805,30404,31335,94132,517,-4585,-1423,-192,-11,0,36,313,483,-173,1,1,2,46,760,0,53298,1
2,26805,30394,31335,94133,532,-4597,-1431,-193,-9,5,15,311,491,-181,1,1,2,46,800,0,53298,1
2,26800,30391,31337,94134,546,-4590,-1429,-187,-8,-6,14,311,495,-183,1,1,2,46,840,0,53298,1
2,26799,30392,31336,94135,561,-4581,-1414,-183,-5,-19,18,312,490,-178,1,1,2,46,880,0,53298,1
2,26802,30392,31335,94136,576,-4585,-1424,-176,2,-22,29,315,493,-169,1,1,2,46,920,0,53298,1
2,26807,30393,31339,94137,576,-4587,-1432,-178,-6,-23,41,311,497,-177,1,1,2,46,960,0,53298,1
1,26806,30391,31337,94138,0,-4597,-1415,-176,-6,-5,38,320,486,-174,1,1,2,47,0,1,53298,1
2,26807,30394,31335,94139,39809,-4588,-1420,-180,-9,10,22,310,492,-174,1,1,2,47,40,1,53298,1
2,26803,30401,31337,94140,39824,-4599,-1435,-183,-15,5,14,311,481,-175,1,1,2,47,80,1,53298,1
2,26793,30400,31339,94141,39838,-4587,-1423,-172,-9,-16,21,314,480,-174,1,1,2,47,120,1,53298,1
2,26804,30405,31336,94142,39852,-4601,-1433,-191,-11,-14,25,307,491,-167,1,1,2,47,160,1,53298,1
2,26807,30390,31340,94143,39867,-4596,-1434,-184,-4,-14,31,316,494,-170,1,1,2,47,200,1,53298,1
2,26794,30400,31339,94144,39882,-4602,-1439,-178,-2,-12,31,311,487,-167,1,1,2,47,240,1,53298,1
2,26803,30393,31337,94145,39896,-4589,-1422,-182,-6,-7,31,322,486,-172,1,1,2,47,280,1,53298,1
2,26798,30410,31338,94146,39911,-4588,-1432,-176,-7,1,25,317,491,-187,1,1,2,47,320,1,53298,1
2,26802,30401,31337,94147,39925,-4595,-1424,-179,-7,2,21,314,494,-172,1,1,2,47,360,1,53298,1
2,26799,30394,31339,94148,39939,-4595,-1434,-194,-11,7,31,313,485,-177,1,1,2,47,400,1,53298,1
2,26797,30396,31338,94149,39953,-4602,-1437,-187,-3,-9,30,311,487,-169,1,1,2,47,440,1,53298,1
2,26788,30390,31340,94150,39968,-4579,-1417,-195,-9,-14,19,314,488,-170,1,1,2,47,480,1,53298,1
2,26794,30393,31336,94151,39982,-4593,-1424,-186,-9,-12,14,319,479,-173,1,1,2,47,520,1,53298,1
2,26792,30400,31338,94152,39996,-4594,-1428,-181,-7,-18,22,319,495,-175,1,1,2,47,560,1,53298,1
1,26794,30403,31336,94153,9,-4583,-1415,-183,-3,-20,25,322,496,-178,1,1,2,47,600,1,53298,1
1,26798,30399,31338,94154,24,-4606,-1432,-192,-4,-18,43,313,483,-179,1,1,2,47,640,1,53298,1
1,26800,30392,31338,94155,38,-4589,-1428,-174,-8,-12,37,307,481,-169,1,1,2,47,680,1,53298,1
1,26802,30389,31340,94156,54,-4588,-1430,-186,-6,-9,25,311,485,-171,1,1,2,47,720,1,53298,1
1,26796,30391,31339,94157,68,-4596,-1434,-184,-8,-5,20,320,480,-176,1,1,2,47,760,1,53298,1
1,26808,30398,31340,94158,83,-4581,-1426,-167,-8,-7,18,318,494,-168,1,1,2,47,800,1,53298,1
1,26805,30400,31338,94159,98,-4595,-1426,-185,-7,-10,16,312,486,-172,1,1,2,47,840,1,53298,1
1,26803,30398,31335,94160,114,-4597,-1432,-168,-13,-8,28,310,494,-182,1,1,2,47,880,1,53298,1
1,26801,30402,31338,94161,130,-4583,-1427,-188,-1,-13,26,312,488,-170,1,1,2,47,920,1,53298,1
1,26795,30399,31335,94162,145,-4598,-1426,-178,-6,-11,30,322,486,-180,1,1,2,47,960,1,53298,1
1,26796,30395,31339,94163,0,-4598,-1431,-190,-14,-5,23,324,494,-174,1,1,2,48,0,1,53298,1
2,26796,30388,31335,94164,39370,-4591,-1425,-194,-4,-14,28,315,487,-173,1,1,2,48,40,1,53298,1
2,26804,30385,31339,94165,39385,-4597,-1432,-186,-8,-13,15,315,493,-173,1,1,2,48,80,1,53298,1
2,26794,30375,31337,94166,39399,-4585,-1417,-183,-8,-10,26,319,493,-175,1,1,2,48,120,1,53298,1
2,26798,30385,31337,94167,39413,-4604,-1428,-183,-8,-5,21,309,491,-173,1,1,2,48,160,1,53298,1
2,26799,30389,31337,94168,39427,-4580,-1415,-177,-15,-13,18,311,487,-171,1,1,2,48,200,1,53298,1
2,26795,30382,31335,94169,39442,-4574,-1408,-178,-16,-12,12,316,494,-170,1,1,2,48,240,1,53298,1
2,26799,30388,31339,94170,39456,-4587,-1421,-187,-13,-14,15,312,478,-176,1,1,2,48,280,1,53298,1
2,26798,30395,31340,94171,39470,-4580,-1426,-176,-3,-25,37,309,485,-173,1,1,2,48,320,1,53298,1
2,26801,30402,31337,94172,39484,-4597,-1430,-182,-6,-11,36,310,494,-168,1,1,2,48,360,1,53298,1
2,26802,30403,31338,94173,39498,-4592,-1421,-168,-5,-4,19,314,484,-174,1,1,2,48,400,1,53298,1
2,26794,30400,31337,94174,39512,-4595,-1435,-176,-6,1,30,311,483,-171,1,1,2,48,440,1,53298,1
2,26802,30403,31339,94175,39526,-4594,-1428,-179,-8,-12,19,318,486,-172,1,1,2,48,480,1,53298,1
2,26798,30408,31337,94176,39540,-4596,-1433,-182,-9,-18,21,307,491,-173,1,1,2,48,520,1,53298,1
2,26798,30403,31348,94177,39555,-4594,-1430,-187,-15,-10,28,320,490,-172,1,1,2,48,560,1,53298,1
2,26784,30417,31338,94178,39569,-4599,-1440,-184,2,-9,32,312,492,-170,1,1,2,48,600,1,53298,1
2,26800,30420,31338,94179,39583,-4586,-1412,-192,-3,0,27,318,486,-174,1,1,2,48,640,1,53298,1
2,26794,30412,31338,94180,39598,-4599,-1434,-181,-4,-9,31,314,492,-176,1,1,2,48,680,1,53298,1
2,26796,30409,31341,94181,39612,-4596,-1426,-188,-4,-12,27,310,492,-168,1,1,2,48,720,1,53298,1
2,26795,30408,31342,94182,39625,-4600,-1427,-192,-1,-12,27,321,487,-167,1,1,2,48,760,1,53298,1
2,26793,30403,31336,94183,39640,-4587,-1417,-192,-10,-10,30,319,481,-177,1,1,2,48,800,1,53298,1
2,26795,30397,31338,94184,39654,-4601,-1425,-182,-14,-5,23,317,483,-171,1,1,2,48,840,1,53298,1
2,26795,30403,31338,94185,39669,-4601,-1436,-195,-7,-2,15,308,488,-174,1,1,2,48,880,1,53298,1
2,26796,30403,31336,94186,39684,-4593,-1432,-184,-10,-6,16,319,487,-175,1,1,2,48,920,1,53298,1
2,26804,30408,31338,94187,39699,-4601,-1431,-182,-6,-10,20,313,485,-175,1,1,2,48,960,1,53298,1
1,26804,30390,31338,94188,0,-4591,-1420,-188,-4,-19,34,310,488,-166,1,1,2,49,0,1,53298,1
2,26798,30394,31335,94189,38929,-4584,-1414,-167,-6,-7,25,320,480,-172,1,1,2,49,40,1,53298,1
2,26797,30397,31337,94190,38944,-4588,-1408,-188,-6,2,25,310,486,-184,1,1,2,49,80,1,53298,1
2,26805,30410,31341,94191,38958,-4583,-1419,-185,-11,-4,26,314,492,-176,1,1,2,49,120,1,53298,1
2,26803,30412,31335,94192,38973,-4586,-1427,-179,-10,-17,26,313,481,-181,1,1,2,49,160,1,53298,1
2,26795,30414,31340,94193,38988,-4586,-1419,-174,-5,-26,27,320,486,-174,1,1,2,49,200,1,53298,1
2,26798,30410,31338,94194,39004,-4602,-1433,-180,-2,-18,30,316,492,-178,1,1,2,49,240,1,53298,1
2,26794,30410,31338,94195,39019,-4603,-1430,-180,-6,-14,27,316,488,-178,1,1,2,49,280,1,53298,1
2,26791,30400,31335,94196,39034,-4603,-1421,-201,-12,-13,15,305,485,-169,1,1,2,49,320,1,53298,1
2,26795,30420,31335,94197,39049,-4602,-1433,-183,-4,-20,28,307,489,-173,1,1,2,49,360,1,53298,1
2,26798,30420,31337,94198,39064,-4597,-1422,-187,0,-30,25,319,497,-179,1,1,2,49,400,1,53298,1
2,26794,30425,31337,94199,39079,-4600,-1428,-184,3,-26,25,318,482,-166,1,1,2,49,440,1,53298,1
2,26793,30419,31336,94200,39093,-4599,-1436,-193,8,-21,13,313,487,-177,1,1,2,49,480,1,53298,1
2,26801,30416,31338,94201,39108,-4599,-1405,-204,-4,-36,8,315,491,-177,1,1,2,49,520,1,53298,1
2,26795,30412,31338,94202,39123,-4601,-1415,-195,3,-64,-34,311,493,-165,1,1,2,49,560,1,53298,1
2,26802,30416,31339,94203,39137,-4580,-1424,-154,-84,-97,-43,316,488,-178,1,1,2,49,600,1,53298,1
2,26801,30409,31337,94204,39151,-4593,-1435,-201,-300,-133,-45,315,489,-177,1,1,2,49,640,1,53298,1
2,26797,30401,31339,94205,39164,-4592,-1441,-184,-376,-129,-76,315,487,-175,1,1,2,49,680,1,53298,1
2,26796,30406,31341,94206,39179,-4601,-1458,-202,-273,-58,-89,317,487,-175,1,1,2,49,720,1,53298,1
2,26800,30405,31341,94207,39194,-4608,-1453,-188,-108,-30,-41,321,489,-177,1,1,2,49,760,1,53298,1
2,26792,30415,31341,94208,39208,-4609,-1450,-189,-66,-51,7,312,492,-172,1,1,2,49,800,1,53298,1
2,26794,30413,31345,94209,39223,-4605,-1446,-172,-3,-116,46,311,485,-167,1,1,2,49,840,1,53298,1
2,26806,30415,31339,94210,39238,-4588,-1433,-171,48,-174,74,317,483,-167,1,1,2,49,880,1,53298,1
2,26799,30419,31342,94211,39253,-4593,-1428,-167,85,-181,88,320,496,-168,1,1,2,49,920,1,53298,1
2,26785,30418,31342,94212,39269,-4594,-1427,-157,117,-116,68,322,490,-170,1,1,2,49,960,1,53298,1
1,26790,30427,31343,94213,0,-4599,-1431,-149,111,-21,44,317,493,-175,1,1,2,50,0,1,53298,1
2,26789,30420,31340,94214,38490,-4584,-1443,-126,137,96,39,319,487,-179,1,1,2,50,40,1,53298,1
2,26792,30426,31342,94215,38505,-4584,-1439,-169,68,174,72,309,483,-173,1,1,2,50,80,1,53298,1
2,26784,30417,31335,94216,38520,-4589,-1444,-161,42,114,147,319,487,-177,1,1,2,50,120,1,53298,1
2,26787,30423,31338,94217,38535,-4582,-1419,-163,31,18,210,316,486,-176,1,1,2,50,160,1,53298,1
2,26792,30424,31330,94218,38549,-4600,-1413,-176,-15,-20,184,312,488,-170,1,1,2,50,200,1,53298,1
2,26792,30421,31335,94219,38563,-4593,-1408,-163,-53,-16,91,311,491,-177,1,1,2,50,240,1,53298,1
2,26794,30422,31336,94220,38577,-4593,-1410,-160,-92,37,-30,312,478,-170,1,1,2,50,280,1,53298,1
2,26794,30421,31335,94221,38592,-4608,-1412,-163,-95,79,-131,317,485,-171,1,1,2,50,320,1,53298,1
2,26786,30423,31337,94222,38606,-4600,-1447,-174,-111,114,-148,318,494,-176,1,1,2,50,360,1,53298,1
2,26789,30415,31337,94223,38622,-4586,-1428,-196,-69,115,-86,316,492,-174,1,1,2,50,400,1,53298,1
2,26786,30422,31336,94224,38636,-4589,-1441,-180,-27,56,-9,316,486,-176,1,1,2,50,440,1,53298,1
2,26781,30415,31335,94225,38651,-4588,-1424,-191,-11,-38,50,312,490,-166,1,1,2,50,480,1,53298,1
2,26781,30423,31335,94226,38665,-4594,-1437,-191,-12,-102,72,312,482,-172,1,1,2,50,520,1,53298,1
2,26778,30423,31333,94227,38680,-4596,-1440,-175,-8,-111,91,321,495,-171,1,1,2,50,560,1,53298,1
2,26785,30418,31333,94228,38695,-4595,-1408,-169,15,-20,68,310,488,-172,1,1,2,50,600,1,53298,1
2,26795,30421,31332,94229,38709,-4587,-1415,-189,18,85,-11,315,481,-179,1,1,2,50,640,1,53298,1
2,26785,30421,31334,94230,38723,-4614,-1446,-178,2,137,-64,315,489,-171,1,1,2,50,680,1,53298,1
2,26794,30421,31335,94231,38738,-4588,-1420,-186,5,111,-62,316,490,-182,1,1,2,50,720,1,53298,1
2,26793,30421,31336,94232,38753,-4581,-1420,-187,13,38,-51,311,479,-179,1,1,2,50,760,1,53298,1
2,26789,30420,31335,94233,38769,-4630,-1397,-124,64,89,-170,318,488,-176,1,1,2,50,800,1,53298,1
2,26796,30412,31333,94234,38784,-4583,-1454,-211,51,200,-250,318,490,-178,1,1,2,50,840,1,53298,1
2,26795,30414,31330,94235,38799,-4578,-1464,-201,-28,240,-221,314,486,-180,1,1,2,50,880,1,53298,1
2,26790,30426,31330,94236,38814,-4586,-1492,-243,-30,127,-84,315,491,-167,1,1,2,50,920,1,53298,1
2,26791,30426,31330,94237,38828,-4577,-1463,-219,58,-34,86,301,485,-169,1,1,2,50,960,1,53298,1
1,26785,30430,31330,94238,0,-4592,-1475,-224,105,-174,222,308,490,-172,1,1,2,51,0,0,53298,1
2,26794,30428,31330,94239,38050,-4590,-1448,-215,175,-323,355,312,486,-170,1,1,2,51,40,0,53298,1
2,26797,30420,31325,94240,38064,-4607,-1440,-207,342,-507,500,310,480,-158,1,1,2,51,80,0,53298,1
2,26792,30423,31330,94241,38078,-4589,-1408,-159,426,-677,488,314,494,-176,1,1,2,51,120,0,53298,1
2,26789,30431,31329,94242,38092,-4616,-1411,-112,331,-708,432,304,492,-166,1,1,2,51,160,0,53298,1
2,26787,30430,31326,94243,38107,-4575,-1404,-124,270,-601,395,320,498,-172,1,1,2,51,200,0,53298,1
2,26786,30441,31325,94244,38121,-4586,-1393,-110,176,-443,358,325,487,-175,1,1,2,51,240,0,53298,1
2,26781,30443,31323,94245,38134,-4600,-1389,-127,144,-361,321,313,485,-177,1,1,2,51,280,0,53298,1
2,26780,30445,31321,94246,38148,-4632,-1367,-101,156,-370,298,318,490,-162,1,1,2,51,320,0,53298,1
2,26776,30453,31325,94247,38161,-4605,-1401,-124,94,-536,297,306,484,-166,1,1,2,51,360,0,53298,1
2,26772,30452,31321,94248,38174,-4609,-1389,-101,140,-689,347,321,485,-165,1,1,2,51,400,0,53298,1
2,26779,30449,31324,94249,38188,-4609,-1359,-60,278,-743,395,309,485,-161,1,1,2,51,440,0,53298,1
2,26773,30406,31320,94250,38201,-4604,-1365,-41,313,-742,477,302,486,-168,1,1,2,51,480,0,53298,1
2,26779,30389,31317,94251,38215,-4587,-1336,-8,268,-673,559,307,481,-159,1,1,2,51,520,0,53298,1
2,26785,30334,31318,94252,38229,-4592,-1327,5,245,-491,575,308,484,-164,1,1,2,51,560,0,53298,1
2,26779,30274,31315,94253,38243,-4620,-1261,37,260,-188,468,308,492,-166,1,1,2,51,600,0,53298,1
2,26773,30117,31307,94254,38258,-4586,-1279,7,100,97,238,310,486,-160,1,1,2,51,640,0,53298,1
2,26773,30198,31312,94255,38272,-4631,-1284,-10,-92,334,30,315,487,-161,1,1,2,51,680,0,53298,1
2,26777,30190,31310,94256,38287,-4608,-1351,-40,-126,471,-128,305,487,-167,1,1,2,51,720,0,53298,1
2,26761,30199,31311,94257,38302,-4608,-1276,-60,-135,489,-122,311,485,-165,1,1,2,51,760,0,53298,1
2,26766,30181,31311,94258,38317,-4624,-1336,-62,-139,396,-221,319,485,-161,1,1,2,51,800,0,53298,1
2,26773,30194,31311,94259,38333,-4614,-1315,-54,-94,443,-361,306,488,-166,1,1,2,51,840,0,53298,1
2,26766,30179,31312,94260,38348,-4625,-1328,-61,-214,530,-485,312,492,-162,1,1,2,51,880,0,53298,1
2,26760,30243,31319,94261,38364,-4621,-1356,-85,-310,531,-480,309,491,-165,1,1,2,51,920,0,53298,1
2,26755,30223,31319,94262,38378,-4601,-1387,-131,-226,450,-419,315,485,-167,1,1,2,51,960,0,53298,1
1,26760,30175,31321,94263,0,-4609,-1346,-84,-74,446,-355,315,493,-165,1,1,2,52,0,1,53298,1
2,26758,30154,31320,94264,37612,-4596,-1385,-106,-78,526,-366,309,485,-169,1,1,2,52,40,1,53298,1
2,26763,30175,31321,94265,37628,-4611,-1401,-134,-190,596,-341,313,491,-167,1,1,2,52,80,1,53298,1
2,26754,30216,31317,94266,37643,-4609,-1420,-168,-179,590,-301,320,484,-160,1,1,2,52,120,1,53298,1
2,26755,30159,31322,94267,37658,-4604,-1414,-165,-89,483,-190,309,481,-173,1,1,2,52,160,1,53298,1
2,26752,30148,31318,94268,37673,-4609,-1416,-194,-7,319,-24,314,492,-164,1,1,2,52,200,1,53298,1
2,26752,30197,31322,94269,37688,-4607,-1417,-183,46,136,76,310,498,-172,1,1,2,52,240,1,53298,1
2,26755,30162,31321,94270,37703,-4612,-1404,-179,22,-18,99,323,485,-183,1,1,2,52,280,1,53298,1
2,26750,30186,31322,94271,37717,-4596,-1394,-174,24,-102,60,307,483,-179,1,1,2,52,320,1,53298,1
2,26755,30155,31321,94272,37732,-4596,-1393,-172,14,-136,1,312,498,-174,1,1,2,52,360,1,53298,1
2,26761,30170,31319,94273,37748,-4591,-1395,-161,-11,-150,-43,315,483,-175,1,1,2,52,400,1,53298,1
2,26761,30181,31323,94274,37763,-4604,-1424,-163,-19,-139,-33,315,481,-177,1,1,2,52,440,1,53298,1
2,26762,30183,31324,94275,37778,-4583,-1404,-149,-15,-128,-32,306,494,-174,1,1,2,52,480,1,53298,1
2,26765,30202,31320,94276,37793,-4598,-1406,-148,-9,-107,-16,313,489,-163,1,1,2,52,520,1,53298,1
2,26765,30223,31321,94277,37808,-4607,-1427,-169,1,-113,-6,309,489,-171,1,1,2,52,560,1,53298,1
2,26756,30202,31321,94278,37823,-4614,-1418,-147,-4,-136,-16,317,497,-175,1,1,2,52,600,1,53298,1
2,26758,30238,31321,94279,37838,-4603,-1424,-130,-22,-99,-49,313,489,-173,1,1,2,52,640,1,53298,1
2,26760,30216,31325,94280,37854,-4604,-1410,-150,-44,-26,-87,316,488,-174,1,1,2,52,680,1,53298,1
2,26756,30240,31325,94281,37871,-4604,-1419,-150,-49,31,-100,315,479,-171,1,1,2,52,720,1,53298,1
2,26758,30240,31325,94282,37886,-4586,-1419,-149,-62,26,-68,325,493,-171,1,1,2,52,760,1,53298,1
2,26756,30190,31325,94283,37902,-4596,-1420,-161,-45,-29,-24,314,492,-170,1,1,2,52,800,1,53298,1
2,26757,30263,31327,94284,37917,-4604,-1424,-144,-7,-102,4,321,483,-163,1,1,2,52,840,1,53298,1
2,26755,30284,31328,94285,37932,-4602,-1411,-153,-4,-154,12,316,492,-170,1,1,2,52,880,1,53298,1
2,26760,30279,31327,94286,37947,-4604,-1421,-139,-1,-170,8,311,493,-171,1,1,2,52,920,1,53298,1
2,26761,30260,31328,94287,37961,-4599,-1415,-126,6,-134,-16,311,487,-169,1,1,2,52,960,1,53298,1
1,26762,30275,31326,94288,0,-4590,-1418,-130,-15,-74,-13,313,479,-161,1,1,2,53,0,1,53298,1
2,26759,30290,31328,94289,37172,-4599,-1422,-136,-19,-19,-4,309,485,-167,1,1,2,53,40,1,53298,1
2,26755,30290,31330,94290,37187,-4599,-1428,-103,-27,26,-7,312,490,-170,1,1,2,53,80,1,53298,1
2,26760,30288,31328,94291,37203,-4580,-1416,-136,-30,25,-2,313,489,-173,1,1,2,53,120,1,53298,1
2,26768,30155,31327,94292,37219,-4590,-1428,-149,-23,11,-3,301,487,-167,1,1,2,53,160,1,53298,1
2,26761,30249,31330,94293,37234,-4608,-1433,-144,-20,-5,7,317,491,-175,1,1,2,53,200,1,53298,1
2,26759,30265,31330,94294,37250,-4592,-1418,-136,-2,-15,-9,321,487,-169,1,1,2,53,240,1,53298,1
2,26759,30268,31328,94295,37266,-4586,-1423,-128,-24,-31,-20,315,489,-173,1,1,2,53,280,1,53298,1
2,26757,30243,31321,94296,37281,-4607,-1433,-130,-16,7,-29,318,482,-174,1,1,2,53,320,1,53298,1
2,26759,30265,31328,94297,37297,-4607,-1431,-141,-40,63,-41,324,484,-176,1,1,2,53,360,1,53298,1
2,26755,30248,31328,94298,37312,-4606,-1430,-136,-70,84,-54,317,489,-163,1,1,2,53,400,1,53298,1
2,26760,30266,31326,94299,37327,-4595,-1440,-144,-63,94,-55,310,488,-164,1,1,2,53,440,1,53298,1
2,26765,30215,31330,94300,37342,-4584,-1438,-150,-46,63,-22,309,487,-175,1,1,2,53,480,1,53298,1
2,26760,30260,31332,94301,37357,-4587,-1424,-146,-17,20,5,310,492,-166,1,1,2,53,520,1,53298,1
2,26758,30212,31330,94302,37372,-4595,-1430,-170,-13,-17,31,323,481,-171,1,1,2,53,560,1,53298,1
2,26761,30248,31330,94303,37387,-4593,-1427,-140,0,-51,37,322,488,-168,1,1,2,53,600,1,53298,1
2,26760,30238,31327,94304,37402,-4596,-1450,-137,11,-66,32,311,493,-171,1,1,2,53,640,1,53298,1
2,26754,30227,31329,94305,37416,-4595,-1436,-150,2,-81,24,311,493,-181,1,1,2,53,680,1,53298,1
2,26756,30220,31327,94306,37431,-4606,-1443,-142,-4,-77,31,308,492,-174,1,1,2,53,720,1,53298,1
2,26759,30224,31328,94307,37446,-4600,-1435,-144,-2,-58,19,315,491,-175,1,1,2,53,760,1,53298,1
2,26759,30240,31326,94308,37459,-4598,-1429,-142,-16,-36,14,310,490,-174,1,1,2,53,800,1,53298,1
2,26750,30242,31329,94309,37474,-4583,-1417,-145,-14,-12,15,310,480,-172,1,1,2,53,840,1,53298,1
2,26760,30243,31325,94310,37489,-4594,-1438,-141,-15,18,22,315,483,-165,1,1,2,53,880,1,53298,1
2,26760,30229,31329,94311,37504,-4596,-1433,-132,-13,34,9,314,476,-170,1,1,2,53,920,1,53298,1
2,26764,30246,31330,94312,37519,-4594,-1429,-144,-28,13,-9,316,484,-172,1,1,2,53,960,1,53298,1
1,26759,30234,31326,94313,0,-4587,-1425,-151,-18,-12,-9,316,490,-176,1,1,2,54,0,0,53298,1
2,26765,30232,31330,94314,36734,-4597,-1442,-131,-11,-25,-8,316,492,-172,1,1,2,54,40,0,53298,1
2,26764,30252,31330,94315,36748,-4594,-1444,-156,-18,-10,4,319,489,-169,1,1,2,54,80,0,53298,1
2,26761,30241,31330,94316,36763,-4599,-1439,-147,-13,3,13,314,480,-174,1,1,2,54,120,0,53298,1
2,26765,30217,31335,94317,36778,-4596,-1452,-148,-15,-2,15,311,483,-175,1,1,2,54,160,0,53298,1
2,26763,30219,31330,94318,36793,-4583,-1423,-160,-7,-19,19,318,488,-168,1,1,2,54,200,0,53298,1
2,26774,30246,31330,94319,36808,-4591,-1433,-147,1,-29,42,314,486,-170,1,1,2,54,240,0,53298,1
2,26772,30260,31329,94320,36822,-4586,-1432,-155,12,-32,38,314,488,-166,1,1,2,54,280,0,53298,1
2,26773,30247,31330,94321,36837,-4586,-1421,-160,-5,-18,42,320,488,-170,1,1,2,54,320,0,53298,1
2,26779,30245,31330,94322,36851,-4596,-1439,-149,-8,-8,19,318,492,-176,1,1,2,54,360,0,53298,1
2,26781,30246,31327,94323,36865,-4606,-1448,-148,-17,-17,12,315,489,-173,1,1,2,54,400,0,53298,1
2,26779,30254,31328,94324,36879,-4601,-1438,-149,-5,-29,12,310,486,-170,1,1,2,54,440,0,53298,1
2,26772,30254,31330,94325,36892,-4592,-1437,-129,-2,-34,25,315,491,-173,1,1,2,54,480,0,53298,1
2,26774,30256,31332,94326,36905,-4591,-1426,-129,-1,-18,33,322,492,-172,1,1,2,54,520,0,53298,1
2,26777,30250,31330,94327,36919,-4595,-1437,-150,-3,-9,38,314,494,-156,1,1,2,54,560,0,53298,1
2,26768,30257,31327,94328,36933,-4606,-1440,-145,-7,-1,32,312,484,-164,1,1,2,54,600,0,53298,1
2,26768,30236,31330,94329,36948,-4598,-1430,-142,-8,-14,19,313,485,-173,1,1,2,54,640,0,53298,1
2,26773,30246,31326,94330,36962,-4600,-1445,-150,-5,-12,20,311,485,-163,1,1,2,54,680,0,53298,1
2,26772,30232,31330,94331,36976,-4593,-1429,-149,-9,-18,22,319,491,-161,1,1,2,54,720,0,53298,1
2,26771,30252,31326,94332,36990,-4607,-1435,-158,-13,-10,23,321,493,-167,1,1,2,54,760,0,53298,1
2,26770,30258,31326,94333,37005,-4591,-1441,-141,-16,5,11,311,481,-173,1,1,2,54,800,0,53298,1
2,26775,30276,31331,94334,37020,-4584,-1440,-141,-8,1,18,312,488,-174,1,1,2,54,840,0,53298,1
2,26775,30254,31332,94335,37034,-4595,-1448,-131,-2,6,34,307,485,-163,1,1,2,54,880,0,53298,1
2,26770,30246,31325,94336,37048,-4593,-1436,-140,-7,-6,38,321,481,-177,1,1,2,54,920,0,53298,1
2,26788,30262,31326,94337,37062,-4591,-1429,-146,-8,-25,34,322,488,-170,1,1,2,54,960,0,53298,1
1,26786,30260,31331,94338,0,-4600,-1443,-140,-4,-18,30,312,488,-166,1,1,2,55,0,0,53298,1
2,26780,30279,31330,94339,36293,-4588,-1429,-136,-2,-24,23,321,489,-173,1,1,2,55,40,0,53298,1
2,26779,30268,31331,94340,36307,-4587,-1436,-138,-9,-13,17,311,491,-173,1,1,2,55,80,0,53298,1
2,26791,30279,31330,94341,36321,-4594,-1443,-148,-1,-1,15,315,489,-165,1,1,2,55,120,0,53298,1
2,26788,30265,31323,94342,36335,-4590,-1431,-161,-4,-11,22,307,487,-171,1,1,2,55,160,0,53298,1
2,26783,30262,31325,94343,36349,-4595,-1437,-156,-1,-14,32,317,487,-177,1,1,2,55,200,0,53298,1
2,26780,30282,31325,94344,36364,-4590,-1442,-146,2,-26,31,316,482,-172,1,1,2,55,240,0,53298,1
2,26787,30274,31329,94345,36379,-4589,-1429,-139,-2,-20,26,315,487,-173,1,1,2,55,280,0,53298,1
2,26785,30293,31329,94346,36393,-4583,-1424,-122,10,-21,31,318,490,-172,1,1,2,55,320,0,53298,1
2,26785,30294,31327,94347,36407,-4600,-1434,-123,-6,-14,34,324,484,-174,1,1,2,55,360,0,53298,1
2,26787,30271,31329,94348,36422,-4595,-1435,-138,-8,-8,28,308,486,-164,1,1,2,55,400,0,53298,1
2,26780,30284,31330,94349,36436,-4610,-1451,-132,-9,-10,18,310,490,-168,1,1,2,55,440,0,53298,1
2,26784,30279,31330,94350,36450,-4602,-1443,-141,-7,4,21,312,488,-172,1,1,2,55,480,0,53298,1
2,26789,30249,31330,94351,36464,-4602,-1438,-143,-9,1,21,318,490,-164,1,1,2,55,520,0,53298,1
2,26790,30302,31330,94352,36478,-4590,-1439,-147,-9,1,18,315,489,-171,1,1,2,55,560,0,53298,1
2,26787,30299,31332,94353,36492,-4600,-1447,-165,-10,-14,28,311,485,-171,1,1,2,55,600,0,53298,1
2,26787,30290,31329,94354,36506,-4604,-1438,-141,-7,-19,30,311,481,-169,1,1,2,55,640,0,53298,1
2,26779,30294,31330,94355,36521,-4595,-1435,-137,-2,-28,20,321,483,-171,1,1,2,55,680,0,53298,1
2,26781,30323,31329,94356,36534,-4580,-1435,-152,-7,-35,24,316,490,-166,1,1,2,55,720,0,53298,1
2,26779,30317,31332,94357,36549,-4597,-1439,-138,-6,-29,25,310,490,-170,1,1,2,55,760,0,53298,1
2,26785,30312,31328,94358,36563,-4607,-1445,-145,-7,-22,25,316,482,-170,1,1,2,55,800,0,53298,1
2,26789,30309,31328,94359,36577,-4601,-1437,-135,-6,-17,33,318,480,-170,1,1,2,55,840,0,53298,1
2,26786,30295,31326,94360,36592,-4598,-1446,-139,-9,-2,25,316,486,-164,1,1,2,55,880,0,53298,1
2,26783,30317,31330,94361,36606,-4599,-1440,-137,-18,4,17,319,485,-169,1,1,2,55,920,0,53298,1
2,26787,30330,31330,94362,36621,-4596,-1447,-134,-15,8,17,320,482,-178,1,1,2,55,960,0,53298,1
1,26785,30339,31329,94363,0,-4589,-1423,-145,-18,-9,27,320,488,-162,1,1,2,56,0,0,53298,1
2,26789,30320,31334,94364,35854,-4588,-1434,-133,-6,-18,21,317,487,-171,1,1,2,56,40,0,53298,1
2,26785,30295,31330,94365,35868,-4604,-1447,-147,-5,-23,20,318,482,-168,1,1,2,56,80,0,53298,1
2,26784,30290,31330,94366,35884,-4591,-1435,-136,-2,-25,26,315,477,-169,1,1,2,56,120,0,53298,1
2,26775,30301,31326,94367,35898,-4598,-1428,-133,-7,-21,20,319,485,-175,1,1,2,56,160,0,53298,1
2,26789,30312,31332,94368,35912,-4595,-1442,-138,-5,-19,35,320,482,-176,1,1,2,56,200,0,53298,1
2,26787,30311,31330,94369,35926,-4594,-1428,-144,-3,-13,46,316,480,-168,1,1,2,56,240,0,53298,1
2,26788,30319,31329,94370,35941,-4595,-1433,-139,1,-7,47,319,487,-165,1,1,2,56,280,0,53298,1
2,26786,30307,31332,94371,35955,-4595,-1436,-132,-4,-18,23,312,488,-160,1,1,2,56,320,0,53298,1
2,26785,30302,31329,94372,35969,-4579,-1423,-146,-8,-15,0,314,482,-176,1,1,2,56,360,0,53298,1
2,26773,30282,31331,94373,35983,-4596,-1436,-136,-13,18,4,308,484,-168,1,1,2,56,400,0,53298,1
2,26781,30305,31330,94374,35998,-4596,-1442,-149,-20,38,3,313,495,-163,1,1,2,56,440,0,53298,1
2,26784,30300,31330,94375,36012,-4591,-1428,-139,-17,17,25,321,481,-167,1,1,2,56,480,0,53298,1
2,26784,30327,31333,94376,36027,-4589,-1437,-130,21,-17,54,318,480,-174,1,1,2,56,520,0,53298,1
2,26775,30322,31331,94377,36041,-4593,-1434,-146,11,-50,69,320,492,-170,1,1,2,56,560,0,53298,1
2,26783,30332,31330,94378,36056,-4589,-1434,-132,7,-70,58,315,487,-169,1,1,2,56,600,0,53298,1
2,26776,30326,31330,94379,36069,-4595,-1430,-148,1,-40,45,316,482,-176,1,1,2,56,640,0,53298,1
2,26788,30330,31330,94380,36084,-4610,-1446,-133,-11,-20,21,316,484,-160,1,1,2,56,680,0,53298,1
2,26789,30334,31330,94381,36098,-4608,-1455,-138,-13,-7,17,311,487,-161,1,1,2,56,720,0,53298,1
2,26788,30364,31333,94382,36113,-4597,-1449,-128,4,8,32,322,492,-168,1,1,2,56,760,0,53298,1
2,26792,30362,31330,94383,36127,-4581,-1426,-145,-5,-6,27,311,485,-175,1,1,2,56,800,0,53298,1
2,26794,30373,31331,94384,36142,-4591,-1434,-136,5,-7,37,312,484,-164,1,1,2,56,840,0,53298,1
2,26790,30360,31330,94385,36156,-4591,-1423,-135,-24,4,21,321,489,-167,1,1,2,56,880,0,53298,1
2,26793,30348,31332,94386,36171,-4588,-1444,-148,-21,-9,9,322,484,-168,1,1,2,56,920,0,53298,1
2,26794,30360,31330,94387,36186,-4585,-1432,-131,-11,-17,13,315,489,-169,1,1,2,56,960,0,53298,1
1,26790,30360,31328,94388,0,-4593,-1435,-120,-3,-15,26,327,483,-173,1,1,2,57,0,1,53298,1
2,26791,30357,31335,94389,35415,-4588,-1434,-140,-10,2,28,315,487,-169,1,1,2,57,40,1,53298,1
2,26787,30346,31331,94390,35430,-4600,-1440,-153,-8,3,39,314,488,-164,1,1,2,57,80,1,53298,1
2,26789,30341,31330,94391,35444,-4592,-1425,-138,-13,-7,31,325,491,-183,1,1,2,57,120,1,53298,1
2,26787,30342,31334,94392,35460,-4598,-1435,-148,-10,-27,22,322,486,-172,1,1,2,57,160,1,53298,1
2,26790,30357,31331,94393,35475,-4585,-1433,-138,-8,-26,24,314,486,-168,1,1,2,57,200,1,53298,1
2,26785,30352,31335,94394,35490,-4609,-1448,-158,-13,-22,22,310,488,-174,1,1,2,57,240,1,53298,1
2,26785,30364,31333,94395,35505,-4592,-1419,-137,-15,-4,15,320,492,-172,1,1,2,57,280,1,53298,1
2,26793,30366,31333,94396,35520,-4615,-1440,-148,-17,7,-6,324,486,-172,1,1,2,57,320,1,53298,1
2,26792,30354,31328,94397,35534,-4592,-1441,-139,-13,3,1,312,486,-176,1,1,2,57,360,1,53298,1
2,26787,30349,31333,94398,35548,-4593,-1442,-135,0,-8,51,321,485,-165,1,1,2,57,400,1,53298,1
2,26787,30366,31330,94399,35562,-4589,-1428,-153,9,3,60,317,481,-167,1,1,2,57,440,1,53298,1
2,26786,30368,31330,94400,35577,-4601,-1441,-135,-12,7,32,313,485,-169,1,1,2,57,480,1,53298,1
2,26778,30361,31329,94401,35591,-4606,-1443,-131,-22,2,16,313,487,-175,1,1,2,57,520,1,53298,1
2,26775,30350,31329,94402,35606,-4591,-1437,-150,-20,-8,-4,323,485,-173,1,1,2,57,560,1,53298,1
2,26788,30351,31331,94403,35621,-4591,-1434,-151,-13,-22,7,316,490,-166,1,1,2,57,600,1,53298,1
2,26775,30352,31333,94404,35637,-4588,-1423,-134,7,-41,27,310,488,-168,1,1,2,57,640,1,53298,1
2,26778,30358,31330,94405,35652,-4597,-1439,-144,-3,-46,35,318,494,-166,1,1,2,57,680,1,53298,1
2,26780,30360,31330,94406,35667,-4595,-1427,-141,18,-57,52,317,493,-169,1,1,2,57,720,1,53298,1
2,26773,30363,31330,94407,35682,-4593,-1429,-158,28,-62,63,320,484,-168,1,1,2,57,760,1,53298,1
2,26770,30372,31330,94408,35696,-4599,-1449,-142,-12,-62,28,313,491,-171,1,1,2,57,800,1,53298,1
2,26777,30365,31335,94409,35711,-4598,-1445,-133,-1,-57,24,313,491,-171,1,1,2,57,840,1,53298,1
2,26782,30368,31331,94410,35725,-4605,-1432,-122,13,-39,31,319,479,-169,1,1,2,57,880,1,53298,1
2,26784,30356,31332,94411,35740,-4589,-1424,-143,-14,9,28,317,487,-165,1,1,2,57,920,1,53298,1
2,26780,30368,31330,94412,35754,-4592,-1433,-141,-29,56,9,315,485,-171,1,1,2,57,960,1,53298,1
1,26782,30354,31332,94413,0,-4595,-1435,-138,-31,94,-6,315,483,-169,1,1,2,58,0,0,53298,1
2,26789,30349,31331,94414,34975,-4594,-1440,-145,-25,104,6,315,489,-171,1,1,2,58,40,0,53298,1
2,26780,30351,31332,94415,34989,-4605,-1449,-146,-25,54,7,312,486,-174,1,1,2,58,80,0,53298,1
2,26783,30340,31331,94416,35002,-4601,-1439,-142,-17,21,8,305,483,-163,1,1,2,58,120,0,53298,1
2,26779,30360,31335,94417,35017,-4588,-1431,-163,-22,1,13,321,491,-167,1,1,2,58,160,0,53298,1
2,26778,30368,31330,94418,35033,-4606,-1441,-160,9,-24,17,325,491,-177,1,1,2,58,200,0,53298,1
2,26774,30358,31329,94419,35048,-4609,-1449,-140,0,-46,18,317,479,-173,1,1,2,58,240,0,53298,1
2,26773,30345,31337,94420,35062,-4597,-1446,-155,-2,-93,48,316,488,-176,1,1,2,58,280,0,53298,1
2,26780,30354,31331,94421,35076,-4610,-1438,-123,37,-116,64,308,480,-172,1,1,2,58,320,0,53298,1
2,26770,30350,31332,94422,35090,-4588,-1435,-135,16,-120,51,314,484,-166,1,1,2,58,360,0,53298,1
2,26780,30349,31330,94423,35105,-4593,-1432,-128,21,-95,63,312,482,-166,1,1,2,58,400,0,53298,1
2,26770,30355,31330,94424,35120,-4593,-1430,-113,26,-57,69,316,490,-162,1,1,2,58,440,0,53298,1
2,26779,30359,31330,94425,35135,-4595,-1430,-146,-4,-13,44,314,486,-172,1,1,2,58,480,0,53298,1
2,26776,30354,31329,94426,35151,-4590,-1415,-129,-7,35,21,322,484,-174,1,1,2,58,520,0,53298,1
2,26774,30353,31327,94427,35166,-4605,-1445,-148,-30,89,-5,309,481,-163,1,1,2,58,560,0,53298,1
2,26775,30341,31334,94428,35180,-4602,-1450,-146,-45,89,-3,310,492,-170,1,1,2,58,600,0,53298,1
2,26777,30352,31332,94429,35195,-4605,-1429,-149,-29,9,4,308,484,-168,1,1,2,58,640,0,53298,1
2,26776,30352,31328,94430,35210,-4597,-1443,-146,-5,-80,12,307,487,-167,1,1,2,58,680,0,53298,1
2,26783,30356,31330,94431,35224,-4588,-1430,-137,15,-114,49,309,489,-167,1,1,2,58,720,0,53298,1
2,26773,30360,31330,94432,35238,-4592,-1425,-119,38,-47,74,313,489,-169,1,1,2,58,760,0,53298,1
2,26778,30366,31332,94433,35253,-4595,-1440,-129,-2,55,94,308,486,-160,1,1,2,58,800,0,53298,1
2,26775,30369,31326,94434,35267,-4593,-1436,-144,3,127,131,323,497,-167,1,1,2,58,840,0,53298,1
2,26780,30375,31326,94435,35282,-4595,-1434,-155,11,120,154,316,484,-170,1,1,2,58,880,0,53298,1
2,26773,30364,31330,94436,35296,-4600,-1416,-146,40,76,184,316,490,-170,1,1,2,58,920,0,53298,1
2,26780,30364,31326,94437,35312,-4601,-1428,-144,61,31,222,304,480,-162,1,1,2,58,960,0,53298,1
1,26780,30361,31325,94438,0,-4573,-1441,-138,106,-70,336,313,487,-175,1,1,2,59,0,0,53298,1
2,26770,30358,31325,94439,34537,-4603,-1411,-148,239,-104,521,303,495,-173,1,1,2,59,40,0,53298,1
2,26769,30365,31319,94440,34553,-4605,-1369,-122,357,-70,571,318,488,-168,1,1,2,59,80,0,53298,1
2,26770,30365,31320,94441,34568,-4588,-1338,-112,264,-4,470,315,495,-167,1,1,2,59,120,0,53298,1
2,26773,30362,31319,94442,34583,-4607,-1367,-137,61,116,262,320,490,-172,1,1,2,59,160,0,53298,1
2,26775,30363,31318,94443,34598,-4617,-1359,-146,-84,221,40,311,495,-163,1,1,2,59,200,0,53298,1
2,26761,30357,31321,94444,34613,-4602,-1373,-154,-132,273,-103,310,488,-164,1,1,2,59,240,0,53298,1
2,26765,30354,31321,94445,34629,-4611,-1392,-179,-149,256,-151,320,496,-168,1,1,2,59,280,0,53298,1
2,26765,30353,31322,94446,34643,-4611,-1403,-173,-134,170,-138,305,493,-175,1,1,2,59,320,0,53298,1
2,26776,30350,31322,94447,34656,-4604,-1407,-170,-106,53,-90,317,493,-175,1,1,2,59,360,0,53298,1
2,26779,30350,31326,94448,34670,-4610,-1398,-187,-53,-64,-5,312,488,-170,1,1,2,59,400,0,53298,1
2,26773,30361,31324,94449,34683,-4594,-1379,-156,0,-164,67,304,496,-176,1,1,2,59,440,0,53298,1
2,26771,30367,31324,94450,34696,-4589,-1385,-142,35,-168,129,310,482,-164,1,1,2,59,480,0,53298,1
2,26761,30358,31320,94451,34708,-4607,-1385,-170,44,-107,142,309,489,-163,1,1,2,59,520,0,53298,1
2,26768,30363,31321,94452,34721,-4601,-1398,-144,27,-81,128,312,492,-162,1,1,2,59,560,0,53298,1
2,26772,30361,31320,94453,34734,-4584,-1388,-166,38,-36,133,308,494,-166,1,1,2,59,600,0,53298,1
2,26768,30359,31321,94454,34747,-4599,-1360,-134,42,25,104,317,497,-163,1,1,2,59,640,0,53298,1
2,26773,30365,31322,94455,34760,-4609,-1383,-159,32,94,37,309,483,-179,1,1,2,59,680,0,53298,1
2,26768,30363,31320,94456,34773,-4598,-1384,-144,-8,157,12,315,487,-175,1,1,2,59,720,0,53298,1
2,26762,30349,31321,94457,34786,-4606,-1391,-154,-31,193,25,312,484,-172,1,1,2,59,760,0,53298,1
2,26764,30345,31318,94458,34799,-4610,-1374,-175,-12,176,9,309,491,-173,1,1,2,59,800,0,53298,1
2,26774,30356,31323,94459,34811,-4599,-1358,-175,-39,134,-49,308,492,-164,1,1,2,59,840,0,53298,1
2,26769,30359,31324,94460,34823,-4615,-1399,-175,-82,94,-116,314,488,-176,1,1,2,59,880,0,53298,1
2,26766,30352,31323,94461,34836,-4608,-1383,-190,-80,80,-119,307,491,-173,1,1,2,59,920,0,53298,1
2,26775,30358,31324,94462,34849,-4598,-1410,-182,-40,28,-100,313,489,-167,1,1,2,59,960,0,53298,1
1,26767,30358,31324,94463,0,-4598,-1412,-196,-5,-24,2,309,491,-169,1,1,3,0,0,1,53298,1
2,26770,30361,31323,94464,34098,-4609,-1391,-180,65,-74,103,311,493,-177,1,1,3,0,40,1,53298,1
2,26766,30362,31323,94465,34111,-4606,-1374,-169,94,-140,128,316,488,-170,1,1,3,0,80,1,53298,1
2,26770,30360,31326,94466,34124,-4602,-1376,-174,75,-206,102,310,496,-178,1,1,3,0,120,1,53298,1
2,26765,30360,31325,94467,34137,-4596,-1379,-165,60,-231,72,304,486,-180,1,1,3,0,160,1,53298,1
2,26773,30360,31327,94468,34150,-4604,-1384,-148,35,-183,54,303,493,-165,1,1,3,0,200,1,53298,1
2,26767,30353,31321,94469,34163,-4598,-1384,-167,11,-154,32,306,494,-176,1,1,3,0,240,1,53298,1
2,26766,30358,31324,94470,34177,-4598,-1396,-148,29,-114,75,314,496,-182,1,1,3,0,280,1,53298,1
2,26772,30356,31324,94471,34189,-4597,-1376,-162,34,-26,127,313,491,-175,1,1,3,0,320,1,53298,1
2,26772,30359,31321,94472,34203,-4609,-1367,-145,4,58,79,306,490,-172,1,1,3,0,360,1,53298,1
2,26778,30359,31321,94473,34217,-4626,-1345,-158,-52,144,-72,311,489,-171,1,1,3,0,400,1,53298,1
2,26764,30354,31328,94474,34230,-4615,-1389,-174,-125,107,-235,314,488,-176,1,1,3,0,440,1,53298,1
2,26775,30360,31326,94475,34245,-4619,-1408,-176,-168,-8,-303,310,490,-176,1,1,3,0,480,1,53298,1
2,26767,30362,31328,94476,34259,-4567,-1384,-144,-140,-72,-332,306,492,-168,1,1,3,0,520,1,53298,1
2,26769,30361,31330,94477,34274,-4614,-1426,-158,-138,-29,-295,309,489,-181,1,1,3,0,560,1,53298,1
2,26770,30358,31330,94478,34289,-4594,-1421,-145,-106,36,-227,305,481,-171,1,1,3,0,600,1,53298,1
2,26771,30357,31332,94479,34303,-4589,-1426,-171,-113,95,-118,314,486,-160,1,1,3,0,640,1,53298,1
2,26762,30358,31330,94480,34317,-4591,-1419,-185,-48,73,14,316,492,-176,1,1,3,0,680,1,53298,1
2,26762,30347,31330,94481,34331,-4593,-1404,-175,38,-6,127,312,496,-174,1,1,3,0,720,1,53298,1
2,26769,30347,31333,94482,34345,-4596,-1401,-142,83,-23,152,310,490,-174,1,1,3,0,760,1,53298,1
2,26769,30350,31331,94483,34359,-4591,-1411,-161,14,46,122,311,485,-171,1,1,3,0,800,1,53298,1
2,26769,30350,31330,94484,34374,-4599,-1403,-177,19,133,87,306,484,-172,1,1,3,0,840,1,53298,1
2,26769,30348,31328,94485,34389,-4608,-1396,-169,9,217,12,313,493,-177,1,1,3,0,880,1,53298,1
2,26770,30360,31329,94486,34403,-4585,-1389,-177,-56,349,-114,313,493,-175,1,1,3,0,920,1,53298,1
2,26766,30361,31326,94487,34417,-4601,-1400,-189,-84,495,-249,311,487,-179,1,1,3,0,960,1,53298,1
1,26766,30358,31327,94488,0,-4608,-1428,-204,-86,570,-334,319,487,-177,1,1,3,1,0,1,53298,1
2,26760,30363,31333,94489,33660,-4600,-1441,-225,-111,456,-299,314,476,-178,1,1,3,1,40,1,53298,1
2,26757,30362,31330,94490,33675,-4605,-1475,-237,-172,205,-172,313,493,-181,1,1,3,1,80,1,53298,1
2,26757,30365,31332,94491,33690,-4593,-1471,-254,1,-68,15,319,491,-169,1,1,3,1,120,1,53298,1
2,26760,30357,31328,94492,33705,-4596,-1452,-239,91,-328,227,310,488,-176,1,1,3,1,160,1,53298,1
2,26756,30357,31328,94493,33719,-4602,-1418,-193,199,-479,369,316,494,-172,1,1,3,1,200,1,53298,1
2,26766,30358,31327,94494,33734,-4588,-1412,-185,210,-464,394,304,490,-164,1,1,3,1,240,1,53298,1
2,26766,30351,31330,94495,33748,-4598,-1402,-187,180,-353,321,312,488,-170,1,1,3,1,280,1,53298,1
2,26771,30362,31324,94496,33763,-4590,-1378,-168,118,-244,192,321,489,-165,1,1,3,1,320,1,53298,1
2,26766,30356,31327,94497,33777,-4616,-1401,-167,-6,-156,51,316,482,-174,1,1,3,1,360,1,53298,1
2,26771,30364,31330,94498,33792,-4597,-1393,-173,-63,-97,-40,314,484,-174,1,1,3,1,400,1,53298,1
2,26766,30356,31330,94499,33807,-4603,-1424,-178,-78,-75,-92,312,496,-164,1,1,3,1,440,1,53298,1
2,26762,30366,31332,94500,33821,-4595,-1413,-157,-60,-67,-83,307,493,-171,1,1,3,1,480,1,53298,1
2,26758,30366,31329,94501,33835,-4582,-1407,-166,-88,-13,-57,315,487,-171,1,1,3,1,520,1,53298,1
2,26770,30379,31336,94502,33849,-4591,-1428,-178,-52,44,-24,318,480,-178,1,1,3,1,560,1,53298,1
2,26766,30374,31330,94503,33864,-4594,-1418,-193,3,43,20,320,488,-174,1,1,3,1,600,1,53298,1
2,26760,30364,31330,94504,33878,-4608,-1419,-198,26,-95,103,314,484,-176,1,1,3,1,640,1,53298,1
2,26760,30365,31332,94505,33892,-4606,-1415,-178,72,-274,148,321,493,-177,1,1,3,1,680,1,53298,1
2,26763,30366,31330,94506,33906,-4604,-1396,-134,26,-252,75,316,486,-178,1,1,3,1,720,1,53298,1
2,26770,30370,31329,94507,33921,-4597,-1406,-132,-30,-36,-48,308,486,-170,1,1,3,1,760,1,53298,1
2,26771,30361,31325,94508,33935,-4598,-1403,-142,-72,234,-132,319,491,-173,1,1,3,1,800,1,53298,1
2,26768,30354,31326,94509,33949,-4604,-1423,-181,-152,395,-136,312,486,-172,1,1,3,1,840,1,53298,1
2,26763,30362,31330,94510,33963,-4610,-1447,-227,-135,348,-68,310,488,-168,1,1,3,1,880,1,53298,1
2,26771,30364,31330,94511,33976,-4610,-1435,-202,7,153,19,317,495,-177,1,1,3,1,920,1,53298,1
2,26763,30368,31326,94512,33990,-4611,-1433,-200,42,-49,76,316,484,-176,1,1,3,1,960,1,53298,1
1,26768,30370,31328,94513,0,-4599,-1408,-186,45,-197,81,322,488,-168,1,1,3,2,0,0,53298,1
2,26774,30368,31334,94514,33220,-4596,-1422,-176,28,-202,60,312,488,-182,1,1,3,2,40,0,53298,1
2,26767,30365,31330,94515,33234,-4595,-1418,-170,9,-95,35,315,487,-179,1,1,3,2,80,0,53298,1
2,26767,30350,31327,94516,33247,-4598,-1409,-162,11,21,12,312,502,-178,1,1,3,2,120,0,53298,1
2,26770,30363,31330,94517,33262,-4591,-1407,-168,-61,118,-15,312,486,-166,1,1,3,2,160,0,53298,1
2,26773,30362,31332,94518,33277,-4600,-1429,-188,-75,197,-55,314,482,-182,1,1,3,2,200,0,53298,1
2,26767,30360,31328,94519,33290,-4595,-1410,-202,-62,240,-92,316,490,-174,1,1,3,2,240,0,53298,1
2,26767,30361,31327,94520,33304,-4592,-1429,-192,-95,224,-118,316,486,-176,1,1,3,2,280,0,53298,1
2,26764,30356,31330,94521,33318,-4591,-1435,-221,-107,156,-121,312,486,-174,1,1,3,2,320,0,53298,1
2,26768,30356,31330,94522,33332,-4583,-1432,-230,-65,89,-95,318,488,-168,1,1,3,2,360,0,53298,1
2,26771,30358,31331,94523,33345,-4588,-1420,-210,-42,65,-57,309,489,-167,1,1,3,2,400,0,53298,1
2,26765,30360,31335,94524,33357,-4602,-1444,-222,-39,61,-5,315,489,-175,1,1,3,2,440,0,53298,1
2,26772,30356,31330,94525,33371,-4582,-1437,-207,-5,35,37,314,484,-182,1,1,3,2,480,0,53298,1
2,26763,30352,31331,94526,33384,-4600,-1436,-213,24,-17,74,311,487,-175,1,1,3,2,520,0,53298,1
2,26764,30360,31330,94527,33398,-4590,-1425,-215,31,-74,97,310,488,-176,1,1,3,2,560,0,53298,1
2,26766,30358,31329,94528,33411,-4592,-1435,-221,26,-120,84,307,491,-181,1,1,3,2,600,0,53298,1
2,26768,30357,31327,94529,33425,-4589,-1426,-197,23,-137,64,315,485,-181,1,1,3,2,640,0,53298,1
2,26766,30360,31327,94530,33438,-4588,-1418,-195,26,-133,40,313,487,-179,1,1,3,2,680,0,53298,1
2,26765,30350,31328,94531,33452,-4602,-1430,-198,2,-105,44,307,483,-177,1,1,3,2,720,0,53298,1
2,26764,30343,31327,94532,33467,-4585,-1425,-204,-2,-58,40,318,484,-176,1,1,3,2,760,0,53298,1
2,26764,30352,31329,94533,33481,-4600,-1432,-194,3,-36,38,308,486,-178,1,1,3,2,800,0,53298,1
2,26766,30348,31325,94534,33495,-4595,-1428,-205,1,-31,28,319,493,-181,1,1,3,2,840,0,53298,1
2,26765,30330,31330,94535,33509,-4597,-1425,-202,4,-25,27,320,492,-178,1,1,3,2,880,0,53298,1
2,26760,30337,31331,94536,33522,-4606,-1428,-209,-8,-21,18,313,495,-177,1,1,3,2,920,0,53298,1
2,26760,30342,31330,94537,33536,-4593,-1426,-193,-16,-8,14,312,488,-176,1,1,3,2,960,0,53298,1
1,26767,30358,31333,94538,0,-4593,-1440,-194,-23,24,17,317,487,-173,1,1,3,3,0,0,53298,1
2,26772,30354,31329,94539,32782,-4606,-1428,-198,-17,31,17,320,490,-176,1,1,3,3,40,0,53298,1
2,26770,30346,31328,94540,32796,-4588,-1424,-202,-23,36,9,308,486,-182,1,1,3,3,80,0,53298,1
2,26773,30336,31328,94541,32808,-4590,-1431,-196,-18,24,1,316,492,-176,1,1,3,3,120,0,53298,1
2,26757,30339,31331,94542,32822,-4589,-1420,-197,-18,-4,4,310,490,-172,1,1,3,3,160,0,53298,1
2,26761,30340,31330,94543,32835,-4578,-1410,-195,-10,-15,12,320,486,-170,1,1,3,3,200,0,53298,1
2,26758,30342,31330,94544,32848,-4590,-1437,-195,-1,-19,29,323,491,-173,1,1,3,3,240,0,53298,1
2,26774,30346,31330,94545,32862,-4608,-1441,-194,5,-21,31,318,488,-174,1,1,3,3,280,0,53298,1
2,26760,30330,31330,94546,32876,-4608,-1440,-202,-4,-22,30,312,492,-174,1,1,3,3,320,0,53298,1
2,26767,30325,31329,94547,32889,-4597,-1438,-205,-7,-23,33,318,490,-178,1,1,3,3,360,0,53298,1
2,26770,30333,31328,94548,32902,-4600,-1427,-187,2,-25,33,320,486,-180,1,1,3,3,400,0,53298,1
2,26770,30335,31331,94549,32916,-4599,-1420,-190,-5,-30,22,319,493,-179,1,1,3,3,440,0,53298,1
2,26770,30340,31332,94550,32930,-4602,-1432,-195,-9,-25,14,304,488,-164,1,1,3,3,480,0,53298,1
2,26761,30340,31330,94551,32944,-4596,-1434,-202,-8,-8,24,310,482,-180,1,1,3,3,520,0,53298,1
2,26762,30330,31327,94552,32957,-4587,-1426,-204,-3,-4,34,318,490,-182,1,1,3,3,560,0,53298,1
2,26757,30332,31329,94553,32970,-4599,-1435,-190,-2,-3,35,310,488,-158,1,1,3,3,600,0,53298,1
2,26757,30349,31330,94554,32984,-4604,-1426,-198,-6,-6,25,313,491,-169,1,1,3,3,640,0,53298,1
2,26758,30333,31330,94555,32997,-4599,-1433,-204,-13,-10,20,309,491,-183,1,1,3,3,680,0,53298,1
2,26756,30338,31331,94556,33011,-4603,-1436,-201,-13,-19,16,318,494,-170,1,1,3,3,720,0,53298,1
2,26765,30336,31330,94557,33025,-4589,-1428,-192,-6,-21,13,322,484,-178,1,1,3,3,760,0,53298,1
2,26761,30339,31328,94558,33038,-4600,-1440,-188,-7,-8,22,300,488,-170,1,1,3,3,800,0,53298,1
2,26764,30338,31333,94559,33052,-4592,-1430,-203,-6,-9,32,318,482,-174,1,1,3,3,840,0,53298,1
2,26766,30354,31327,94560,33066,-4595,-1439,-187,-2,-7,23,310,490,-180,1,1,3,3,880,0,53298,1
2,26764,30349,31331,94561,33080,-4590,-1423,-185,-5,-7,29,317,491,-175,1,1,3,3,920,0,53298,1
2,26755,30354,31331,94562,33094,-4594,-1432,-205,1,-13,28,315,497,-179,1,1,3,3,960,0,53298,1
1,26760,30348,31331,94563,0,-4600,-1438,-199,-3,-16,27,319,485,-175,1,1,3,4,0,1,53298,1
2,26750,30357,31325,94564,32343,-4589,-1431,-192,-10,-10,23,313,491,-181,1,1,3,4,40,1,53298,1
2,26765,30364,31328,94565,32357,-4595,-1427,-200,-5,-12,24,318,490,-174,1,1,3,4,80,1,53298,1
2,26760,30360,31329,94566,32371,-4593,-1430,-201,-5,-5,20,319,489,-177,1,1,3,4,120,1,53298,1
2,26769,30356,31330,94567,32385,-4599,-1438,-199,-6,-2,30,308,484,-168,1,1,3,4,160,1,53298,1
2,26773,30347,31327,94568,32399,-4596,-1425,-202,-4,-12,29,313,487,-167,1,1,3,4,200,1,53298,1
2,26766,30357,31328,94569,32413,-4588,-1419,-201,-5,-20,32,317,489,-175,1,1,3,4,240,1,53298,1
2,26764,30342,31330,94570,32427,-4598,-1439,-194,-2,-28,33,314,490,-174,1,1,3,4,280,1,53298,1
2,26761,30341,31326,94571,32442,-4592,-1433,-196,1,-17,27,325,491,-175,1,1,3,4,320,1,53298,1
2,26766,30340,31324,94572,32456,-4610,-1443,-193,-12,-14,24,318,492,-176,1,1,3,4,360,1,53298,1
2,26763,30348,31330,94573,32469,-4606,-1449,-190,-7,0,17,313,491,-177,1,1,3,4,400,1,53298,1
2,26758,30308,31325,94574,32483,-4588,-1432,-195,-9,-11,20,313,485,-167,1,1,3,4,440,1,53298,1
2,26753,30302,31326,94575,32497,-4598,-1433,-190,-5,-14,34,315,485,-171,1,1,3,4,480,1,53298,1
2,26758,30347,31330,94576,32511,-4605,-1433,-195,2,-2,25,314,482,-182,1,1,3,4,520,1,53298,1
2,26756,30346,31332,94577,32524,-4610,-1433,-203,-8,-20,33,317,493,-177,1,1,3,4,560,1,53298,1
2,26755,30348,31332,94578,32538,-4604,-1434,-182,-9,-15,25,322,486,-178,1,1,3,4,600,1,53298,1
2,26756,30349,31330,94579,32551,-4586,-1423,-195,-10,-16,26,313,487,-179,1,1,3,4,640,1,53298,1
2,26759,30352,31327,94580,32565,-4586,-1417,-201,-17,-22,23,316,492,-168,1,1,3,4,680,1,53298,1
2,26751,30356,31330,94581,32578,-4595,-1419,-183,-9,-15,25,315,487,-173,1,1,3,4,720,1,53298,1
2,26751,30354,31330,94582,32592,-4592,-1437,-197,-6,-11,30,307,485,-181,1,1,3,4,760,1,53298,1
2,26752,30350,31329,94583,32606,-4595,-1434,-192,-8,-4,28,315,477,-167,1,1,3,4,800,1,53298,1
2,26747,30344,31332,94584,32620,-4585,-1423,-186,-7,-9,26,314,486,-168,1,1,3,4,840,1,53298,1
2,26745,30354,31327,94585,32634,-4592,-1431,-197,-9,-12,31,322,494,-182,1,1,3,4,880,1,53298,1
2,26759,30362,31326,94586,32648,-4584,-1419,-195,-7,-22,28,320,486,-178,1,1,3,4,920,1,53298,1
2,26763,30361,31330,94587,32663,-4594,-1423,-203,-7,-21,30,313,489,-169,1,1,3,4,960,1,53298,1
1,26747,30366,31330,94588,0,-4592,-1427,-193,-12,-15,26,321,491,-171,1,1,3,5,0,0,53298,1
2,26763,30365,31330,94589,31906,-4590,-1427,-190,-3,-13,26,315,493,-175,1,1,3,5,40,0,53298,1
2,26747,30365,31333,94590,31920,-4584,-1427,-201,-9,-13,23,320,496,-174,1,1,3,5,80,0,53298,1
2,26746,30364,31329,94591,31933,-4595,-1436,-202,-3,-10,29,311,495,-175,1,1,3,5,120,0,53298,1
2,26746,30364,31330,94592,31947,-4592,-1431,-193,-7,-16,31,308,482,-174,1,1,3,5,160,0,53298,1
2,26740,30364,31332,94593,31960,-4594,-1431,-200,-11,-14,22,319,487,-171,1,1,3,5,200,0,53298,1
2,26742,30367,31331,94594,31974,-4595,-1435,-187,-4,-17,22,317,485,-175,1,1,3,5,240,0,53298,1
2,26748,30360,31330,94595,31987,-4603,-1442,-203,-5,-5,30,313,489,-175,1,1,3,5,280,0,53298,1
2,26738,30364,31335,94596,32002,-4594,-1438,-199,-7,-4,27,312,496,-176,1,1,3,5,320,0,53298,1
2,26741,30371,31331,94597,32015,-4591,-1426,-188,-6,-6,20,312,490,-180,1,1,3,5,360,0,53298,1
2,26743,30353,31331,94598,32030,-4601,-1434,-193,-9,-5,17,314,492,-174,1,1,3,5,400,0,53298,1
2,26742,30359,31330,94599,32044,-4596,-1432,-190,-3,-16,21,321,491,-177,1,1,3,5,440,0,53298,1
2,26737,30358,31330,94600,32058,-4596,-1432,-202,-13,-9,33,317,479,-171,1,1,3,5,480,0,53298,1
2,26739,30359,31331,94601,32072,-4600,-1430,-196,-11,-7,32,316,484,-172,1,1,3,5,520,0,53298,1
2,26746,30359,31334,94602,32086,-4597,-1428,-198,-5,-21,32,316,492,-174,1,1,3,5,560,0,53298,1
2,26750,30355,31335,94603,32099,-4593,-1434,-197,1,-23,20,309,489,-175,1,1,3,5,600,0,53298,1
2,26749,30358,31330,94604,32113,-4600,-1444,-201,-16,-15,16,318,486,-180,1,1,3,5,640,0,53298,1
2,26747,30357,31330,94605,32127,-4598,-1433,-192,-5,-16,23,316,490,-172,1,1,3,5,680,0,53298,1
2,26752,30350,31326,94606,32141,-4579,-1425,-190,-8,-13,19,316,488,-176,1,1,3,5,720,0,53298,1
2,26740,30351,31333,94607,32154,-4594,-1437,-193,-12,-10,29,315,493,-175,1,1,3,5,760,0,53298,1
2,26754,30351,31328,94608,32168,-4590,-1417,-190,-2,-10,37,315,487,-177,1,1,3,5,800,0,53298,1
2,26744,30348,31326,94609,32181,-4596,-1433,-183,-1,-17,31,316,486,-186,1,1,3,5,840,0,53298,1
2,26741,30346,31332,94610,32194,-4610,-1442,-198,-11,-13,25,320,482,-178,1,1,3,5,880,0,53298,1
2,26750,30350,31328,94611,32208,-4594,-1439,-185,-8,-14,26,319,489,-169,1,1,3,5,920,0,53298,1
2,26743,30351,31330,94612,32221,-4600,-1436,-197,-9,-6,26,316,490,-170,1,1,3,5,960,0,53298,1
1,26741,30364,31330,94613,0,-4598,-1436,-198,-14,4,18,312,486,-170,1,1,3,6,0,1,53298,1
2,26745,30357,31330,94614,31466,-4607,-1436,-188,-9,-4,21,304,484,-170,1,1,3,6,40,1,53298,1
2,26739,30351,31330,94615,31480,-4580,-1430,-203,-5,-1,20,315,491,-177,1,1,3,6,80,1,53298,1
2,26742,30347,31330,94616,31494,-4602,-1431,-199,-8,-11,31,318,492,-170,1,1,3,6,120,1,53298,1
2,26741,30341,31328,94617,31507,-4593,-1443,-193,2,-15,34,320,482,-178,1,1,3,6,160,1,53298,1
2,26738,30340,31331,94618,31522,-4596,-1435,-191,0,-23,33,320,482,-178,1,1,3,6,200,1,53298,1
2,26740,30335,31330,94619,31535,-4587,-1428,-184,-13,-23,27,317,491,-175,1,1,3,6,240,1,53298,1
2,26743,30333,31329,94620,31549,-4594,-1431,-187,-6,-16,24,316,490,-176,1,1,3,6,280,1,53298,1
2,26733,30333,31330,94621,31563,-4593,-1436,-192,-8,-16,17,321,489,-179,1,1,3,6,320,1,53298,1
2,26729,30342,31331,94622,31576,-4588,-1435,-194,-7,-12,24,315,487,-179,1,1,3,6,360,1,53298,1
2,26728,30346,31335,94623,31590,-4601,-1440,-198,-10,-12,25,308,484,-178,1,1,3,6,400,1,53298,1
2,26733,30344,31333,94624,31604,-4601,-1436,-186,0,-6,25,308,488,-174,1,1,3,6,440,1,53298,1
2,26729,30344,31333,94625,31619,-4599,-1425,-192,-10,-9,28,316,488,-178,1,1,3,6,480,1,53298,1
2,26735,30345,31334,94626,31632,-4605,-1431,-191,-14,-1,27,320,482,-182,1,1,3,6,520,1,53298,1
2,26728,30349,31335,94627,31647,-4595,-1435,-199,-11,-7,17,319,485,-175,1,1,3,6,560,1,53298,1
2,26729,30354,31335,94628,31661,-4599,-1437,-202,-9,-9,26,311,495,-173,1,1,3,6,600,1,53298,1
2,26736,30351,31330,94629,31676,-4590,-1424,-194,1,-13,23,311,489,-175,1,1,3,6,640,1,53298,1
2,26735,30340,31332,94630,31690,-4606,-1432,-190,-8,-8,23,309,487,-175,1,1,3,6,680,1,53298,1
2,26731,30339,31331,94631,31704,-4600,-1418,-207,-2,-11,19,314,492,-178,1,1,3,6,720,1,53298,1
2,26726,30330,31335,94632,31718,-4603,-1432,-196,-5,-9,29,317,491,-173,1,1,3,6,760,1,53298,1
2,26728,30336,31332,94633,31732,-4588,-1423,-191,-5,-15,26,312,496,-178,1,1,3,6,800,1,53298,1
2,26725,30342,31329,94634,31746,-4593,-1425,-205,-12,-17,35,313,495,-179,1,1,3,6,840,1,53298,1
2,26724,30344,31333,94635,31760,-4599,-1437,-195,-2,-14,25,315,487,-175,1,1,3,6,880,1,53298,1
2,26724,30346,31330,94636,31774,-4585,-1431,-188,-13,-10,9,313,483,-175,1,1,3,6,920,1,53298,1
2,26732,30339,31332,94637,31788,-4586,-1431,-188,-11,-7,22,315,491,-181,1,1,3,6,960,1,53298,1
1,26732,30347,31333,94638,0,-4603,-1431,-179,-9,-2,23,308,492,-168,1,1,3,7,0,1,53298,1
2,26730,30349,31330,94639,31028,-4594,-1431,-196,1,-7,23,320,488,-186,1,1,3,7,40,1,53298,1
2,26727,30347,31329,94640,31042,-4588,-1427,-189,-15,-12,28,319,497,-169,1,1,3,7,80,1,53298,1
2,26731,30351,31330,94641,31057,-4593,-1435,-192,-6,-15,25,313,491,-179,1,1,3,7,120,1,53298,1
2,26734,30354,31335,94642,31071,-4603,-1429,-198,-11,-18,26,310,490,-170,1,1,3,7,160,1,53298,1
2,26734,30356,31334,94643,31085,-4588,-1438,-192,-11,-15,23,316,488,-178,1,1,3,7,200,1,53298,1
2,26732,30350,31334,94644,31099,-4606,-1441,-189,-3,-12,33,317,487,-175,1,1,3,7,240,1,53298,1
2,26727,30361,31333,94645,31114,-4593,-1428,-193,-9,-6,26,315,489,-175,1,1,3,7,280,1,53298,1
2,26725,30360,31335,94646,31129,-4593,-1441,-191,-8,-4,22,317,497,-177,1,1,3,7,320,1,53298,1
2,26724,30359,31331,94647,31143,-4590,-1432,-188,-8,-1,23,310,482,-174,1,1,3,7,360,1,53298,1
2,26724,30355,31331,94648,31158,-4600,-1425,-193,-4,2,27,313,483,-167,1,1,3,7,400,1,53298,1
2,26726,30355,31335,94649,31172,-4588,-1423,-199,-7,-7,15,316,484,-172,1,1,3,7,440,1,53298,1
2,26724,30362,31333,94650,31186,-4606,-1438,-196,-3,-8,27,312,482,-172,1,1,3,7,480,1,53298,1
2,26728,30362,31330,94651,31200,-4602,-1428,-200,-2,-20,29,317,489,-173,1,1,3,7,520,1,53298,1
2,26726,30369,31329,94652,31214,-4582,-1426,-200,-13,-5,15,313,489,-183,1,1,3,7,560,1,53298,1
2,26733,30358,31328,94653,31227,-4580,-1433,-200,-9,-15,15,317,493,-167,1,1,3,7,600,1,53298,1
2,26735,30355,31329,94654,31242,-4582,-1427,-195,-6,-11,17,320,492,-184,1,1,3,7,640,1,53298,1
2,26738,30366,31333,94655,31257,-4592,-1431,-185,-1,-4,24,315,493,-177,1,1,3,7,680,1,53298,1
2,26730,30363,31331,94656,31271,-4603,-1440,-182,1,-3,24,310,494,-184,1,1,3,7,720,1,53298,1
2,26734,30365,31332,94657,31286,-4574,-1425,-208,-5,-11,21,319,489,-167,1,1,3,7,760,1,53298,1
2,26729,30361,31330,94658,31301,-4593,-1437,-196,-7,-5,23,315,489,-181,1,1,3,7,800,1,53298,1
2,26729,30357,31333,94659,31316,-4602,-1432,-207,0,-15,23,317,489,-181,1,1,3,7,840,1,53298,1
2,26731,30343,31330,94660,31330,-4587,-1423,-207,-4,-9,21,317,481,-177,1,1,3,7,880,1,53298,1
2,26727,30344,31330,94661,31343,-4595,-1425,-197,-8,1,21,310,490,-174,1,1,3,7,920,1,53298,1
2,26730,30350,31330,94662,31357,-4614,-1440,-215,-13,5,21,310,492,-166,1,1,3,7,960,1,53298,1
1,26728,30355,31333,94663,0,-4593,-1421,-201,-2,6,16,318,486,-174,1,1,3,8,0,0,53298,1
2,26735,30354,31330,94664,30591,-4597,-1434,-202,-16,-2,18,312,490,-178,1,1,3,8,40,0,53298,1
2,26736,30354,31331,94665,30605,-4608,-1435,-193,-13,-14,24,314,488,-182,1,1,3,8,80,0,53298,1
2,26732,30347,31333,94666,30620,-4605,-1438,-201,-7,-11,28,316,492,-176,1,1,3,8,120,0,53298,1
2,26735,30337,31329,94667,30634,-4590,-1425,-189,-3,-16,26,319,487,-175,1,1,3,8,160,0,53298,1
2,26726,30339,31331,94668,30649,-4594,-1435,-199,-14,-15,20,309,485,-179,1,1,3,8,200,0,53298,1
2,26733,30332,31328,94669,30663,-4598,-1436,-198,-3,-8,32,310,480,-174,1,1,3,8,240,0,53298,1
2,26735,30342,31328,94670,30678,-4584,-1423,-205,-4,-12,26,320,480,-168,1,1,3,8,280,0,53298,1
2,26738,30337,31333,94671,30692,-4595,-1427,-193,-8,-18,29,308,480,-172,1,1,3,8,320,0,53298,1
2,26735,30345,31330,94672,30705,-4593,-1428,-197,-10,-15,27,306,496,-166,1,1,3,8,360,0,53298,1
2,26732,30345,31330,94673,30720,-4606,-1442,-198,-8,-16,28,314,490,-174,1,1,3,8,400,0,53298,1
2,26744,30345,31332,94674,30733,-4602,-1434,-201,-7,-19,24,317,485,-175,1,1,3,8,440,0,53298,1
2,26734,30355,31334,94675,30747,-4592,-1437,-201,-6,-11,31,315,483,-171,1,1,3,8,480,0,53298,1
2,26734,30358,31335,94676,30761,-4593,-1428,-196,-11,-7,21,319,491,-181,1,1,3,8,520,0,53298,1
2,26732,30361,31330,94677,30775,-4603,-1436,-203,-11,-1,21,317,487,-181,1,1,3,8,560,0,53298,1
2,26730,30360,31334,94678,30789,-4601,-1435,-187,-12,-1,27,319,491,-183,1,1,3,8,600,0,53298,1
2,26737,30367,31332,94679,30803,-4598,-1436,-199,-8,-1,28,312,484,-178,1,1,3,8,640,0,53298,1
2,26725,30358,31330,94680,30817,-4599,-1433,-198,-3,-6,22,304,488,-166,1,1,3,8,680,0,53298,1
2,26735,30360,31329,94681,30831,-4586,-1430,-184,-7,-15,33,312,492,-166,1,1,3,8,720,0,53298,1
2,26730,30366,31330,94682,30846,-4594,-1432,-202,-6,-19,31,313,487,-181,1,1,3,8,760,0,53298,1
2,26730,30361,31333,94683,30860,-4600,-1424,-204,-11,-16,20,309,485,-175,1,1,3,8,800,0,53298,1
2,26732,30370,31331,94684,30874,-4599,-1430,-199,-13,-10,18,311,489,-173,1,1,3,8,840,0,53298,1
2,26735,30371,31332,94685,30887,-4599,-1426,-206,-3,-1,18,310,496,-166,1,1,3,8,880,0,53298,1
2,26734,30366,31330,94686,30900,-4595,-1434,-202,-6,1,25,318,486,-172,1,1,3,8,920,0,53298,1
2,26735,30370,31330,94687,30914,-4594,-1437,-189,1,0,29,316,486,-170,1,1,3,8,960,0,53298,1
1,26734,30373,31334,94688,0,-4589,-1433,-195,1,1,21,312,488,-172,1,1,3,9,0,1,53298,1
2,26735,30377,31330,94689,30152,-4600,-1443,-195,-15,19,9,314,494,-184,1,1,3,9,40,1,53298,1
2,26732,30378,31330,94690,30167,-4597,-1438,-193,-15,24,8,308,486,-166,1,1,3,9,80,1,53298,1
2,26737,30376,31330,94691,30181,-4592,-1433,-202,-22,13,17,315,491,-179,1,1,3,9,120,1,53298,1
2,26732,30372,31332,94692,30196,-4586,-1434,-193,-15,0,22,316,490,-176,1,1,3,9,160,1,53298,1
2,26733,30369,31331,94693,30210,-4592,-1447,-205,-15,-14,23,300,480,-166,1,1,3,9,200,1,53298,1
2,26733,30369,31328,94694,30224,-4586,-1435,-198,1,-15,23,311,491,-175,1,1,3,9,240,1,53298,1
2,26734,30365,31330,94695,30239,-4596,-1431,-182,-5,-16,29,314,488,-174,1,1,3,9,280,1,53298,1
2,26735,30364,31332,94696,30253,-4591,-1439,-195,-14,-11,25,319,491,-181,1,1,3,9,320,1,53298,1
2,26732,30359,31331,94697,30267,-4603,-1438,-200,-7,2,26,311,481,-185,1,1,3,9,360,1,53298,1
2,26739,30357,31331,94698,30282,-4597,-1427,-188,-9,-7,24,318,486,-170,1,1,3,9,400,1,53298,1
2,26731,30359,31331,94699,30296,-4597,-1435,-189,-7,-18,17,322,488,-176,1,1,3,9,440,1,53298,1
2,26735,30361,31331,94700,30311,-4600,-1435,-189,-6,-20,27,310,490,-172,1,1,3,9,480,1,53298,1
2,26733,30364,31327,94701,30325,-4600,-1438,-199,-4,-14,18,313,491,-173,1,1,3,9,520,1,53298,1
2,26743,30363,31329,94702,30340,-4595,-1445,-188,-7,-10,26,316,488,-176,1,1,3,9,560,1,53298,1
2,26738,30352,31330,94703,30354,-4606,-1443,-194,-3,-15,24,314,496,-178,1,1,3,9,600,1,53298,1
2,26742,30362,31327,94704,30368,-4597,-1442,-201,0,-19,38,312,494,-178,1,1,3,9,640,1,53298,1
2,26735,30358,31334,94705,30383,-4601,-1433,-196,4,-15,29,314,480,-174,1,1,3,9,680,1,53298,1
2,26738,30354,31333,94706,30396,-4601,-1434,-188,-8,-9,28,317,487,-179,1,1,3,9,720,1,53298,1
2,26744,30362,31332,94707,30411,-4597,-1436,-193,-10,-9,24,321,489,-169,1,1,3,9,760,1,53298,1
2,26736,30352,31331,94708,30425,-4583,-1437,-194,-6,-12,15,322,492,-164,1,1,3,9,800,1,53298,1
2,26725,30364,31329,94709,30439,-4595,-1437,-200,-10,-1,11,309,485,-177,1,1,3,9,840,1,53298,1
2,26730,30354,31334,94710,30453,-4601,-1437,-193,-3,-5,23,313,485,-181,1,1,3,9,880,1,53298,1
2,26740,30351,31330,94711,30467,-4597,-1436,-186,-3,-10,31,313,493,-169,1,1,3,9,920,1,53298,1
2,26744,30359,31332,94712,30481,-4601,-1438,-191,-2,-13,29,318,490,-174,1,1,3,9,960,1,53298,1
1,26736,30363,31332,94713,0,-4595,-1440,-191,-5,-15,35,303,487,-161,1,1,3,10,0,1,53298,1
2,26734,30361,31332,94714,29714,-4586,-1431,-199,-9,-19,23,318,494,-178,1,1,3,10,40,1,53298,1
2,26733,30363,31330,94715,29728,-4591,-1433,-182,-3,-23,15,313,489,-173,1,1,3,10,80,1,53298,1
2,26735,30361,31332,94716,29742,-4594,-1442,-205,-11,-16,28,318,494,-172,1,1,3,10,120,1,53298,1
2,26729,30361,31332,94717,29756,-4595,-1446,-199,-10,-4,35,319,487,-171,1,1,3,10,160,1,53298,1
2,26732,30360,31330,94718,29771,-4600,-1439,-200,-6,6,27,316,478,-170,1,1,3,10,200,1,53298,1
2,26730,30364,31329,94719,29785,-4606,-1431,-201,-9,5,21,321,489,-165,1,1,3,10,240,1,53298,1
2,26725,30365,31330,94720,29800,-4598,-1428,-202,-9,-15,22,316,490,-172,1,1,3,10,280,1,53298,1
2,26739,30371,31334,94721,29815,-4599,-1440,-189,-8,-35,24,314,488,-168,1,1,3,10,320,1,53298,1
2,26725,30368,31330,94722,29830,-4597,-1440,-203,-9,-38,44,312,486,-176,1,1,3,10,360,1,53298,1
2,26729,30370,31333,94723,29845,-4599,-1437,-192,8,-37,46,322,482,-176,1,1,3,10,400,1,53298,1
2,26736,30367,31330,94724,29859,-4579,-1426,-196,-13,-17,28,313,489,-181,1,1,3,10,440,1,53298,1
2,26733,30364,31330,94725,29874,-4594,-1440,-194,-20,14,20,312,488,-186,1,1,3,10,480,1,53298,1
2,26730,30365,31334,94726,29888,-4595,-1441,-206,1,-7,15,319,483,-177,1,1,3,10,520,1,53298,1
2,26727,30366,31333,94727,29903,-4590,-1428,-202,0,-25,33,318,482,-176,1,1,3,10,560,1,53298,1
2,26727,30365,31331,94728,29918,-4601,-1437,-199,-7,-24,45,315,483,-175,1,1,3,10,600,1,53298,1
2,26731,30366,31337,94729,29933,-4593,-1421,-192,-9,3,26,315,487,-179,1,1,3,10,640,1,53298,1
2,26727,30355,31330,94730,29948,-4597,-1436,-190,-20,14,11,316,480,-170,1,1,3,10,680,1,53298,1
2,26732,30365,31333,94731,29963,-4589,-1425,-195,-23,16,9,307,489,-173,1,1,3,10,720,1,53298,1
2,26726,30362,31331,94732,29977,-4600,-1439,-208,-23,20,1,315,491,-167,1,1,3,10,760,1,53298,1
2,26732,30360,31330,94733,29992,-4596,-1436,-190,-16,12,22,313,491,-169,1,1,3,10,800,1,53298,1
2,26727,30365,31331,94734,30007,-4605,-1437,-213,-6,9,22,314,490,-180,1,1,3,10,840,1,53298,1
2,26731,30351,31332,94735,30021,-4602,-1441,-195,-10,9,18,316,480,-176,1,1,3,10,880,1,53298,1
2,26732,30348,31330,94736,30036,-4600,-1436,-196,-9,2,35,316,490,-186,1,1,3,10,920,1,53298,1
2,26718,30357,31332,94737,30050,-4589,-1439,-200,-7,-3,33,321,485,-177,1,1,3,10,960,1,53298,1
1,26722,30355,31330,94738,0,-4589,-1423,-218,-1,-10,39,314,480,-170,1,1,3,11,0,0,53298,1
2,26725,30353,31333,94739,29277,-4585,-1431,-198,-7,-9,19,310,488,-166,1,1,3,11,40,0,53298,1
2,26715,30353,31331,94740,29292,-4589,-1432,-211,-9,5,9,320,476,-176,1,1,3,11,80,0,53298,1
2,26717,30357,31330,94741,29307,-4593,-1434,-193,-13,10,8,312,482,-176,1,1,3,11,120,0,53298,1
2,26723,30343,31335,94742,29322,-4593,-1431,-199,-21,5,15,318,492,-182,1,1,3,11,160,0,53298,1
2,26719,30348,31331,94743,29337,-4587,-1429,-204,-13,-7,24,317,489,-171,1,1,3,11,200,0,53298,1
2,26719,30355,31329,94744,29353,-4582,-1425,-203,4,-30,34,314,482,-170,1,1,3,11,240,0,53298,1
2,26725,30357,31329,94745,29369,-4586,-1435,-206,-3,-42,31,318,494,-174,1,1,3,11,280,0,53298,1
2,26727,30351,31332,94746,29383,-4596,-1449,-199,-4,-33,23,312,492,-172,1,1,3,11,320,0,53298,1
2,26737,30347,31331,94747,29398,-4599,-1442,-189,-2,-11,14,311,487,-167,1,1,3,11,360,0,53298,1
2,26740,30342,31334,94748,29413,-4605,-1438,-197,-14,7,8,311,495,-177,1,1,3,11,400,0,53298,1
2,26739,30336,31331,94749,29427,-4598,-1440,-196,-16,4,32,313,483,-169,1,1,3,11,440,0,53298,1
2,26743,30333,31335,94750,29441,-4603,-1433,-198,-7,-8,35,318,482,-180,1,1,3,11,480,0,53298,1
2,26739,30330,31332,94751,29456,-4588,-1440,-203,-1,-18,39,316,484,-176,1,1,3,11,520,0,53298,1
2,26732,30339,31335,94752,29471,-4586,-1433,-197,-5,-23,32,320,490,-178,1,1,3,11,560,0,53298,1
2,26733,30343,31335,94753,29486,-4597,-1426,-194,-6,-18,31,317,485,-169,1,1,3,11,600,0,53298,1
2,26732,30340,31338,94754,29501,-4591,-1429,-209,-9,-10,18,314,486,-168,1,1,3,11,640,0,53298,1
2,26735,30352,31330,94755,29516,-4578,-1426,-198,-5,-17,19,311,493,-177,1,1,3,11,680,0,53298,1
2,26735,30351,31332,94756,29531,-4601,-1435,-193,-4,-16,25,318,490,-174,1,1,3,11,720,0,53298,1
2,26730,30355,31335,94757,29546,-4600,-1434,-209,-8,2,31,317,487,-183,1,1,3,11,760,0,53298,1
2,26736,30362,31333,94758,29562,-4596,-1436,-204,-10,10,21,315,487,-175,1,1,3,11,800,0,53298,1
2,26740,30361,31330,94759,29577,-4595,-1429,-215,-15,-7,28,311,481,-173,1,1,3,11,840,0,53298,1
2,26733,30359,31334,94760,29592,-4601,-1433,-197,-16,-9,18,312,478,-174,1,1,3,11,880,0,53298,1
2,26733,30360,31333,94761,29608,-4597,-1433,-202,-20,-4,28,303,485,-165,1,1,3,11,920,0,53298,1
2,26739,30370,31335,94762,29623,-4592,-1436,-201,-9,-17,24,308,484,-162,1,1,3,11,960,0,53298,1
1,26737,30369,31336,94763,0,-4595,-1433,-213,-4,-20,34,311,487,-175,1,1,3,12,0,1,53298,1
2,26735,30365,31334,94764,28839,-4589,-1432,-195,-9,-21,35,320,490,-182,1,1,3,12,40,1,53298,1
2,26734,30369,31334,94765,28854,-4599,-1445,-203,-3,-38,37,318,486,-178,1,1,3,12,80,1,53298,1
2,26734,30367,31334,94766,28869,-4583,-1432,-209,0,-26,24,316,486,-172,1,1,3,12,120,1,53298,1
2,26730,30368,31331,94767,28884,-4593,-1433,-192,-8,-18,40,318,490,-176,1,1,3,12,160,1,53298,1
2,26732,30367,31332,94768,28899,-4595,-1430,-201,-1,-10,32,315,493,-163,1,1,3,12,200,1,53298,1
2,26732,30367,31335,94769,28913,-4595,-1429,-194,-14,0,20,321,491,-171,1,1,3,12,240,1,53298,1
2,26740,30361,31332,94770,28927,-4581,-1425,-199,-25,9,9,316,488,-182,1,1,3,12,280,1,53298,1
2,26735,30358,31332,94771,28942,-4588,-1431,-195,-9,-14,13,313,491,-173,1,1,3,12,320,1,53298,1
2,26727,30360,31330,94772,28957,-4593,-1431,-210,-13,-12,26,314,492,-172,1,1,3,12,360,1,53298,1
2,26732,30367,31335,94773,28972,-4610,-1432,-185,-11,-7,34,317,487,-175,1,1,3,12,400,1,53298,1
2,26730,30365,31335,94774,28987,-4587,-1433,-190,4,-21,39,317,493,-159,1,1,3,12,440,1,53298,1
2,26735,30365,31331,94775,29002,-4589,-1435,-193,-8,-23,35,311,495,-179,1,1,3,12,480,1,53298,1
2,26736,30368,31335,94776,29017,-4593,-1430,-208,-14,-20,27,315,477,-173,1,1,3,12,520,1,53298,1
2,26734,30370,31330,94777,29032,-4600,-1435,-204,-8,-23,26,313,481,-177,1,1,3,12,560,1,53298,1
2,26736,30372,31330,94778,29048,-4588,-1436,-202,-3,-17,20,314,486,-182,1,1,3,12,600,1,53298,1
2,26727,30363,31333,94779,29062,-4603,-1442,-198,-15,-4,23,315,487,-169,1,1,3,12,640,1,53298,1
2,26730,30368,31330,94780,29077,-4598,-1441,-201,-6,6,19,321,491,-187,1,1,3,12,680,1,53298,1
2,26728,30366,31328,94781,29092,-4587,-1437,-210,-5,3,28,316,484,-176,1,1,3,12,720,1,53298,1
2,26728,30366,31330,94782,29107,-4610,-1454,-207,-11,-11,20,315,483,-179,1,1,3,12,760,1,53298,1
2,26724,30372,31334,94783,29121,-4597,-1436,-196,-6,-25,30,309,487,-173,1,1,3,12,800,1,53298,1
2,26728,30367,31329,94784,29136,-4587,-1428,-194,-3,-32,33,314,494,-178,1,1,3,12,840,1,53298,1
2,26724,30368,31333,94785,29150,-4594,-1431,-198,-8,-18,35,312,480,-170,1,1,3,12,880,1,53298,1
2,26732,30369,31334,94786,29163,-4587,-1427,-198,-4,5,24,317,493,-179,1,1,3,12,920,1,53298,1
2,26731,30369,31332,94787,29177,-4601,-1435,-196,-9,17,22,317,483,-169,1,1,3,12,960,1,53298,1
1,26729,30366,31336,94788,0,-4583,-1435,-197,-11,5,27,317,495,-175,1,1,3,13,0,0,53298,1
2,26724,30366,31331,94789,28400,-4597,-1441,-206,1,-8,29,319,483,-173,1,1,3,13,40,0,53298,1
2,26729,30371,31330,94790,28414,-4601,-1434,-182,-12,-12,20,317,483,-183,1,1,3,13,80,0,53298,1
2,26735,30366,31333,94791,28428,-4596,-1431,-197,-17,12,14,304,490,-178,1,1,3,13,120,0,53298,1
2,26740,30369,31335,94792,28442,-4600,-1435,-204,-11,27,15,321,493,-181,1,1,3,13,160,0,53298,1
2,26729,30365,31332,94793,28456,-4599,-1444,-201,-20,26,10,314,492,-176,1,1,3,13,200,0,53298,1
2,26733,30365,31333,94794,28471,-4597,-1448,-211,-13,10,11,312,490,-174,1,1,3,13,240,0,53298,1
2,26748,30369,31333,94795,28485,-4605,-1436,-194,-9,-15,19,314,488,-174,1,1,3,13,280,0,53298,1
2,26740,30368,31330,94796,28499,-4600,-1436,-188,4,-27,31,316,488,-174,1,1,3,13,320,0,53298,1
2,26745,30364,31335,94797,28512,-4584,-1419,-206,-8,-24,24,317,485,-181,1,1,3,13,360,0,53298,1
2,26733,30369,31328,94798,28526,-4610,-1444,-199,-15,5,15,317,485,-183,1,1,3,13,400,0,53298,1
2,26738,30361,31334,94799,28540,-4588,-1429,-199,-16,16,14,320,492,-180,1,1,3,13,440,0,53298,1
2,26737,30358,31330,94800,28553,-4594,-1443,-214,-5,13,28,306,484,-166,1,1,3,13,480,0,53298,1
2,26735,30357,31332,94801,28566,-4583,-1426,-194,-7,4,14,315,485,-163,1,1,3,13,520,0,53298,1
2,26738,30357,31330,94802,28580,-4591,-1437,-221,-9,7,23,320,490,-176,1,1,3,13,560,0,53298,1
2,26726,30360,31330,94803,28593,-4592,-1442,-190,-3,7,10,314,488,-180,1,1,3,13,600,0,53298,1
2,26729,30365,31337,94804,28607,-4595,-1437,-223,-16,15,9,315,483,-173,1,1,3,13,640,0,53298,1
2,26734,30360,31337,94805,28620,-4597,-1446,-205,-8,10,13,319,489,-173,1,1,3,13,680,0,53298,1
2,26735,30360,31334,94806,28634,-4593,-1432,-198,-9,-5,26,323,483,-179,1,1,3,13,720,0,53298,1
2,26734,30358,31335,94807,28647,-4592,-1432,-201,-5,-13,24,317,489,-177,1,1,3,13,760,0,53298,1
2,26736,30350,31333,94808,28660,-4591,-1429,-190,-4,1,26,324,488,-176,1,1,3,13,800,0,53298,1
2,26726,30355,31331,94809,28674,-4606,-1440,-203,-26,38,-3,311,487,-171,1,1,3,13,840,0,53298,1
2,26733,30367,31335,94810,28688,-4600,-1441,-213,-34,88,-42,310,494,-170,1,1,3,13,880,0,53298,1
2,26737,30363,31336,94811,28702,-4593,-1439,-207,-40,154,-89,322,492,-182,1,1,3,13,920,0,53298,1
2,26727,30370,31340,94812,28716,-4594,-1432,-221,-48,239,-129,315,485,-179,1,1,3,13,960,0,53298,1
1,26734,30366,31335,94813,0,-4580,-1432,-202,-77,336,-207,313,485,-167,1,1,3,14,0,0,53298,1
2,26725,30373,31339,94814,27963,-4591,-1484,-238,-90,431,-264,318,488,-170,1,1,3,14,40,0,53298,1
2,26736,30380,31339,94815,27977,-4557,-1426,-219,-43,482,-281,316,484,-172,1,1,3,14,80,0,53298,1
2,26734,30375,31342,94816,27991,-4605,-1498,-246,-166,446,-257,322,488,-186,1,1,3,14,120,0,53298,1
2,26727,30376,31339,94817,28005,-4581,-1487,-280,-79,348,-188,314,490,-172,1,1,3,14,160,0,53298,1
2,26727,30360,31337,94818,28019,-4602,-1487,-285,-51,246,-139,323,489,-189,1,1,3,14,200,0,53298,1
2,26727,30347,31336,94819,28033,-4576,-1488,-293,-38,153,-88,322,484,-188,1,1,3,14,240,0,53298,1
2,26730,30352,31340,94820,28046,-4586,-1491,-282,-20,71,-36,322,490,-186,1,1,3,14,280,0,53298,1
2,26727,30344,31339,94821,28060,-4585,-1481,-285,-22,26,-2,319,485,-175,1,1,3,14,320,0,53298,1
2,26725,30346,31338,94822,28074,-4569,-1474,-282,2,1,21,324,488,-186,1,1,3,14,360,0,53298,1
2,26724,30346,31339,94823,28088,-4590,-1481,-268,-3,11,30,328,480,-180,1,1,3,14,400,0,53298,1
2,26723,30343,31338,94824,28102,-4588,-1490,-281,-9,19,26,315,487,-183,1,1,3,14,440,0,53298,1
2,26726,30359,31342,94825,28115,-4574,-1483,-268,-3,13,35,314,486,-184,1,1,3,14,480,0,53298,1
2,26724,30352,31338,94826,28130,-4579,-1485,-289,-4,4,27,318,482,-180,1,1,3,14,520,0,53298,1
2,26727,30352,31338,94827,28144,-4589,-1486,-275,-12,-9,20,318,480,-178,1,1,3,14,560,0,53298,1
2,26721,30341,31340,94828,28159,-4591,-1494,-273,-7,-30,21,319,485,-185,1,1,3,14,600,0,53298,1
2,26727,30357,31339,94829,28174,-4572,-1480,-283,-7,-22,16,318,494,-168,1,1,3,14,640,0,53298,1
2,26726,30359,31340,94830,28188,-4575,-1479,-273,-10,-9,19,316,494,-186,1,1,3,14,680,0,53298,1
2,26731,30333,31339,94831,28203,-4579,-1482,-274,-3,-2,19,315,485,-179,1,1,3,14,720,0,53298,1
2,26725,30344,31340,94832,28217,-4574,-1480,-296,-14,22,19,316,492,-188,1,1,3,14,760,0,53298,1
2,26736,30335,31336,94833,28231,-4579,-1489,-279,-17,28,11,317,485,-187,1,1,3,14,800,0,53298,1
2,26729,30338,31338,94834,28246,-4574,-1496,-283,-4,24,13,321,487,-177,1,1,3,14,840,0,53298,1
2,26727,30338,31340,94835,28260,-4577,-1490,-295,-6,13,10,324,484,-188,1,1,3,14,880,0,53298,1
2,26730,30345,31340,94836,28275,-4579,-1487,-291,-13,-5,9,317,491,-179,1,1,3,14,920,0,53298,1
2,26725,30333,31338,94837,28291,-4582,-1489,-289,-5,-14,26,316,490,-178,1,1,3,14,960,0,53298,1
1,26725,30327,31340,94838,0,-4571,-1482,-282,3,-17,34,313,481,-181,1,1,3,15,0,0,53298,1
2,26725,30341,31338,94839,27526,-4580,-1485,-294,0,-17,29,320,496,-178,1,1,3,15,40,0,53298,1
2,26731,30343,31341,94840,27541,-4576,-1480,-284,-3,-12,37,308,492,-172,1,1,3,15,80,0,53298,1
2,26731,30340,31336,94841,27557,-4577,-1487,-275,0,-4,43,313,491,-173,1,1,3,15,120,0,53298,1
2,26729,30335,31335,94842,27571,-4586,-1485,-278,-5,-16,37,323,481,-187,1,1,3,15,160,0,53298,1
2,26732,30335,31337,94843,27586,-4569,-1470,-294,-5,-29,29,323,489,-181,1,1,3,15,200,0,53298,1
2,26734,30336,31335,94844,27600,-4597,-1505,-267,-9,-19,9,313,489,-175,1,1,3,15,240,0,53298,1
2,26728,30331,31335,94845,27615,-4576,-1501,-293,-6,-34,4,315,483,-183,1,1,3,15,280,0,53298,1
2,26733,30331,31335,94846,27629,-4560,-1473,-268,-3,-33,18,316,494,-190,1,1,3,15,320,0,53298,1
2,26729,30328,31339,94847,27643,-4581,-1496,-291,-2,-8,27,325,491,-183,1,1,3,15,360,0,53298,1
2,26731,30328,31338,94848,27657,-4582,-1476,-284,-2,2,33,313,481,-183,1,1,3,15,400,0,53298,1
2,26734,30335,31339,94849,27672,-4589,-1496,-283,-6,6,39,315,489,-177,1,1,3,15,440,0,53298,1
2,26737,30334,31339,94850,27686,-4590,-1486,-285,-2,2,32,318,484,-182,1,1,3,15,480,0,53298,1
2,26731,30333,31340,94851,27700,-4583,-1485,-292,-8,-1,26,316,488,-182,1,1,3,15,520,0,53298,1
2,26726,30331,31336,94852,27715,-4570,-1477,-279,-6,-15,22,317,489,-185,1,1,3,15,560,0,53298,1
2,26733,30325,31337,94853,27728,-4588,-1480,-272,-10,-14,23,326,490,-180,1,1,3,15,600,0,53298,1
2,26725,30333,31336,94854,27742,-4582,-1485,-278,-10,-7,24,319,495,-179,1,1,3,15,640,0,53298,1
2,26730,30338,31340,94855,27755,-4589,-1493,-270,-7,1,31,312,484,-180,1,1,3,15,680,0,53298,1
2,26725,30332,31343,94856,27770,-4584,-1475,-291,-5,18,25,323,491,-189,1,1,3,15,720,0,53298,1
2,26726,30343,31339,94857,27784,-4575,-1485,-272,-11,26,22,325,491,-187,1,1,3,15,760,0,53298,1
2,26726,30335,31334,94858,27797,-4580,-1481,-298,-15,24,15,314,480,-190,1,1,3,15,800,0,53298,1
2,26727,30312,31338,94859,27811,-4570,-1487,-292,-17,11,9,324,490,-176,1,1,3,15,840,0,53298,1
2,26719,30319,31340,94860,27825,-4582,-1499,-285,-15,-25,24,313,487,-179,1,1,3,15,880,0,53298,1
2,26733,30326,31338,94861,27839,-4581,-1491,-280,3,-37,37,319,489,-181,1,1,3,15,920,0,53298,1
2,26718,30323,31341,94862,27852,-4584,-1489,-282,-4,-21,18,326,484,-186,1,1,3,15,960,0,53298,1
1,26723,30320,31340,94863,0,-4566,-1488,-285,-9,5,13,314,488,-180,1,1,3,16,0,1,53298,1
2,26717,30326,31340,94864,27087,-4576,-1485,-274,-5,-2,26,322,500,-180,1,1,3,16,40,1,53298,1
2,26723,30333,31338,94865,27102,-4584,-1488,-266,-10,-2,29,313,483,-189,1,1,3,16,80,1,53298,1
2,26722,30318,31338,94866,27116,-4565,-1481,-297,-3,2,37,311,485,-189,1,1,3,16,120,1,53298,1
2,26729,30317,31337,94867,27131,-4568,-1479,-292,4,-23,38,319,489,-185,1,1,3,16,160,1,53298,1
2,26726,30320,31338,94868,27145,-4574,-1489,-288,-9,-23,28,317,495,-177,1,1,3,16,200,1,53298,1
2,26724,30309,31336,94869,27159,-4582,-1488,-288,-7,-19,27,312,484,-190,1,1,3,16,240,1,53298,1
2,26723,30309,31339,94870,27174,-4573,-1481,-278,-9,-15,23,320,492,-188,1,1,3,16,280,1,53298,1
2,26718,30301,31337,94871,27189,-4572,-1482,-278,-17,5,21,318,488,-184,1,1,3,16,320,1,53298,1
2,26718,30304,31337,94872,27204,-4592,-1497,-277,-9,16,15,323,489,-173,1,1,3,16,360,1,53298,1
2,26724,30303,31340,94873,27219,-4585,-1487,-287,-12,22,9,320,490,-182,1,1,3,16,400,1,53298,1
2,26724,30301,31340,94874,27233,-4582,-1491,-289,-10,16,7,316,488,-180,1,1,3,16,440,1,53298,1
2,26722,30292,31335,94875,27247,-4581,-1499,-306,-8,7,15,316,486,-186,1,1,3,16,480,1,53298,1
2,26729,30307,31336,94876,27262,-4581,-1501,-293,1,-16,27,314,496,-184,1,1,3,16,520,1,53298,1
2,26719,30304,31339,94877,27277,-4570,-1484,-301,-10,-21,33,312,484,-184,1,1,3,16,560,1,53298,1
2,26720,30304,31341,94878,27293,-4569,-1483,-284,-10,-25,23,318,480,-188,1,1,3,16,600,1,53298,1
2,26718,30301,31339,94879,27309,-4584,-1496,-288,-7,-28,26,313,483,-189,1,1,3,16,640,1,53298,1
2,26713,30303,31336,94880,27324,-4587,-1494,-277,-5,-22,18,319,487,-177,1,1,3,16,680,1,53298,1
2,26723,30308,31339,94881,27338,-4583,-1498,-291,-7,-14,29,319,487,-191,1,1,3,16,720,1,53298,1
2,26721,30317,31338,94882,27353,-4588,-1489,-284,-5,3,25,318,484,-180,1,1,3,16,760,1,53298,1
2,26722,30314,31338,94883,27368,-4580,-1483,-290,-5,-3,23,316,492,-182,1,1,3,16,800,1,53298,1
2,26717,30319,31338,94884,27383,-4573,-1474,-285,-6,-11,25,321,489,-175,1,1,3,16,840,1,53298,1
2,26718,30319,31335,94885,27398,-4580,-1492,-277,-16,-14,27,320,486,-184,1,1,3,16,880,1,53298,1
2,26717,30311,31336,94886,27413,-4583,-1493,-279,-5,-22,24,320,490,-180,1,1,3,16,920,1,53298,1
2,26720,30318,31339,94887,27428,-4576,-1488,-284,0,-18,33,318,486,-182,1,1,3,16,960,1,53298,1
1,26724,30323,31339,94888,0,-4576,-1489,-288,-6,-24,34,309,487,-181,1,1,3,17,0,1,53298,1
2,26719,30319,31345,94889,26650,-4570,-1477,-284,-4,-23,29,315,483,-185,1,1,3,17,40,1,53298,1
2,26719,30303,31336,94890,26664,-4582,-1490,-278,0,-20,27,323,493,-185,1,1,3,17,80,1,53298,1
2,26733,30301,31340,94891,26678,-4576,-1484,-284,0,-5,33,315,485,-179,1,1,3,17,120,1,53298,1
2,26724,30294,31341,94892,26692,-4575,-1484,-283,1,-5,55,319,489,-177,1,1,3,17,160,1,53298,1
2,26724,30286,31335,94893,26706,-4597,-1498,-281,-1,6,37,316,486,-188,1,1,3,17,200,1,53298,1
2,26715,30283,31337,94894,26720,-4583,-1490,-294,-8,6,18,318,486,-178,1,1,3,17,240,1,53298,1
2,26722,30304,31341,94895,26734,-4579,-1492,-289,-16,7,-9,314,486,-176,1,1,3,17,280,1,53298,1
2,26723,30307,31339,94896,26748,-4578,-1506,-299,-34,26,6,314,482,-178,1,1,3,17,320,1,53298,1
2,26717,30295,31340,94897,26762,-4585,-1488,-275,-7,88,17,315,487,-185,1,1,3,17,360,1,53298,1
2,26724,30277,31339,94898,26776,-4583,-1508,-304,-5,141,6,313,489,-187,1,1,3,17,400,1,53298,1
2,26712,30280,31338,94899,26791,-4603,-1512,-310,26,105,36,323,481,-187,1,1,3,17,440,1,53298,1
2,26718,30276,31337,94900,26805,-4583,-1501,-319,53,-4,73,316,482,-184,1,1,3,17,480,1,53298,1
2,26726,30263,31335,94901,26819,-4591,-1491,-304,40,-115,114,317,485,-183,1,1,3,17,520,1,53298,1
2,26718,30258,31335,94902,26833,-4578,-1469,-279,63,-199,118,326,484,-176,1,1,3,17,560,1,53298,1
2,26714,30271,31337,94903,26847,-4561,-1466,-281,34,-189,88,319,491,-175,1,1,3,17,600,1,53298,1
2,26721,30266,31337,94904,26861,-4576,-1476,-281,7,-127,40,316,498,-178,1,1,3,17,640,1,53298,1
2,26720,30262,31339,94905,26876,-4591,-1489,-282,-1,-34,5,314,492,-176,1,1,3,17,680,1,53298,1
2,26716,30270,31338,94906,26891,-4584,-1492,-294,-22,22,-9,313,485,-183,1,1,3,17,720,1,53298,1
2,26715,30265,31339,94907,26904,-4575,-1488,-290,-22,38,6,313,493,-175,1,1,3,17,760,1,53298,1
2,26717,30268,31338,94908,26918,-4576,-1481,-290,-25,12,30,309,491,-175,1,1,3,17,800,1,53298,1
2,26715,30265,31337,94909,26933,-4570,-1458,-277,9,-7,35,309,487,-185,1,1,3,17,840,1,53298,1
2,26717,30270,31338,94910,26947,-4572,-1482,-286,-30,18,9,313,491,-181,1,1,3,17,880,1,53298,1
2,26716,30276,31338,94911,26961,-4575,-1477,-288,-37,47,-17,320,486,-188,1,1,3,17,920,1,53298,1
2,26723,30274,31337,94912,26976,-4573,-1475,-281,-29,82,-51,319,487,-179,1,1,3,17,960,1,53298,1
1,26724,30281,31339,94913,0,-4592,-1497,-294,-68,142,-74,319,485,-183,1,1,3,18,0,0,53298,1
2,26712,30266,31342,94914,26211,-4575,-1504,-305,-25,157,-58,319,487,-171,1,1,3,18,40,0,53298,1
2,26710,30263,31338,94915,26225,-4593,-1503,-301,30,142,-36,307,493,-181,1,1,3,18,80,0,53298,1
2,26714,30270,31340,94916,26239,-4574,-1486,-304,2,97,-24,312,488,-190,1,1,3,18,120,0,53298,1
2,26721,30267,31338,94917,26253,-4583,-1498,-308,-8,22,6,325,485,-185,1,1,3,18,160,0,53298,1
2,26724,30250,31337,94918,26266,-4574,-1501,-301,13,-45,39,319,499,-183,1,1,3,18,200,0,53298,1
2,26719,30253,31340,94919,26280,-4572,-1489,-293,16,-89,58,317,485,-187,1,1,3,18,240,0,53298,1
2,26719,30277,31338,94920,26294,-4573,-1491,-296,21,-110,63,324,486,-182,1,1,3,18,280,0,53298,1
2,26719,30272,31340,94921,26308,-4582,-1491,-292,20,-101,69,323,485,-179,1,1,3,18,320,0,53298,1
2,26717,30252,31340,94922,26321,-4583,-1490,-297,22,-86,66,321,485,-193,1,1,3,18,360,0,53298,1
2,26735,30245,31343,94923,26336,-4591,-1492,-294,11,-62,53,311,491,-183,1,1,3,18,400,0,53298,1
2,26726,30252,31340,94924,26350,-4580,-1491,-294,0,-41,40,321,495,-185,1,1,3,18,440,0,53298,1
2,26722,30263,31338,94925,26364,-4585,-1493,-297,3,-24,32,315,493,-185,1,1,3,18,480,0,53298,1
2,26722,30260,31333,94926,26377,-4580,-1489,-284,-2,-21,29,320,490,-188,1,1,3,18,520,0,53298,1
2,26725,30245,31336,94927,26391,-4582,-1497,-298,-9,-11,29,324,480,-182,1,1,3,18,560,0,53298,1
2,26727,30246,31336,94928,26405,-4588,-1502,-277,-14,-2,24,314,496,-176,1,1,3,18,600,0,53298,1
2,26720,30240,31335,94929,26420,-4584,-1490,-289,-13,12,15,316,488,-174,1,1,3,18,640,0,53298,1
2,26718,30245,31335,94930,26434,-4580,-1501,-291,-16,13,10,323,497,-181,1,1,3,18,680,0,53298,1
2,26713,30263,31336,94931,26448,-4584,-1500,-294,-14,11,19,316,490,-186,1,1,3,18,720,0,53298,1
2,26715,30255,31339,94932,26462,-4583,-1495,-300,-9,-7,22,311,491,-187,1,1,3,18,760,0,53298,1
2,26721,30261,31337,94933,26477,-4582,-1485,-292,-7,-5,16,314,490,-188,1,1,3,18,800,0,53298,1
2,26724,30260,31339,94934,26492,-4581,-1499,-294,-8,0,16,312,482,-190,1,1,3,18,840,0,53298,1
2,26713,30265,31337,94935,26507,-4584,-1493,-278,-7,-3,21,317,489,-185,1,1,3,18,880,0,53298,1
2,26717,30275,31335,94936,26522,-4583,-1489,-300,-12,-4,18,308,484,-178,1,1,3,18,920,0,53298,1
2,26717,30279,31335,94937,26536,-4572,-1495,-301,-3,-5,22,318,484,-184,1,1,3,18,960,0,53298,1
1,26715,30289,31335,94938,0,-4576,-1499,-302,-5,-7,35,326,492,-184,1,1,3,19,0,1,53298,1
2,26712,30289,31339,94939,25775,-4566,-1485,-292,-13,-14,44,320,486,-190,1,1,3,19,40,1,53298,1
2,26711,30287,31338,94940,25790,-4573,-1485,-308,1,-19,31,318,488,-180,1,1,3,19,80,1,53298,1
2,26717,30266,31335,94941,25804,-4578,-1488,-299,-7,-21,25,314,488,-184,1,1,3,19,120,1,53298,1
2,26718,30286,31338,94942,25818,-4590,-1495,-288,-4,-27,19,322,498,-178,1,1,3,19,160,1,53298,1
2,26717,30266,31340,94943,25832,-4585,-1499,-286,1,-30,29,325,493,-171,1,1,3,19,200,1,53298,1
2,26720,30278,31340,94944,25847,-4587,-1500,-300,-6,-18,35,316,488,-184,1,1,3,19,240,1,53298,1
2,26716,30287,31339,94945,25861,-4587,-1491,-288,-11,-2,24,321,495,-183,1,1,3,19,280,1,53298,1
2,26713,30275,31338,94946,25875,-4571,-1488,-287,-16,0,17,320,490,-186,1,1,3,19,320,1,53298,1
2,26712,30299,31342,94947,25889,-4581,-1499,-294,-13,18,10,310,492,-180,1,1,3,19,360,1,53298,1
2,26717,30293,31335,94948,25903,-4579,-1494,-299,-15,14,19,320,492,-176,1,1,3,19,400,1,53298,1
2,26714,30286,31334,94949,25917,-4591,-1492,-291,-8,-7,31,318,490,-174,1,1,3,19,440,1,53298,1
2,26723,30295,31340,94950,25932,-4579,-1489,-298,-9,-14,37,323,493,-183,1,1,3,19,480,1,53298,1
2,26717,30300,31337,94951,25946,-4585,-1489,-283,-6,-24,29,311,483,-187,1,1,3,19,520,1,53298,1
2,26722,30275,31337,94952,25960,-4592,-1495,-297,-7,-17,23,323,493,-179,1,1,3,19,560,1,53298,1
2,26722,30275,31339,94953,25975,-4578,-1486,-314,-11,-16,18,309,489,-183,1,1,3,19,600,1,53298,1
2,26724,30274,31338,94954,25989,-4589,-1507,-292,-7,1,24,317,491,-171,1,1,3,19,640,1,53298,1
2,26724,30264,31338,94955,26003,-4562,-1479,-298,-2,13,27,320,488,-188,1,1,3,19,680,1,53298,1
2,26720,30267,31339,94956,26017,-4582,-1488,-300,-14,20,25,311,487,-189,1,1,3,19,720,1,53298,1
2,26722,30252,31338,94957,26031,-4573,-1490,-312,-13,11,16,325,489,-183,1,1,3,19,760,1,53298,1
2,26720,30253,31337,94958,26045,-4575,-1487,-293,-6,-9,16,316,492,-186,1,1,3,19,800,1,53298,1
2,26724,30261,31334,94959,26059,-4583,-1491,-294,-5,-16,31,318,490,-184,1,1,3,19,840,1,53298,1
2,26724,30272,31335,94960,26073,-4582,-1493,-292,-7,-27,27,316,488,-176,1,1,3,19,880,1,53298,1
2,26725,30264,31336,94961,26088,-4574,-1489,-300,-6,-21,36,314,482,-168,1,1,3,19,920,1,53298,1
2,26717,30270,31338,94962,26102,-4583,-1490,-291,-4,-19,29,318,486,-184,1,1,3,19,960,1,53298,1
1,26722,30270,31335,94963,0,-4574,-1493,-289,-8,-12,21,317,489,-181,1,1,3,20,0,0,53298,1
2,26718,30273,31335,94964,25337,-4583,-1495,-299,-9,-6,17,317,485,-173,1,1,3,20,40,0,53298,1
2,26720,30280,31338,94965,25351,-4577,-1485,-305,-3,-2,20,313,487,-171,1,1,3,20,80,0,53298,1
2,26718,30286,31336,94966,25364,-4569,-1473,-295,-5,-8,16,323,491,-189,1,1,3,20,120,0,53298,1
2,26715,30290,31339,94967,25378,-4571,-1485,-291,-11,-9,29,308,490,-186,1,1,3,20,160,0,53298,1
2,26714,30290,31337,94968,25392,-4583,-1493,-300,-8,-10,26,312,490,-178,1,1,3,20,200,0,53298,1
2,26716,30287,31343,94969,25406,-4581,-1486,-304,-8,-13,26,317,487,-187,1,1,3,20,240,0,53298,1
2,26722,30280,31337,94970,25420,-4571,-1477,-304,-3,-18,26,320,490,-180,1,1,3,20,280,0,53298,1
2,26723,30290,31335,94971,25434,-4573,-1478,-282,-12,-23,32,316,486,-184,1,1,3,20,320,0,53298,1
2,26718,30292,31337,94972,25448,-4574,-1482,-308,-5,-21,24,314,488,-184,1,1,3,20,360,0,53298,1
2,26718,30299,31337,94973,25462,-4578,-1498,-291,-3,-14,24,313,487,-179,1,1,3,20,400,0,53298,1
2,26718,30290,31339,94974,25476,-4577,-1493,-297,-6,-10,29,319,489,-187,1,1,3,20,440,0,53298,1
2,26718,30288,31342,94975,25489,-4588,-1497,-299,-8,-11,32,319,499,-181,1,1,3,20,480,0,53298,1
2,26723,30283,31338,94976,25503,-4587,-1496,-288,-7,-8,24,317,487,-189,1,1,3,20,520,0,53298,1
2,26721,30284,31336,94977,25517,-4576,-1486,-289,-6,-20,27,312,492,-176,1,1,3,20,560,0,53298,1
2,26725,30280,31337,94978,25531,-4580,-1488,-296,-5,-13,26,317,479,-181,1,1,3,20,600,0,53298,1
2,26723,30282,31337,94979,25545,-4583,-1496,-289,-13,-11,19,319,493,-193,1,1,3,20,640,0,53298,1
2,26724,30283,31339,94980,25559,-4582,-1494,-287,-10,-22,26,319,493,-181,1,1,3,20,680,0,53298,1
2,26716,30284,31334,94981,25573,-4574,-1500,-294,-4,-21,21,324,486,-186,1,1,3,20,720,0,53298,1
2,26720,30282,31339,94982,25587,-4575,-1493,-295,-3,-18,25,319,483,-181,1,1,3,20,760,0,53298,1
2,26717,30286,31338,94983,25601,-4585,-1485,-287,-5,-13,30,323,483,-177,1,1,3,20,800,0,53298,1
2,26720,30284,31343,94984,25616,-4584,-1486,-302,-7,-10,30,309,495,-179,1,1,3,20,840,0,53298,1
2,26718,30279,31337,94985,25631,-4568,-1480,-298,-5,-18,23,316,488,-180,1,1,3,20,880,0,53298,1
2,26722,30282,31335,94986,25646,-4579,-1493,-289,-2,-9,23,322,492,-186,1,1,3,20,920,0,53298,1
2,26721,30279,31336,94987,25661,-4578,-1485,-288,-9,-6,24,316,500,-184,1,1,3,20,960,0,53298,1
1,26715,30275,31336,94988,0,-4576,-1483,-302,-8,-9,19,314,488,-188,1,1,3,21,0,0,53298,1
2,26722,30281,31339,94989,24901,-4585,-1492,-298,-7,-13,22,319,487,-179,1,1,3,21,40,0,53298,1
2,26724,30278,31335,94990,24915,-4576,-1489,-288,-14,-11,24,317,479,-181,1,1,3,21,80,0,53298,1
2,26720,30271,31336,94991,24930,-4585,-1496,-289,6,-24,35,324,488,-184,1,1,3,21,120,0,53298,1
2,26719,30278,31336,94992,24944,-4584,-1491,-290,0,-19,31,320,490,-184,1,1,3,21,160,0,53298,1
2,26723,30267,31336,94993,24958,-4579,-1494,-286,-12,-14,25,321,485,-193,1,1,3,21,200,0,53298,1
2,26717,30267,31335,94994,24973,-4585,-1500,-293,-2,-24,32,314,486,-178,1,1,3,21,240,0,53298,1
2,26724,30249,31336,94995,24988,-4582,-1487,-304,-7,-26,27,319,485,-183,1,1,3,21,280,0,53298,1
2,26722,30252,31336,94996,25003,-4593,-1494,-297,-9,-13,19,321,491,-189,1,1,3,21,320,0,53298,1
2,26724,30256,31341,94997,25018,-4583,-1495,-286,-9,-9,19,317,495,-179,1,1,3,21,360,0,53298,1
2,26715,30256,31338,94998,25033,-4572,-1489,-287,-2,-14,19,317,487,-179,1,1,3,21,400,0,53298,1
2,26718,30253,31334,94999,25048,-4575,-1494,-296,-11,-6,32,318,492,-186,1,1,3,21,440,0,53298,1
2,26718,30246,31338,95000,25063,-4572,-1491,-295,-6,-16,37,315,489,-185,1,1,3,21,480,0,53298,1
2,26718,30246,31335,95001,25078,-4581,-1493,-297,-6,-17,33,315,489,-187,1,1,3,21,520,0,53298,1
2,26723,30252,31338,95002,25093,-4582,-1489,-287,-9,-13,26,314,490,-174,1,1,3,21,560,0,53298,1
2,26719,30251,31338,95003,25108,-4580,-1499,-296,-5,-4,20,322,496,-182,1,1,3,21,600,0,53298,1
2,26720,30257,31339,95004,25123,-4580,-1496,-289,-15,-9,13,316,486,-184,1,1,3,21,640,0,53298,1
2,26717,30262,31337,95005,25138,-4578,-1483,-285,-5,-6,25,314,488,-190,1,1,3,21,680,0,53298,1
2,26711,30275,31336,95006,25153,-4582,-1490,-284,-11,-4,19,318,482,-184,1,1,3,21,720,0,53298,1
2,26713,30263,31341,95007,25168,-4582,-1496,-276,-17,8,21,318,486,-192,1,1,3,21,760,0,53298,1
2,26712,30266,31338,95008,25183,-4569,-1492,-294,-3,-7,29,310,482,-186,1,1,3,21,800,0,53298,1
2,26714,30269,31338,95009,25198,-4583,-1501,-291,-2,-13,24,316,488,-180,1,1,3,21,840,0,53298,1
2,26718,30270,31340,95010,25212,-4579,-1490,-292,-10,-23,31,318,498,-190,1,1,3,21,880,0,53298,1
2,26721,30272,31339,95011,25227,-4576,-1491,-279,-9,-17,35,320,492,-182,1,1,3,21,920,0,53298,1
2,26720,30274,31340,95012,25240,-4572,-1488,-304,-19,-17,26,313,489,-183,1,1,3,21,960,0,53298,1
1,26718,30273,31337,95013,0,-4580,-1499,-295,-6,-9,18,315,489,-183,1,1,3,22,0,0,53298,1
2,26722,30277,31340,95014,24463,-4576,-1498,-304,-7,-2,16,315,491,-191,1,1,3,22,40,0,53298,1
2,26716,30268,31335,95015,24477,-4568,-1492,-293,-8,-5,29,325,487,-179,1,1,3,22,80,0,53298,1
2,26722,30270,31339,95016,24492,-4578,-1492,-295,-6,-14,31,309,491,-177,1,1,3,22,120,0,53298,1
2,26718,30269,31339,95017,24507,-4580,-1485,-285,-4,-15,26,311,493,-191,1,1,3,22,160,0,53298,1
2,26714,30253,31338,95018,24523,-4578,-1488,-283,-14,-16,28,321,475,-189,1,1,3,22,200,0,53298,1
2,26711,30247,31338,95019,24538,-4587,-1501,-293,-15,-21,28,326,488,-190,1,1,3,22,240,0,53298,1
2,26709,30238,31338,95020,24553,-4576,-1487,-303,-3,-20,32,313,479,-183,1,1,3,22,280,0,53298,1
2,26711,30251,31339,95021,24568,-4572,-1491,-298,-11,-14,31,308,490,-182,1,1,3,22,320,0,53298,1
2,26715,30246,31337,95022,24582,-4579,-1483,-290,-7,-7,32,316,486,-186,1,1,3,22,360,0,53298,1
2,26703,30253,31335,95023,24597,-4578,-1500,-294,-3,0,14,320,496,-188,1,1,3,22,400,0,53298,1
2,26710,30245,31334,95024,24612,-4580,-1499,-294,-13,7,27,314,500,-184,1,1,3,22,440,0,53298,1
2,26711,30238,31338,95025,24628,-4585,-1502,-276,2,-7,33,312,492,-186,1,1,3,22,480,0,53298,1
2,26717,30234,31342,95026,24642,-4583,-1480,-286,-9,-17,24,317,477,-183,1,1,3,22,520,0,53298,1
2,26713,30251,31339,95027,24657,-4575,-1495,-276,-5,-34,37,322,484,-184,1,1,3,22,560,0,53298,1
2,26717,30268,31339,95028,24670,-4579,-1485,-299,-2,-34,37,313,491,-185,1,1,3,22,600,0,53298,1
2,26714,30257,31343,95029,24685,-4586,-1485,-283,-5,-31,35,320,482,-176,1,1,3,22,640,0,53298,1
2,26713,30264,31336,95030,24699,-4586,-1501,-294,-11,-30,28,319,487,-177,1,1,3,22,680,0,53298,1
2,26702,30269,31342,95031,24714,-4586,-1498,-295,1,-38,40,323,491,-185,1,1,3,22,720,0,53298,1
2,26695,30269,31340,95032,24729,-4586,-1497,-286,-4,-40,44,312,490,-172,1,1,3,22,760,0,53298,1
2,26702,30264,31342,95033,24743,-4574,-1495,-295,-4,-69,53,321,487,-181,1,1,3,22,800,0,53298,1
2,26700,30268,31342,95034,24758,-4590,-1499,-290,-1,-109,57,319,483,-185,1,1,3,22,840,0,53298,1
2,26702,30268,31339,95035,24772,-4581,-1491,-285,14,-132,48,310,494,-174,1,1,3,22,880,0,53298,1
2,26707,30261,31338,95036,24785,-4584,-1497,-279,-1,-104,29,316,490,-172,1,1,3,22,920,0,53298,1
2,26709,30265,31337,95037,24799,-4598,-1493,-268,0,-56,21,322,494,-180,1,1,3,22,960,0,53298,1
1,26710,30265,31339,95038,0,-4578,-1493,-279,-7,17,14,308,494,-186,1,1,3,23,0,0,53298,1
2,26712,30260,31337,95039,24025,-4582,-1481,-275,-27,96,-1,314,486,-182,1,1,3,23,40,0,53298,1
2,26708,30257,31337,95040,24040,-4578,-1492,-301,-32,161,-27,322,490,-180,1,1,3,23,80,0,53298,1
2,26696,30276,31338,95041,24054,-4572,-1487,-277,-58,214,-54,324,486,-182,1,1,3,23,120,0,53298,1
2,26693,30274,31339,95042,24068,-4579,-1496,-309,-53,243,-86,318,482,-184,1,1,3,23,160,0,53298,1
2,26690,30272,31340,95043,24083,-4583,-1504,-307,-14,219,-92,318,486,-182,1,1,3,23,200,0,53298,1
2,26699,30274,31339,95044,24097,-4575,-1498,-335,-30,128,-47,318,482,-174,1,1,3,23,240,0,53298,1
2,26695,30274,31341,95045,24111,-4577,-1510,-317,-4,-25,0,324,486,-182,1,1,3,23,280,0,53298,1
2,26696,30272,31338,95046,24124,-4576,-1518,-300,1,-159,43,319,493,-183,1,1,3,23,320,0,53298,1
2,26695,30265,31336,95047,24138,-4586,-1513,-310,9,-252,114,317,489,-183,1,1,3,23,360,0,53298,1
2,26708,30268,31338,95048,24152,-4561,-1491,-277,58,-297,158,314,486,-186,1,1,3,23,400,0,53298,1
2,26709,30270,31339,95049,24164,-4574,-1502,-282,76,-271,188,315,491,-187,1,1,3,23,440,0,53298,1
2,26699,30259,31340,95050,24178,-4577,-1473,-274,87,-175,163,321,479,-185,1,1,3,23,480,0,53298,1
2,26699,30265,31335,95051,24192,-4579,-1493,-263,30,-52,102,314,490,-186,1,1,3,23,520,0,53298,1
2,26702,30260,31335,95052,24205,-4584,-1483,-286,-1,100,45,319,487,-179,1,1,3,23,560,0,53298,1
2,26693,30269,31338,95053,24219,-4574,-1485,-270,-25,231,-14,316,486,-188,1,1,3,23,600,0,53298,1
2,26693,30262,31333,95054,24233,-4573,-1478,-285,-75,354,-68,320,486,-172,1,1,3,23,640,0,53298,1
2,26692,30264,31339,95055,24247,-4583,-1509,-311,-81,441,-91,317,495,-187,1,1,3,23,680,0,53298,1
2,26692,30262,31336,95056,24261,-4581,-1517,-335,-4,442,-103,322,490,-184,1,1,3,23,720,0,53298,1
2,26700,30261,31338,95057,24274,-4574,-1499,-356,57,365,-113,317,489,-183,1,1,3,23,760,0,53298,1
2,26695,30244,31335,95058,24287,-4571,-1512,-354,60,244,-71,316,490,-180,1,1,3,23,800,0,53298,1
2,26692,30219,31337,95059,24301,-4572,-1504,-345,49,133,-6,321,491,-183,1,1,3,23,840,0,53298,1
2,26692,30207,31333,95060,24314,-4584,-1514,-338,53,12,56,322,490,-184,1,1,3,23,880,0,53298,1
2,26690,30193,31334,95061,24327,-4577,-1494,-318,40,-86,111,316,490,-188,1,1,3,23,920,0,53298,1
2,26692,30190,31333,95062,24341,-4559,-1487,-313,47,-108,103,320,496,-186,1,1,3,23,960,0,53298,1
1,26685,30203,31335,95063,0,-4571,-1503,-337,23,-93,93,320,482,-184,1,1,3,24,0,1,53298,1
2,26684,30207,31333,95064,23588,-4584,-1501,-325,1,-60,53,308,494,-178,1,1,3,24,40,1,53298,1
2,26681,30223,31333,95065,23603,-4574,-1486,-305,-19,-9,24,323,493,-181,1,1,3,24,80,1,53298,1
2,26688,30203,31330,95066,23617,-4575,-1491,-319,-16,65,5,325,489,-181,1,1,3,24,120,1,53298,1
2,26684,30215,31333,95067,23632,-4576,-1490,-322,-16,132,-5,310,480,-188,1,1,3,24,160,1,53298,1
2,26690,30180,31331,95068,23647,-4582,-1498,-339,-21,150,-5,321,491,-185,1,1,3,24,200,1,53298,1
2,26687,30191,31335,95069,23661,-4583,-1513,-339,-8,134,-11,313,487,-185,1,1,3,24,240,1,53298,1
2,26687,30164,31335,95070,23676,-4578,-1508,-339,-3,62,-17,317,485,-175,1,1,3,24,280,1,53298,1
2,26685,30198,31335,95071,23691,-4567,-1495,-342,-25,8,-30,317,489,-187,1,1,3,24,320,1,53298,1
2,26685,30173,31336,95072,23705,-4565,-1511,-337,-49,-51,-24,316,492,-184,1,1,3,24,360,1,53298,1
2,26684,30167,31336,95073,23719,-4587,-1514,-352,-40,-142,11,315,487,-183,1,1,3,24,400,1,53298,1
2,26686,30169,31335,95074,23734,-4579,-1503,-340,2,-259,56,321,489,-181,1,1,3,24,440,1,53298,1
2,26690,30151,31335,95075,23748,-4583,-1519,-336,19,-339,94,314,488,-176,1,1,3,24,480,1,53298,1
2,26692,30151,31335,95076,23763,-4568,-1514,-320,45,-407,143,323,489,-189,1,1,3,24,520,1,53298,1
2,26690,30154,31335,95077,23777,-4574,-1489,-305,71,-413,161,319,489,-187,1,1,3,24,560,1,53298,1
2,26692,30162,31330,95078,23791,-4585,-1492,-282,58,-368,158,317,487,-185,1,1,3,24,600,1,53298,1
2,26692,30169,31331,95079,23806,-4578,-1482,-287,39,-291,125,314,490,-176,1,1,3,24,640,1,53298,1
2,26701,30177,31332,95080,23820,-4570,-1481,-297,14,-213,83,321,491,-183,1,1,3,24,680,1,53298,1
2,26693,30180,31331,95081,23835,-4581,-1484,-272,5,-146,55,325,483,-179,1,1,3,24,720,1,53298,1
2,26695,30183,31330,95082,23849,-4579,-1476,-272,-21,-70,10,318,482,-180,1,1,3,24,760,1,53298,1
2,26695,30164,31334,95083,23864,-4583,-1491,-275,-46,24,-44,321,487,-183,1,1,3,24,800,1,53298,1
2,26690,30160,31335,95084,23878,-4567,-1488,-281,-72,106,-79,318,490,-176,1,1,3,24,840,1,53298,1
2,26694,30172,31331,95085,23893,-4587,-1499,-283,-84,162,-104,321,485,-183,1,1,3,24,880,1,53298,1
2,26700,30185,31332,95086,23907,-4575,-1492,-288,-70,168,-70,319,483,-183,1,1,3,24,920,1,53298,1
2,26705,30187,31333,95087,23922,-4586,-1510,-319,-39,121,-32,321,489,-181,1,1,3,24,960,1,53298,1
1,26700,30185,31330,95088,0,-4576,-1504,-316,-11,41,8,320,492,-186,1,1,3,25,0,0,53298,1
2,26703,30183,31335,95089,23152,-4589,-1498,-322,-1,-35,42,318,486,-186,1,1,3,25,40,0,53298,1
2,26705,30175,31332,95090,23167,-4566,-1498,-285,15,-61,47,320,486,-178,1,1,3,25,80,0,53298,1
2,26704,30174,31333,95091,23182,-4578,-1498,-303,20,-32,45,320,490,-180,1,1,3,25,120,0,53298,1
2,26697,30172,31334,95092,23197,-4570,-1492,-303,9,26,48,319,493,-181,1,1,3,25,160,0,53298,1
2,26698,30184,31335,95093,23211,-4574,-1496,-304,-13,89,27,321,489,-185,1,1,3,25,200,0,53298,1
2,26699,30184,31336,95094,23225,-4582,-1503,-306,-29,80,-1,326,492,-176,1,1,3,25,240,0,53298,1
2,26704,30187,31337,95095,23239,-4581,-1504,-310,-36,65,-30,333,491,-179,1,1,3,25,280,0,53298,1
2,26700,30175,31336,95096,23254,-4593,-1516,-312,-41,40,-42,318,482,-180,1,1,3,25,320,0,53298,1
2,26704,30176,31336,95097,23268,-4575,-1498,-304,-32,32,-39,323,487,-187,1,1,3,25,360,0,53298,1
2,26699,30175,31335,95098,23282,-4569,-1512,-307,-16,39,5,317,489,-187,1,1,3,25,400,0,53298,1
2,26699,30182,31335,95099,23296,-4568,-1501,-303,2,23,40,319,499,-183,1,1,3,25,440,0,53298,1
2,26711,30188,31336,95100,23311,-4592,-1514,-296,4,9,61,322,490,-190,1,1,3,25,480,0,53298,1
2,26712,30193,31335,95101,23325,-4591,-1509,-302,5,-6,61,319,495,-183,1,1,3,25,520,0,53298,1
2,26708,30192,31335,95102,23340,-4563,-1491,-305,-2,-22,40,316,490,-178,1,1,3,25,560,0,53298,1
2,26715,30187,31335,95103,23354,-4584,-1506,-316,1,-33,27,317,491,-183,1,1,3,25,600,0,53298,1
2,26708,30177,31332,95104,23369,-4576,-1505,-305,-1,-39,21,313,493,-175,1,1,3,25,640,0,53298,1
2,26713,30190,31331,95105,23384,-4570,-1493,-302,-5,-30,14,313,487,-183,1,1,3,25,680,0,53298,1
