sensorStatus,cap1,cap2,cap3,counter,microseconds_since_last_tick,accX,accY,accZ,gyroX,gyroY,gyroZ,magnetX,magnetY,magnetZ,day,hour,min,sec,msec,sync,battery_fuel,crc_good
1,28769,30620,31699,54689,14673,-4085,-81,-1750,-146,-205,115,149,453,-257,1,0,36,29,40,0,53298,1
2,28764,30620,31702,54690,14676,-4075,-68,-1760,-106,-92,112,153,445,-255,1,0,36,29,80,0,53298,1
2,28772,30620,31699,54691,14679,-4096,-68,-1757,45,32,22,151,443,-253,1,0,36,29,120,0,53298,1
2,28773,30622,31707,54692,14681,-4078,-77,-1764,94,113,-91,143,449,-257,1,0,36,29,160,0,53298,1
2,28782,30622,31702,54693,14685,-4066,-75,-1789,110,147,-131,154,450,-258,1,0,36,29,200,0,53298,1
2,28771,30622,31703,54694,14687,-4074,-76,-1803,72,113,-93,153,441,-253,1,0,36,29,240,0,53298,1
2,28787,30622,31700,54695,14690,-4081,-97,-1812,-17,-8,-11,152,450,-256,1,0,36,29,280,0,53298,1
2,28778,30622,31703,54696,14692,-4072,-82,-1792,-44,-132,77,155,447,-253,1,0,36,29,320,0,53298,1
2,28790,30623,31699,54697,14694,-4090,-74,-1763,-81,-154,131,148,452,-260,1,0,36,29,360,0,53298,1
2,28774,30622,31699,54698,14697,-4089,-51,-1756,-113,-105,119,154,446,-248,1,0,36,29,400,0,53298,1
2,28780,30621,31703,54699,14698,-4071,-77,-1768,-115,-16,71,149,455,-257,1,0,36,29,440,0,53298,1
2,28766,30622,31699,54700,14700,-4074,-69,-1788,-25,60,2,141,443,-247,1,0,36,29,480,0,53298,1
2,28770,30622,31706,54701,14702,-4090,-76,-1787,123,120,-74,151,441,-253,1,0,36,29,520,0,53298,1
2,28765,30623,31703,54702,14705,-4070,-59,-1784,231,115,-152,153,453,-247,1,0,36,29,560,0,53298,1
2,28762,30622,31705,54703,14707,-4071,-101,-1783,168,81,-186,151,449,-245,1,0,36,29,600,0,53298,1
2,28753,30622,31705,54704,14709,-4092,-122,-1791,-35,-42,-43,155,457,-255,1,0,36,29,640,0,53298,1
2,28758,30622,31704,54705,14712,-4088,-101,-1778,-263,-149,203,151,449,-251,1,0,36,29,680,0,53298,1
2,28778,30623,31700,54706,14714,-4072,-54,-1775,-99,-199,234,150,450,-248,1,0,36,29,720,0,53298,1
2,28768,30621,31708,54707,14717,-4083,-59,-1751,-8,-146,89,143,449,-257,1,0,36,29,760,0,53298,1
2,28763,30623,31703,54708,14720,-4088,-88,-1762,60,35,-52,154,452,-258,1,0,36,29,800,0,53298,1
2,28787,30623,31706,54709,14722,-4086,-75,-1755,157,240,-87,150,456,-258,1,0,36,29,840,0,53298,1
2,28766,30622,31704,54710,14726,-4070,-74,-1821,125,283,-78,148,452,-260,1,0,36,29,880,0,53298,1
2,28766,30622,31703,54711,14729,-4045,-70,-1818,143,101,-70,150,452,-254,1,0,36,29,920,0,53298,1
2,28760,30622,31703,54712,14731,-4065,-90,-1789,21,-96,-46,153,447,-257,1,0,36,29,960,0,53298,1
1,28775,30624,31705,54713,0,-4089,-84,-1789,-131,-179,18,151,443,-253,1,0,36,30,0,1,53298,1
2,28785,30623,31704,54714,14162,-4084,-77,-1782,-122,-167,51,143,447,-257,1,0,36,30,40,1,53298,1
2,28775,30623,31703,54715,14164,-4081,-87,-1770,-110,-99,52,147,451,-257,1,0,36,30,80,1,53298,1
2,28780,30623,31705,54716,14166,-4086,-91,-1753,-130,-15,91,155,451,-241,1,0,36,30,120,1,53298,1
2,28784,30624,31707,54717,14168,-4074,-90,-1747,-108,145,183,154,452,-250,1,0,36,30,160,1,53298,1
2,28774,30623,31703,54718,14170,-4082,-74,-1754,-49,396,271,154,452,-250,1,0,36,30,200,1,53298,1
2,28781,30624,31701,54719,14173,-4073,-42,-1813,27,549,179,148,454,-258,1,0,36,30,240,1,53298,1
2,28787,30624,31703,54720,14174,-4052,-35,-1853,242,506,-42,150,448,-256,1,0,36,30,280,1,53298,1
2,28783,30624,31705,54721,14175,-4062,-64,-1868,336,339,-263,151,451,-261,1,0,36,30,320,1,53298,1
2,28772,30623,31703,54722,14177,-4053,-120,-1846,255,102,-314,152,448,-262,1,0,36,30,360,1,53298,1
2,28781,30623,31704,54723,14178,-4052,-101,-1852,-20,-193,-183,143,455,-255,1,0,36,30,400,1,53298,1
2,28770,30623,31699,54724,14179,-4061,-130,-1836,-253,-483,109,150,448,-254,1,0,36,30,440,1,53298,1
2,28790,30623,31703,54725,14181,-4079,-79,-1825,-416,-695,386,146,444,-258,1,0,36,30,480,1,53298,1
2,28801,30623,31704,54726,14184,-4073,-21,-1766,-464,-865,479,157,455,-253,1,0,36,30,520,1,53298,1
2,28790,30624,31704,54727,14185,-4072,-29,-1706,-270,-853,473,159,449,-251,1,0,36,30,560,1,53298,1
2,28786,30624,31698,54728,14186,-4113,-37,-1704,-112,-603,384,153,451,-247,1,0,36,30,600,1,53298,1
2,28794,30623,31704,54729,14188,-4080,-41,-1694,-37,-261,291,148,442,-250,1,0,36,30,640,1,53298,1
2,28780,30624,31696,54730,14191,-4059,-14,-1737,2,113,256,154,442,-254,1,0,36,30,680,1,53298,1
2,28786,30625,31702,54731,14192,-4101,-40,-1780,177,408,42,150,450,-254,1,0,36,30,720,1,53298,1
2,28770,30624,31702,54732,14194,-4096,5,-1729,537,535,-258,146,456,-264,1,0,36,30,760,1,53298,1
2,28756,30623,31700,54733,14196,-4082,-43,-1777,668,557,-424,153,449,-251,1,0,36,30,800,1,53298,1
2,28781,30625,31701,54734,14199,-4116,-90,-1782,607,417,-361,151,445,-257,1,0,36,30,840,1,53298,1
2,28778,30625,31698,54735,14200,-4051,-111,-1863,266,187,-160,153,455,-255,1,0,36,30,880,1,53298,1
2,28796,30625,31701,54736,14203,-3996,-98,-1847,113,-64,33,148,454,-242,1,0,36,30,920,1,53298,1
2,28798,30625,31698,54737,14205,-4120,-63,-1774,-3,-306,267,139,451,-251,1,0,36,30,960,1,53298,1
1,28805,30625,31696,54738,0,-4101,-81,-1809,-340,-489,321,145,457,-253,1,0,36,31,0,0,53298,1
2,28793,30625,31699,54739,13649,-4061,-56,-1750,-387,-491,205,153,449,-249,1,0,36,31,40,0,53298,1
2,28804,30625,31699,54740,13651,-4058,-13,-1721,-101,-277,96,150,450,-254,1,0,36,31,80,0,53298,1
2,28807,30625,31699,54741,13653,-4112,-66,-1725,151,-66,88,144,452,-256,1,0,36,31,120,0,53298,1
2,28792,30624,31700,54742,13655,-4064,-32,-1781,-69,32,57,157,445,-253,1,0,36,31,160,0,53298,1
2,28792,30625,31699,54743,13656,-4046,-49,-1809,-72,-55,55,150,450,-258,1,0,36,31,200,0,53298,1
2,28795,30625,31704,54744,13658,-4091,-53,-1761,-77,-78,8,146,448,-254,1,0,36,31,240,0,53298,1
2,28822,30625,31702,54745,13660,-4091,-53,-1734,90,38,-49,147,455,-245,1,0,36,31,280,0,53298,1
2,28816,30625,31700,54746,13662,-4101,-47,-1765,149,199,-128,151,451,-249,1,0,36,31,320,0,53298,1
2,28818,30624,31703,54747,13664,-4071,-41,-1763,19,309,-240,150,444,-248,1,0,36,31,360,0,53298,1
2,28811,30625,31700,54748,13666,-4099,-52,-1800,-64,325,-369,148,450,-250,1,0,36,31,400,0,53298,1
2,28803,30624,31701,54749,13669,-4056,-100,-1771,-65,216,-306,152,452,-256,1,0,36,31,440,0,53298,1
2,28814,30625,31701,54750,13671,-4054,-107,-1778,-170,169,-4,144,450,-254,1,0,36,31,480,0,53298,1
2,28808,30624,31705,54751,13673,-4061,-56,-1802,-239,128,190,146,456,-252,1,0,36,31,520,0,53298,1
2,28817,30624,31706,54752,13675,-4084,-42,-1781,-140,55,200,154,444,-248,1,0,36,31,560,0,53298,1
2,28795,30625,31699,54753,13677,-4075,-34,-1776,-15,25,14,150,450,-258,1,0,36,31,600,0,53298,1
2,28795,30624,31705,54754,13680,-4077,-85,-1791,45,58,-134,150,452,-252,1,0,36,31,640,0,53298,1
2,28812,30625,31707,54755,13683,-4082,-78,-1775,97,127,-98,145,449,-259,1,0,36,31,680,0,53298,1
2,28798,30627,31703,54756,13684,-4049,-109,-1817,39,152,21,155,453,-263,1,0,36,31,720,0,53298,1
2,28796,30625,31705,54757,13687,-4063,-62,-1822,52,139,146,152,452,-260,1,0,36,31,760,0,53298,1
2,28812,30625,31704,54758,13689,-4056,-29,-1833,-12,-10,145,145,451,-255,1,0,36,31,800,0,53298,1
2,28810,30625,31702,54759,13691,-4051,-28,-1808,-86,-228,14,154,454,-240,1,0,36,31,840,0,53298,1
2,28811,30625,31709,54760,13693,-4083,-76,-1777,-159,-307,-77,143,455,-245,1,0,36,31,880,0,53298,1
2,28824,30625,31707,54761,13695,-4090,-88,-1759,-158,-237,-63,147,447,-257,1,0,36,31,920,0,53298,1
2,28810,30624,31701,54762,13698,-4074,-56,-1766,30,-62,22,156,446,-260,1,0,36,31,960,0,53298,1
1,28822,30623,31712,54763,0,-4042,-120,-2035,364,-110,123,146,440,-256,1,0,36,32,0,0,53298,1
2,28829,30625,31709,54764,13137,-4076,-121,-1752,-81,-191,66,148,442,-252,1,0,36,32,40,0,53298,1
2,28798,30624,31721,54765,13139,-4111,72,-1654,-816,-349,-60,150,456,-250,1,0,36,32,80,0,53298,1
2,28843,30647,31753,54766,13141,-4948,-956,-1670,-3190,-919,80,147,453,-253,1,0,36,32,120,0,53298,1
2,28940,30666,31811,54767,13144,-4298,298,-1359,-339,-1470,410,144,450,-246,1,0,36,32,160,0,53298,1
2,28722,30507,31803,54768,13148,-4269,-395,-1665,-2943,-1944,520,141,451,-229,1,0,36,32,200,0,53298,1
2,27966,30683,31928,54769,13154,-3618,562,-1876,-5557,-2381,-201,148,450,-236,1,0,36,32,240,0,53298,1
2,28965,30755,31953,54770,13162,-3608,506,-1667,-5311,-2267,190,145,449,-229,1,0,36,32,280,0,53298,1
2,31182,30853,31993,54771,13172,-4026,362,-1335,-3839,-1974,805,139,449,-223,1,0,36,32,320,0,53298,1
2,29686,30502,32283,54772,13183,-4240,207,-1426,-2106,-1804,526,141,453,-221,1,0,36,32,360,0,53298,1
2,29105,30887,32190,54773,13194,-4073,124,-1397,-2068,-1743,362,146,458,-214,1,0,36,32,400,0,53298,1
2,31120,30822,31991,54774,13206,-4067,246,-1298,-3498,-1893,341,147,447,-211,1,0,36,32,440,0,53298,1
2,31778,30971,32328,54775,13220,-4353,268,-1283,-3498,-1815,87,140,456,-214,1,0,36,32,480,0,53298,1
2,31739,30876,32072,54776,13235,-4408,309,-1314,-3351,-1725,-120,134,462,-208,1,0,36,32,520,0,53298,1
2,31709,30854,31982,54777,13250,-4216,410,-1294,-1817,-1312,250,148,450,-212,1,0,36,32,560,0,53298,1
2,31726,30860,32019,54778,13266,-3986,201,-966,-736,-762,416,146,446,-210,1,0,36,32,600,0,53298,1
2,31624,30857,31994,54779,13282,-3900,315,-1057,3,-701,163,140,452,-202,1,0,36,32,640,0,53298,1
2,31318,30816,31908,54780,13297,-3935,699,-1206,771,-449,-159,143,449,-215,1,0,36,32,680,0,53298,1
2,31545,30803,31877,54781,13311,-4346,391,-1193,1049,12,-57,146,450,-210,1,0,36,32,720,0,53298,1
2,31545,30812,31910,54782,13325,-4510,159,-1209,563,122,-78,149,451,-213,1,0,36,32,760,0,53298,1
2,31566,30800,31908,54783,13337,-4223,376,-1208,84,187,-358,148,448,-214,1,0,36,32,800,0,53298,1
2,31565,30798,31902,54784,13349,-4125,230,-1084,263,267,-235,150,458,-216,1,0,36,32,840,0,53298,1
2,31548,30809,31894,54785,13360,-4294,212,-1221,293,183,-73,143,457,-207,1,0,36,32,880,0,53298,1
2,31538,30806,31875,54786,13371,-4321,255,-1196,74,132,57,153,447,-207,1,0,36,32,920,0,53298,1
2,31444,30784,31818,54787,13382,-4245,272,-1159,24,62,108,153,451,-205,1,0,36,32,960,0,53298,1
1,31420,30765,31800,54788,0,-4202,302,-1179,136,-11,52,148,452,-204,1,0,36,33,0,0,53298,1
2,31410,30759,31773,54789,12629,-4225,241,-1165,148,-20,10,154,452,-210,1,0,36,33,40,0,53298,1
2,31409,30752,31734,54790,12640,-4220,312,-1260,326,-12,-57,145,449,-217,1,0,36,33,80,0,53298,1
2,31424,30752,31769,54791,12650,-4212,289,-1188,510,118,-109,140,452,-204,1,0,36,33,120,0,53298,1
2,31532,30742,31715,54792,12659,-4301,324,-1322,289,279,-169,152,456,-204,1,0,36,33,160,0,53298,1
2,31397,30747,31747,54793,12666,-4155,184,-1167,285,569,-282,150,446,-208,1,0,36,33,200,0,53298,1
2,31533,30779,31831,54794,12672,-4159,208,-1163,615,594,-120,148,454,-208,1,0,36,33,240,0,53298,1
2,31495,30762,31855,54795,12677,-4053,852,-1626,1428,886,-377,151,449,-221,1,0,36,33,280,0,53298,1
2,31579,30819,31984,54796,12680,-3795,896,-1579,1555,1632,-803,159,451,-215,1,0,36,33,320,0,53298,1
2,31118,30735,31772,54797,12682,-3912,-249,-1156,209,1704,-30,147,453,-217,1,0,36,33,360,0,53298,1
2,31127,30734,31790,54798,12684,-4601,53,-1276,-323,1588,256,161,451,-221,1,0,36,33,400,0,53298,1
2,31148,30739,31796,54799,12685,-4084,469,-1218,611,967,-701,154,444,-222,1,0,36,33,440,0,53298,1
2,31199,30740,31803,54800,12687,-4331,-199,-1340,88,794,319,150,442,-236,1,0,36,33,480,0,53298,1
2,31171,30734,31800,54801,12688,-4205,-76,-1459,-51,742,166,160,444,-238,1,0,36,33,520,0,53298,1
2,31247,30727,31785,54802,12689,-4327,76,-1455,429,629,16,157,443,-231,1,0,36,33,560,0,53298,1
2,31313,30738,31796,54803,12690,-4273,54,-1385,1435,312,-50,147,445,-233,1,0,36,33,600,0,53298,1
2,31293,30739,31794,54804,12690,-4271,-13,-1448,1089,517,214,156,444,-232,1,0,36,33,640,0,53298,1
2,31323,30743,31804,54805,12690,-4219,185,-1431,1283,420,104,148,444,-238,1,0,36,33,680,0,53298,1
2,31336,30745,31791,54806,12690,-4189,67,-1514,829,282,314,154,448,-240,1,0,36,33,720,0,53298,1
2,31333,30744,31804,54807,12690,-4175,171,-1475,637,152,162,157,441,-239,1,0,36,33,760,0,53298,1
2,31326,30742,31804,54808,12691,-4192,100,-1443,-202,104,143,150,452,-236,1,0,36,33,800,0,53298,1
2,31221,30738,31797,54809,12691,-4146,148,-1490,-217,-44,104,150,448,-232,1,0,36,33,840,0,53298,1
2,31308,30747,31826,54810,12691,-4152,176,-1491,-66,-58,86,156,452,-232,1,0,36,33,880,0,53298,1
2,31309,30746,31814,54811,12691,-4172,155,-1475,79,-21,55,155,449,-243,1,0,36,33,920,0,53298,1
2,31270,30743,31804,54812,12690,-4175,150,-1445,55,-28,27,152,450,-232,1,0,36,33,960,0,53298,1
1,31263,30740,31806,54813,0,-4148,157,-1479,-144,-46,21,149,449,-231,1,0,36,34,0,1,53298,1
2,31289,30743,31806,54814,12112,-4183,175,-1479,-153,-76,-53,161,449,-237,1,0,36,34,40,1,53298,1
2,31295,30718,31808,54815,12113,-4174,140,-1472,-106,-124,-66,152,448,-238,1,0,36,34,80,1,53298,1
2,31313,30708,31807,54816,12112,-4156,-138,-1251,-212,-357,200,157,445,-227,1,0,36,34,120,1,53298,1
2,31283,30322,31811,54817,12113,-4785,-289,-1593,-360,-453,525,157,443,-235,1,0,36,34,160,1,53298,1
2,31321,31973,31813,54818,12113,-4501,106,-1352,131,-406,-445,152,452,-228,1,0,36,34,200,1,53298,1
2,31360,30756,31865,54819,12113,-3863,462,-1497,543,-851,-91,157,441,-235,1,0,36,34,240,1,53298,1
2,31372,30761,31870,54820,12115,-3667,551,-1520,-620,-631,-97,150,454,-236,1,0,36,34,280,1,53298,1
2,31369,30764,31878,54821,12118,-3989,493,-1557,-235,-560,77,144,448,-228,1,0,36,34,320,1,53298,1
2,31367,30764,31873,54822,12120,-4369,7,-1255,-310,-396,323,156,444,-220,1,0,36,34,360,1,53298,1
2,31310,30727,31864,54823,12124,-4519,-19,-1339,-475,-503,2,149,441,-229,1,0,36,34,400,1,53298,1
2,31423,30772,31863,54824,12128,-4119,126,-1398,-362,-746,-173,148,446,-222,1,0,36,34,440,1,53298,1
2,31492,30813,32037,54825,12133,-4061,321,-1436,-297,-898,-44,149,451,-221,1,0,36,34,480,1,53298,1
2,31309,30770,31892,54826,12139,-4078,377,-1401,-727,-836,64,160,452,-224,1,0,36,34,520,1,53298,1
2,31253,30771,31889,54827,12147,-4200,214,-1373,-754,-701,246,156,448,-230,1,0,36,34,560,1,53298,1
2,31334,30711,31890,54828,12155,-4252,196,-1291,-613,-633,260,152,454,-220,1,0,36,34,600,1,53298,1
2,31596,30790,32013,54829,12163,-4230,164,-1270,-445,-696,309,153,447,-213,1,0,36,34,640,1,53298,1
2,31636,30719,31995,54830,12173,-4205,213,-1279,-453,-793,394,149,449,-213,1,0,36,34,680,1,53298,1
2,31672,30823,32026,54831,12184,-4206,174,-1249,-635,-820,371,148,446,-224,1,0,36,34,720,1,53298,1
2,31624,30813,31942,54832,12197,-4231,207,-1265,-630,-824,301,148,456,-222,1,0,36,34,760,1,53298,1
2,31453,30794,31868,54833,12211,-4264,229,-1126,272,-778,275,142,456,-212,1,0,36,34,800,1,53298,1
2,31379,30783,31845,54834,12225,-4274,268,-1306,192,-665,46,154,454,-214,1,0,36,34,840,1,53298,1
2,31458,30784,31849,54835,12238,-4051,384,-1235,-326,-631,-155,144,452,-214,1,0,36,34,880,1,53298,1
2,31496,30765,31870,54836,12252,-4269,263,-1170,-244,-400,-55,143,459,-213,1,0,36,34,920,1,53298,1
2,31450,30766,31874,54837,12265,-4273,289,-1207,-532,-271,-119,151,453,-215,1,0,36,34,960,1,53298,1
1,31440,30778,31877,54838,0,-4217,275,-1137,-608,-61,-170,155,447,-211,1,0,36,35,0,0,53298,1
2,31458,30784,31872,54839,11605,-4286,232,-1175,-512,-38,-30,144,456,-212,1,0,36,35,40,0,53298,1
2,31440,30783,31871,54840,11617,-4229,242,-1191,-461,43,-66,144,444,-210,1,0,36,35,80,0,53298,1
2,31458,30782,31863,54841,11630,-4261,223,-1120,-278,33,-2,143,453,-201,1,0,36,35,120,0,53298,1
2,31459,30782,31861,54842,11642,-4223,271,-1181,-150,-11,37,148,448,-212,1,0,36,35,160,0,53298,1
2,31442,30782,31860,54843,11653,-4235,250,-1146,-114,34,-14,153,449,-217,1,0,36,35,200,0,53298,1
2,31424,30780,31854,54844,11664,-4250,237,-1150,-165,72,-54,149,453,-213,1,0,36,35,240,0,53298,1
2,31423,30778,31845,54845,11675,-4258,239,-1166,-247,104,-111,142,456,-208,1,0,36,35,280,0,53298,1
2,31401,30771,31838,54846,11686,-4229,270,-1157,-449,156,-198,149,447,-213,1,0,36,35,320,0,53298,1
2,31394,30765,31815,54847,11695,-4242,286,-1196,-448,263,-325,155,455,-213,1,0,36,35,360,0,53298,1
2,31369,30754,31780,54848,11703,-4182,220,-1155,-442,324,-378,158,450,-206,1,0,36,35,400,0,53298,1
2,31301,30738,31750,54849,11710,-4208,428,-1363,-132,460,-476,159,453,-201,1,0,36,35,440,0,53298,1
2,30883,30720,31721,54850,11715,-3841,724,-1557,818,1122,-977,152,448,-204,1,0,36,35,480,0,53298,1
2,31261,30726,31758,54851,11717,-4077,-251,-1031,2073,1410,-280,150,442,-216,1,0,36,35,520,0,53298,1
2,31249,30736,31771,54852,11719,-4661,-110,-1009,1399,937,370,159,455,-221,1,0,36,35,560,0,53298,1
2,31243,30726,31782,54853,11721,-3934,428,-1143,1154,775,-637,151,447,-211,1,0,36,35,600,0,53298,1
2,31220,30564,31773,54854,11723,-4434,-1,-1297,1394,812,227,155,441,-223,1,0,36,35,640,0,53298,1
2,31185,30717,31763,54855,11724,-3799,897,-1634,236,1003,-474,155,445,-217,1,0,36,35,680,0,53298,1
2,31204,30712,31765,54856,11725,-3852,417,-1456,-686,1280,-520,161,443,-219,1,0,36,35,720,0,53298,1
2,31199,30714,31781,54857,11726,-4568,-492,-1280,-609,1575,566,155,441,-229,1,0,36,35,760,0,53298,1
2,31188,30710,31784,54858,11726,-4685,93,-919,534,535,346,157,449,-231,1,0,36,35,800,0,53298,1
2,31192,30710,31767,54859,11727,-4250,81,-1403,875,229,-123,158,456,-232,1,0,36,35,840,0,53298,1
2,31170,30701,31740,54860,11727,-4094,-66,-1564,-350,401,-36,162,438,-230,1,0,36,35,880,0,53298,1
2,31185,30709,31760,54861,11728,-4123,73,-1565,-403,388,7,142,448,-220,1,0,36,35,920,0,53298,1
2,31204,30712,31762,54862,11728,-4281,136,-1365,435,329,34,157,455,-237,1,0,36,35,960,0,53298,1
1,31215,30714,31760,54863,0,-4285,42,-1471,850,160,133,155,447,-229,1,0,36,36,0,0,53298,1
2,31219,30716,31767,54864,11087,-4245,26,-1371,1216,98,189,155,447,-235,1,0,36,36,40,0,53298,1
2,31232,30717,31774,54865,11089,-4243,39,-1508,633,29,133,151,445,-233,1,0,36,36,80,0,53298,1
2,31242,30722,31778,54866,11089,-4153,143,-1434,-307,-69,39,158,450,-230,1,0,36,36,120,0,53298,1
2,31252,30725,31796,54867,11090,-4179,169,-1402,-223,-15,37,151,443,-235,1,0,36,36,160,0,53298,1
2,31255,30725,31792,54868,11090,-4197,99,-1482,-166,34,49,162,448,-228,1,0,36,36,200,0,53298,1
2,31263,30727,31804,54869,11091,-4198,127,-1471,-37,28,7,153,443,-233,1,0,36,36,240,0,53298,1
2,31253,30725,31797,54870,11091,-4176,123,-1442,106,19,-20,150,450,-238,1,0,36,36,280,0,53298,1
2,31152,30701,31729,54871,11092,-4165,129,-1485,27,29,-12,162,444,-230,1,0,36,36,320,0,53298,1
2,31112,30691,31703,54872,11092,-4199,114,-1463,-27,2,-6,154,446,-224,1,0,36,36,360,0,53298,1
2,31090,30687,31688,54873,11093,-4176,122,-1452,-60,-37,29,152,448,-234,1,0,36,36,400,0,53298,1
2,31095,30686,31685,54874,11094,-4179,146,-1465,-77,-44,26,156,456,-238,1,0,36,36,440,0,53298,1
2,31105,30688,31695,54875,11094,-4186,98,-1444,-82,-66,39,149,443,-225,1,0,36,36,480,0,53298,1
2,31135,30694,31715,54876,11095,-4217,126,-1468,-60,-66,13,153,447,-231,1,0,36,36,520,0,53298,1
2,31163,30703,31732,54877,11096,-4166,128,-1454,-59,-78,23,156,450,-236,1,0,36,36,560,0,53298,1
2,31189,30709,31749,54878,11096,-4301,76,-1449,1,-141,163,150,454,-228,1,0,36,36,600,0,53298,1
2,31184,30713,31761,54879,11096,-4275,-33,-1331,-28,-159,315,161,445,-231,1,0,36,36,640,0,53298,1
2,31173,30715,31764,54880,11096,-4303,25,-1443,-11,-236,108,148,444,-232,1,0,36,36,680,0,53298,1
2,31212,30719,31768,54881,11096,-4293,-76,-1440,574,-298,-72,150,456,-230,1,0,36,36,720,0,53298,1
2,31199,30709,31750,54882,11097,-4256,-62,-1531,1103,-350,43,155,449,-227,1,0,36,36,760,0,53298,1
2,31215,30720,31779,54883,11098,-4206,-99,-977,914,-602,428,164,442,-238,1,0,36,36,800,0,53298,1
2,31429,30775,31917,54884,11100,-4336,-131,-1424,-1032,-805,298,159,451,-231,1,0,36,36,840,0,53298,1
2,31446,30779,31937,54885,11104,-3903,467,-1405,-264,-1224,-222,159,453,-219,1,0,36,36,880,0,53298,1
2,31435,30763,31842,54886,11110,-3947,476,-1312,-408,-1484,143,149,449,-225,1,0,36,36,920,0,53298,1
2,31491,30783,31908,54887,11118,-4049,246,-1355,-1100,-1711,581,151,455,-221,1,0,36,36,960,0,53298,1
1,31724,30831,32027,54888,0,-4255,314,-1467,-1739,-1632,563,150,450,-218,1,0,36,37,0,1,53298,1
2,31601,30806,32000,54889,10578,-4151,435,-1337,-1536,-1239,223,149,461,-213,1,0,36,37,40,1,53298,1
2,31684,30840,32053,54890,10589,-4199,207,-1254,-937,-845,180,148,460,-210,1,0,36,37,80,1,53298,1
2,31486,30704,31880,54891,10602,-4279,256,-1230,-78,-554,189,152,456,-214,1,0,36,37,120,1,53298,1
2,31550,30294,31970,54892,10615,-4239,270,-1222,13,-327,74,151,455,-215,1,0,36,37,160,1,53298,1
2,31470,30788,31887,54893,10629,-4212,264,-1196,21,-146,-13,140,448,-212,1,0,36,37,200,1,53298,1
2,31458,30793,31890,54894,10642,-4244,193,-1202,326,-57,42,148,456,-212,1,0,36,37,240,1,53298,1
2,31459,30794,31885,54895,10655,-4282,201,-1196,96,-22,33,144,442,-208,1,0,36,37,280,1,53298,1
2,31456,30780,31890,54896,10667,-4243,229,-1194,-68,-56,51,150,444,-206,1,0,36,37,320,1,53298,1
2,31440,30796,31888,54897,10679,-4290,190,-1207,-118,-36,67,151,453,-211,1,0,36,37,360,1,53298,1
2,31430,30794,31889,54898,10691,-4217,257,-1207,-139,-15,66,150,450,-206,1,0,36,37,400,1,53298,1
2,31454,30785,31880,54899,10703,-4260,218,-1182,-149,57,1,150,458,-220,1,0,36,37,440,1,53298,1
2,31466,30763,31874,54900,10714,-4240,231,-1217,-23,79,-50,153,453,-215,1,0,36,37,480,1,53298,1
2,31430,30752,31867,54901,10724,-4256,218,-1175,17,138,-85,157,457,-215,1,0,36,37,520,1,53298,1
2,31421,30758,31855,54902,10733,-4295,208,-1238,-37,190,-128,146,446,-212,1,0,36,37,560,1,53298,1
2,31405,30766,31833,54903,10742,-4238,287,-1274,-19,284,-230,155,451,-217,1,0,36,37,600,1,53298,1
2,31404,30736,31815,54904,10750,-4221,230,-1184,-18,476,-405,157,445,-209,1,0,36,37,640,1,53298,1
2,31424,30621,31793,54905,10757,-4165,503,-1390,-159,666,-612,153,453,-203,1,0,36,37,680,1,53298,1
2,31343,30386,31775,54906,10762,-4398,-158,-1177,16,824,-465,158,450,-202,1,0,36,37,720,1,53298,1
2,31323,30658,31782,54907,10766,-4223,315,-1239,682,672,-234,148,450,-208,1,0,36,37,760,1,53298,1
2,31271,30557,31766,54908,10768,-3796,374,-1162,1252,790,-362,159,447,-213,1,0,36,37,800,1,53298,1
2,31250,30647,31767,54909,10770,-4424,-215,-1199,435,911,276,153,441,-213,1,0,36,37,840,1,53298,1
2,31251,30635,31764,54910,10771,-4039,511,-1454,1,922,-315,152,446,-230,1,0,36,37,880,1,53298,1
2,31251,30643,31770,54911,10773,-4498,-102,-1427,734,734,251,167,455,-227,1,0,36,37,920,1,53298,1
2,31241,30636,31768,54912,10775,-4128,263,-1454,989,647,25,155,445,-225,1,0,36,37,960,1,53298,1
1,31250,30524,31765,54913,0,-3955,42,-873,1330,831,-38,156,446,-234,1,0,36,38,0,1,53298,1
2,31232,30544,31761,54914,10063,-4938,-511,-1488,1470,518,778,157,441,-225,1,0,36,38,40,1,53298,1
2,31243,30484,31754,54915,10063,-4062,318,-1442,589,261,-102,161,445,-229,1,0,36,38,80,1,53298,1
2,31221,30315,31743,54916,10064,-3999,174,-1314,19,424,-194,152,446,-222,1,0,36,38,120,1,53298,1
2,31227,30202,31748,54917,10064,-4461,-22,-1594,529,216,415,152,448,-228,1,0,36,38,160,1,53298,1
2,31216,30305,31751,54918,10064,-4113,270,-1447,-156,131,26,156,444,-224,1,0,36,38,200,1,53298,1
2,31189,30244,31720,54919,10065,-4021,337,-1549,-397,373,-180,161,445,-221,1,0,36,38,240,1,53298,1
2,31226,30719,31754,54920,10065,-3944,227,-1346,484,447,86,148,452,-230,1,0,36,38,280,1,53298,1
2,31161,30704,31728,54921,10065,-4240,157,-1504,-187,603,239,147,449,-233,1,0,36,38,320,1,53298,1
2,31234,30719,31758,54922,10065,-4387,-57,-1414,-190,327,-117,150,450,-238,1,0,36,38,360,1,53298,1
2,31237,30719,31770,54923,10065,-4431,-293,-1364,59,70,-301,154,448,-232,1,0,36,38,400,1,53298,1
2,31210,30712,31749,54924,10065,-4361,-64,-1312,214,95,-14,153,451,-225,1,0,36,38,440,1,53298,1
2,31233,30720,31761,54925,10065,-4114,120,-1522,61,30,74,157,447,-233,1,0,36,38,480,1,53298,1
2,31213,30710,31737,54926,10064,-4077,230,-1547,-74,38,62,148,448,-234,1,0,36,38,520,1,53298,1
2,31139,30700,31699,54927,10064,-4122,182,-1477,26,1,104,153,447,-233,1,0,36,38,560,1,53298,1
2,31147,30695,31706,54928,10064,-4238,86,-1455,-98,1,20,155,457,-235,1,0,36,38,600,1,53298,1
2,31170,30705,31723,54929,10064,-4218,81,-1445,-7,-9,-30,150,446,-238,1,0,36,38,640,1,53298,1
2,31190,30696,31739,54930,10064,-4156,109,-1486,11,-38,-22,153,447,-229,1,0,36,38,680,1,53298,1
2,31155,30694,31709,54931,10064,-4163,147,-1479,21,-29,-35,150,446,-226,1,0,36,38,720,1,53298,1
2,31129,30693,31700,54932,10064,-4186,88,-1451,21,-22,29,163,447,-233,1,0,36,38,760,1,53298,1
2,31145,30696,31706,54933,10064,-4210,96,-1456,-98,-20,60,158,442,-242,1,0,36,38,800,1,53298,1
2,31171,30701,31730,54934,10065,-4187,125,-1470,-92,-36,33,154,448,-238,1,0,36,38,840,1,53298,1
2,31182,30705,31739,54935,10065,-4287,56,-1447,-56,-83,118,152,450,-234,1,0,36,38,880,1,53298,1
2,31204,30713,31753,54936,10067,-4285,-229,-1257,20,-247,400,150,440,-230,1,0,36,38,920,1,53298,1
2,31199,30714,31758,54937,10067,-4524,-152,-1448,44,-242,234,153,449,-225,1,0,36,38,960,1,53298,1
1,31208,30720,31764,54938,0,-4127,355,-1483,619,-318,-344,154,450,-234,1,0,36,39,0,1,53298,1
2,31249,30721,31777,54939,9550,-4127,130,-1534,93,-604,0,148,452,-236,1,0,36,39,40,1,53298,1
2,31270,30730,31781,54940,9552,-4238,143,-1449,-439,-562,298,159,449,-231,1,0,36,39,80,1,53298,1
2,31290,30731,31793,54941,9555,-4048,151,-1394,-924,-710,38,157,451,-233,1,0,36,39,120,1,53298,1
2,31266,30725,31778,54942,9559,-4292,22,-1377,-457,-767,228,153,441,-227,1,0,36,39,160,1,53298,1
2,31348,30725,31798,54943,9563,-4153,119,-1224,-449,-804,-3,150,440,-220,1,0,36,39,200,1,53298,1
2,31330,30748,31829,54944,9569,-4391,80,-1309,-105,-940,-26,155,447,-227,1,0,36,39,240,1,53298,1
2,31355,30721,31822,54945,9576,-4112,283,-1356,-342,-1138,-86,148,452,-224,1,0,36,39,280,1,53298,1
2,31173,30707,31718,54946,9584,-4087,426,-1391,-1055,-1186,55,153,455,-215,1,0,36,39,320,1,53298,1
2,31293,30538,31767,54947,9593,-4222,290,-1422,-1448,-1020,281,157,455,-221,1,0,36,39,360,1,53298,1
2,31210,30636,31738,54948,9603,-4148,318,-1404,-1205,-670,203,147,447,-215,1,0,36,39,400,1,53298,1
2,31227,30719,31741,54949,9613,-4244,235,-1231,-778,-315,104,154,450,-210,1,0,36,39,440,1,53298,1
2,31314,30711,31793,54950,9623,-4350,68,-1166,-1310,-348,87,148,448,-222,1,0,36,39,480,1,53298,1
2,31423,30670,31830,54951,9633,-4175,250,-1229,-966,-504,139,140,452,-202,1,0,36,39,520,1,53298,1
2,31523,30746,31921,54952,9644,-4234,245,-1252,-394,-435,201,152,452,-216,1,0,36,39,560,1,53298,1
2,31538,30710,31934,54953,9654,-4242,233,-1260,-476,-323,100,153,449,-217,1,0,36,39,600,1,53298,1
2,31533,30766,31918,54954,9665,-4195,319,-1173,-333,-199,54,154,456,-224,1,0,36,39,640,1,53298,1
2,31510,30493,31908,54955,9677,-4173,267,-1217,-135,9,-23,153,457,-221,1,0,36,39,680,1,53298,1
2,31513,30672,31901,54956,9688,-4318,180,-1161,70,81,-29,157,457,-215,1,0,36,39,720,1,53298,1
2,31508,30701,31895,54957,9698,-4231,201,-1193,35,17,-5,156,450,-214,1,0,36,39,760,1,53298,1
2,31488,30685,31885,54958,9710,-4270,184,-1185,77,6,51,156,450,-210,1,0,36,39,800,1,53298,1
2,31468,30706,31877,54959,9721,-4249,235,-1215,44,12,29,163,459,-215,1,0,36,39,840,1,53298,1
2,31456,30760,31877,54960,9731,-4240,227,-1213,30,57,6,155,455,-223,1,0,36,39,880,1,53298,1
2,31447,30757,31863,54961,9740,-4242,202,-1220,142,151,-43,156,450,-216,1,0,36,39,920,1,53298,1
2,31434,30672,31850,54962,9749,-4226,271,-1218,489,209,-69,154,452,-200,1,0,36,39,960,1,53298,1
1,31432,30677,31847,54963,0,-4254,178,-1206,598,291,-128,154,448,-216,1,0,36,40,0,0,53298,1
2,31422,30685,31835,54964,9040,-4274,131,-1183,433,223,-68,159,453,-219,1,0,36,40,40,0,53298,1
2,31403,30415,31826,54965,9048,-4216,289,-1300,404,206,-123,157,453,-215,1,0,36,40,80,0,53298,1
2,31384,31722,31768,54966,9055,-4164,173,-1238,536,347,-167,152,450,-212,1,0,36,40,120,0,53298,1
2,31355,30241,31805,54967,9060,-4236,291,-1341,373,397,-161,153,453,-217,1,0,36,40,160,0,53298,1
2,31368,30146,31843,54968,9064,-3943,725,-1588,440,771,-463,156,440,-214,1,0,36,40,200,0,53298,1
2,31298,30362,31796,54969,9067,-3964,-29,-971,436,1120,-229,150,450,-206,1,0,36,40,240,0,53298,1
2,31234,30480,31745,54970,9069,-4711,-164,-1254,-87,1063,373,159,451,-219,1,0,36,40,280,0,53298,1
2,31172,30481,31708,54971,9073,-3807,606,-1166,185,1093,-663,151,449,-219,1,0,36,40,320,0,53298,1
2,31238,30503,31753,54972,9075,-4629,-319,-1437,1114,842,489,158,442,-226,1,0,36,40,360,0,53298,1
2,31206,30132,31750,54973,9076,-4195,118,-1373,762,762,-54,158,446,-228,1,0,36,40,400,0,53298,1
2,31088,30050,31645,54974,9077,-4022,437,-1450,752,759,-308,163,461,-225,1,0,36,40,440,0,53298,1
2,31209,30300,31731,54975,9077,-4188,130,-1385,1055,527,396,159,459,-231,1,0,36,40,480,0,53298,1
2,31185,30489,31703,54976,9077,-4191,27,-1482,-251,635,201,163,445,-231,1,0,36,40,520,0,53298,1
2,31194,30574,31716,54977,9078,-4239,149,-1387,645,541,-23,162,434,-232,1,0,36,40,560,0,53298,1
2,31210,30705,31731,54978,9079,-4235,-28,-1441,1039,314,-18,160,446,-236,1,0,36,40,600,0,53298,1
2,31218,30709,31739,54979,9080,-4333,-100,-1429,735,269,-127,149,447,-227,1,0,36,40,640,0,53298,1
2,31224,30707,31739,54980,9082,-4365,-94,-1373,530,223,-20,148,458,-224,1,0,36,40,680,0,53298,1
2,31208,30704,31730,54981,9083,-4169,73,-1485,490,97,28,155,441,-235,1,0,36,40,720,0,53298,1
2,31192,30697,31714,54982,9084,-4092,153,-1497,450,100,85,154,448,-242,1,0,36,40,760,0,53298,1
2,31188,30697,31706,54983,9085,-4118,136,-1500,1069,122,194,150,452,-230,1,0,36,40,800,0,53298,1
2,31191,30696,31709,54984,9086,-4203,81,-1479,1319,172,198,156,442,-238,1,0,36,40,840,0,53298,1
2,31179,30693,31702,54985,9086,-4202,71,-1477,1069,144,112,157,445,-237,1,0,36,40,880,0,53298,1
2,31139,30689,31675,54986,9086,-4199,83,-1495,313,68,-16,159,457,-235,1,0,36,40,920,0,53298,1
2,31105,30673,31660,54987,9086,-4154,62,-1536,-191,-8,-30,157,449,-235,1,0,36,40,960,0,53298,1
1,31096,30673,31650,54988,0,-4186,81,-1495,-139,-36,14,148,452,-234,1,0,36,41,0,1,53298,1
2,31090,30677,31650,54989,8526,-4193,45,-1521,-242,-43,16,149,445,-227,1,0,36,41,40,1,53298,1
2,31086,30670,31646,54990,8527,-4176,72,-1509,-80,-42,48,154,446,-238,1,0,36,41,80,1,53298,1
2,31084,30671,31649,54991,8529,-4180,99,-1500,-86,-37,31,152,440,-246,1,0,36,41,120,1,53298,1
2,31098,30673,31649,54992,8530,-4177,87,-1496,-128,-43,5,153,451,-237,1,0,36,41,160,1,53298,1
2,31096,30679,31652,54993,8531,-4174,73,-1510,-265,-45,-35,157,441,-241,1,0,36,41,200,1,53298,1
2,31099,30681,31654,54994,8533,-4214,76,-1487,-192,-64,-21,150,444,-232,1,0,36,41,240,1,53298,1
2,31102,30680,31660,54995,8533,-4219,-68,-1396,-540,-185,47,154,450,-242,1,0,36,41,280,1,53298,1
2,31102,30684,31673,54996,8534,-4501,-214,-1445,-814,-354,376,159,445,-237,1,0,36,41,320,1,53298,1
2,31114,30688,31682,54997,8536,-4686,-570,-1472,-655,-494,208,165,443,-241,1,0,36,41,360,1,53298,1
2,31155,30694,31699,54998,8539,-4266,151,-1435,-121,-534,-528,161,447,-235,1,0,36,41,400,1,53298,1
2,31210,30691,31711,54999,8541,-3924,336,-1513,-438,-993,-3,155,451,-223,1,0,36,41,440,1,53298,1
2,31219,30697,31714,55000,8545,-4022,154,-1372,-1721,-841,123,148,444,-226,1,0,36,41,480,1,53298,1
2,31227,30701,31725,55001,8548,-4101,374,-1601,-1357,-918,7,149,441,-229,1,0,36,41,520,1,53298,1
2,31287,30712,31759,55002,8553,-4129,155,-1229,-1062,-871,194,153,449,-215,1,0,36,41,560,1,53298,1
2,31366,30740,31810,55003,8557,-4230,110,-1258,-873,-803,204,158,448,-232,1,0,36,41,600,1,53298,1
2,31355,30623,31830,55004,8563,-4244,177,-1351,-382,-876,158,149,447,-213,1,0,36,41,640,1,53298,1
2,31342,30684,31828,55005,8570,-4226,253,-1374,-496,-985,275,155,453,-221,1,0,36,41,680,1,53298,1
2,31235,31251,31727,55006,8579,-4134,257,-1252,-863,-965,208,146,446,-218,1,0,36,41,720,1,53298,1
2,31262,30440,31755,55007,8587,-4199,238,-1304,-1046,-792,370,152,458,-218,1,0,36,41,760,1,53298,1
2,31347,30266,31820,55008,8597,-4215,216,-1228,-883,-624,360,150,456,-222,1,0,36,41,800,1,53298,1
2,31367,30730,31827,55009,8607,-4213,280,-1201,-781,-573,368,148,458,-214,1,0,36,41,840,1,53298,1
2,31391,30448,31840,55010,8618,-4254,366,-1292,-1454,-468,34,153,457,-203,1,0,36,41,880,1,53298,1
2,31340,32085,31787,55011,8629,-4207,133,-1270,-2402,-267,-252,153,445,-211,1,0,36,41,920,1,53298,1
2,31336,30431,31789,55012,8639,-4199,255,-1125,-1466,-206,-163,152,450,-212,1,0,36,41,960,1,53298,1
1,31311,30950,31767,55013,0,-4234,275,-1194,66,-91,-59,153,447,-215,1,0,36,42,0,1,53298,1
2,31334,30213,31797,55014,8017,-4282,155,-1194,521,27,0,157,465,-217,1,0,36,42,40,1,53298,1
2,31304,30931,31785,55015,8027,-4209,251,-1198,208,97,-60,151,453,-213,1,0,36,42,80,1,53298,1
2,31333,30738,31794,55016,8036,-4242,263,-1171,473,211,-116,156,452,-208,1,0,36,42,120,1,53298,1
2,31296,30713,31775,55017,8046,-4295,160,-1234,705,198,-38,164,458,-214,1,0,36,42,160,1,53298,1
2,31270,30698,31762,55018,8054,-4243,265,-1281,433,203,-121,158,444,-214,1,0,36,42,200,1,53298,1
2,31256,30092,31746,55019,8063,-4227,239,-1201,106,289,-272,159,451,-215,1,0,36,42,240,1,53298,1
2,31251,30586,31738,55020,8071,-4246,231,-1255,151,300,-282,151,449,-211,1,0,36,42,280,1,53298,1
2,31231,30712,31736,55021,8078,-4172,299,-1355,428,499,-352,156,456,-210,1,0,36,42,320,1,53298,1
2,31221,30445,31733,55022,8083,-4220,221,-1238,585,658,-298,157,463,-213,1,0,36,42,360,1,53298,1
2,31250,30725,31786,55023,8087,-4218,302,-1378,537,743,-244,152,452,-224,1,0,36,42,400,1,53298,1
2,31248,30719,31775,55024,8089,-3934,423,-1258,578,963,-293,161,451,-215,1,0,36,42,440,1,53298,1
2,31212,30556,31773,55025,8092,-4305,165,-1413,324,1055,67,154,450,-228,1,0,36,42,480,1,53298,1
2,31129,30610,31727,55026,8094,-4133,298,-1382,-62,1009,-242,154,448,-224,1,0,36,42,520,1,53298,1
2,31151,30113,31719,55027,8095,-4153,63,-1225,45,1013,-197,148,444,-224,1,0,36,42,560,1,53298,1
2,31204,30145,31750,55028,8096,-4564,-163,-1387,522,784,288,157,449,-223,1,0,36,42,600,1,53298,1
2,31163,30150,31725,55029,8098,-4394,-67,-1313,201,663,32,153,449,-227,1,0,36,42,640,1,53298,1
2,31200,30310,31752,55030,8099,-4138,169,-1454,15,500,-294,154,450,-216,1,0,36,42,680,1,53298,1
2,31195,30470,31756,55031,8099,-3976,288,-1458,361,502,-191,157,443,-225,1,0,36,42,720,1,53298,1
2,31204,30097,31757,55032,8099,-4097,280,-1497,325,482,34,147,437,-215,1,0,36,42,760,1,53298,1
2,31187,30705,31747,55033,8099,-4286,91,-1462,339,358,-2,151,453,-223,1,0,36,42,800,1,53298,1
2,31207,30706,31747,55034,8100,-4379,-195,-1405,562,254,-177,159,449,-231,1,0,36,42,840,1,53298,1
2,31169,30702,31734,55035,8102,-4407,-165,-1270,1125,345,90,164,450,-234,1,0,36,42,880,1,53298,1
2,31178,30704,31744,55036,8103,-4209,93,-1445,968,210,82,158,448,-232,1,0,36,42,920,1,53298,1
2,31184,30706,31746,55037,8104,-4109,144,-1532,268,188,84,164,456,-234,1,0,36,42,960,1,53298,1
1,31201,30712,31768,55038,7502,-4136,135,-1532,642,189,125,164,454,-242,1,0,36,43,0,0,53298,1
2,31220,30720,31776,55039,7504,-4227,137,-1439,820,162,105,156,452,-238,1,0,36,43,40,0,53298,1
2,31212,30719,31767,55040,7507,-4198,9,-1480,273,87,38,158,446,-244,1,0,36,43,80,0,53298,1
2,31199,30715,31759,55041,7509,-4186,101,-1469,213,43,34,154,446,-228,1,0,36,43,120,0,53298,1
2,31208,30710,31766,55042,7511,-4162,102,-1488,115,-19,30,147,447,-229,1,0,36,43,160,0,53298,1
2,31198,30717,31755,55043,7512,-4178,82,-1482,-13,-27,21,159,447,-245,1,0,36,43,200,0,53298,1
2,31197,30717,31753,55044,7513,-4195,72,-1465,-53,-39,43,154,448,-236,1,0,36,43,240,0,53298,1
2,31196,30714,31751,55045,7515,-4171,99,-1481,-76,-76,64,160,448,-240,1,0,36,43,280,0,53298,1
2,31189,30714,31751,55046,7516,-4214,107,-1449,-96,-131,81,152,442,-238,1,0,36,43,320,0,53298,1
2,31204,30718,31758,55047,7518,-4236,-114,-1344,-374,-333,259,156,446,-228,1,0,36,43,360,0,53298,1
2,31188,30719,31753,55048,7520,-4518,-272,-1339,-629,-609,737,151,439,-241,1,0,36,43,400,0,53298,1
2,31176,30719,31753,55049,7521,-4831,-407,-1721,-915,-954,816,153,443,-221,1,0,36,43,440,0,53298,1
2,31205,30719,31755,55050,7522,-4023,74,-1242,-487,-1061,-402,161,451,-221,1,0,36,43,480,0,53298,1
2,31275,30725,31777,55051,7525,-3903,183,-1293,-694,-1334,105,156,444,-230,1,0,36,43,520,0,53298,1
2,31295,30729,31808,55052,7528,-4147,224,-1351,-1927,-896,468,157,447,-227,1,0,36,43,560,0,53298,1
2,31282,30722,31780,55053,7533,-4231,374,-1328,-1013,-1064,340,160,450,-228,1,0,36,43,600,0,53298,1
2,31300,30733,31795,55054,7539,-4172,305,-1204,-748,-1016,157,152,458,-220,1,0,36,43,640,0,53298,1
2,31322,30682,31812,55055,7545,-4120,341,-1376,-492,-863,54,153,465,-223,1,0,36,43,680,0,53298,1
2,31231,30641,31752,55056,7552,-4086,307,-1341,284,-623,159,157,453,-225,1,0,36,43,720,0,53298,1
2,31313,30454,31804,55057,7560,-4139,144,-1297,-460,-542,182,154,456,-222,1,0,36,43,760,0,53298,1
2,31339,31026,31813,55058,7569,-4246,267,-1181,-706,-640,64,150,452,-214,1,0,36,43,800,0,53298,1
2,31334,30156,31801,55059,7579,-4289,238,-1225,-947,-809,221,156,454,-214,1,0,36,43,840,0,53298,1
2,31283,32504,31750,55060,7590,-4159,292,-1265,-1042,-727,207,150,452,-224,1,0,36,43,880,0,53298,1
2,31327,30718,31793,55061,7601,-4156,363,-1246,-767,-500,192,157,455,-209,1,0,36,43,920,0,53298,1
2,31345,30743,31820,55062,7601,-4167,381,-1252,-486,-175,39,150,454,-218,1,0,36,43,960,0,53298,1
1,31340,30537,31815,55063,6993,-4246,108,-1126,-139,123,36,149,433,-209,1,0,36,44,0,0,53298,1
2,31339,30744,31815,55064,7002,-4357,228,-1144,352,7,162,149,451,-217,1,0,36,44,40,0,53298,1
2,31321,30724,31808,55065,7010,-4240,253,-1270,145,-67,92,156,444,-216,1,0,36,44,80,0,53298,1
2,31326,30675,31803,55066,7019,-4190,239,-1162,-53,-7,56,149,441,-215,1,0,36,44,120,0,53298,1
2,31327,30742,31805,55067,7027,-4238,267,-1188,53,8,44,149,455,-215,1,0,36,44,160,0,53298,1
2,31337,30742,31815,55068,7035,-4312,202,-1206,164,44,65,149,457,-207,1,0,36,44,200,0,53298,1
2,31344,30747,31815,55069,7043,-4231,277,-1202,223,84,-4,147,451,-213,1,0,36,44,240,0,53298,1
2,31351,30751,31825,55070,7050,-4239,243,-1218,363,155,-60,153,451,-207,1,0,36,44,280,0,53298,1
2,31369,30749,31826,55071,7057,-4255,251,-1216,565,198,-44,161,449,-213,1,0,36,44,320,0,53298,1
2,31355,30745,31809,55072,7063,-4173,275,-1227,576,321,-126,162,454,-210,1,0,36,44,360,0,53298,1
2,31325,30740,31801,55073,7068,-4179,323,-1283,600,479,-201,157,447,-221,1,0,36,44,400,0,53298,1
2,31294,30734,31781,55074,7072,-4128,475,-1439,793,719,-218,147,447,-213,1,0,36,44,440,0,53298,1
2,31183,30692,31747,55075,7075,-4031,492,-1509,874,1135,15,150,442,-220,1,0,36,44,480,0,53298,1
2,31169,30710,31744,55076,7078,-3969,330,-1234,757,1729,354,151,449,-219,1,0,36,44,520,0,53298,1
2,31139,30721,31747,55077,7080,-4220,338,-1427,465,2104,677,154,452,-224,1,0,36,44,560,0,53298,1
2,31214,30720,31772,55078,7081,-4177,417,-1388,603,1941,301,155,451,-233,1,0,36,44,600,0,53298,1
2,31158,30188,31729,55079,7081,-4072,153,-1370,12,1676,206,152,456,-228,1,0,36,44,640,0,53298,1
2,31108,30692,31717,55080,7082,-4266,-209,-1212,-321,1239,180,153,447,-231,1,0,36,44,680,0,53298,1
2,31129,30705,31750,55081,7082,-4382,-307,-1185,333,509,-162,148,450,-232,1,0,36,44,720,0,53298,1
2,31132,30708,31744,55082,7082,-4506,-5,-1504,237,-37,-444,144,438,-244,1,0,36,44,760,0,53298,1
2,31115,30702,31735,55083,7082,-4349,135,-1464,962,-149,-312,156,440,-228,1,0,36,44,800,0,53298,1
2,31114,30706,31725,55084,7083,-4133,62,-1492,575,-78,-138,155,447,-227,1,0,36,44,840,0,53298,1
2,31107,30699,31722,55085,7084,-4062,193,-1491,879,66,-46,149,443,-233,1,0,36,44,880,0,53298,1
2,31106,30708,31725,55086,7085,-4103,259,-1481,989,84,0,160,444,-244,1,0,36,44,920,0,53298,1
2,31121,30710,31738,55087,7085,-4219,247,-1495,886,100,-55,158,448,-234,1,0,36,44,960,0,53298,1
1,31145,30715,31756,55088,6480,-4188,65,-1542,211,105,-121,156,442,-238,1,0,36,45,0,1,53298,1
2,31143,30713,31752,55089,6481,-4168,122,-1516,280,89,-128,145,445,-239,1,0,36,45,40,1,53298,1
2,31101,30704,31727,55090,6481,-4139,135,-1516,424,70,-81,150,450,-224,1,0,36,45,80,1,53298,1
2,31038,30691,31699,55091,6482,-4156,140,-1550,452,143,64,153,455,-237,1,0,36,45,120,1,53298,1
2,30994,30680,31650,55092,6483,-4143,160,-1544,1022,251,245,150,450,-238,1,0,36,45,160,1,53298,1
2,30994,30675,31656,55093,6483,-4223,116,-1503,951,260,112,149,447,-235,1,0,36,45,200,1,53298,1
2,31010,30685,31670,55094,6483,-4171,118,-1513,777,150,7,153,441,-233,1,0,36,45,240,1,53298,1
2,30997,30678,31666,55095,6483,-4176,99,-1550,277,117,-27,153,447,-245,1,0,36,45,280,1,53298,1
2,31002,30678,31670,55096,6484,-4128,115,-1549,294,31,-36,153,447,-235,1,0,36,45,320,1,53298,1
2,31009,30678,31669,55097,6485,-4172,107,-1534,50,21,-62,148,446,-244,1,0,36,45,360,1,53298,1
2,30987,30674,31658,55098,6487,-4164,101,-1545,-91,-29,-10,144,446,-232,1,0,36,45,400,1,53298,1
2,30941,30668,31632,55099,6488,-4173,74,-1489,-193,-178,61,151,447,-241,1,0,36,45,440,1,53298,1
2,30918,30669,31626,55100,6490,-4283,-226,-1272,-349,-487,284,152,438,-240,1,0,36,45,480,1,53298,1
2,30908,30667,31617,55101,6491,-4850,-271,-1565,-729,-554,449,148,450,-238,1,0,36,45,520,1,53298,1
2,31051,30678,31631,55102,6494,-4286,381,-1345,-582,-738,-488,156,448,-238,1,0,36,45,560,1,53298,1
2,31123,30681,31653,55103,6497,-3633,279,-1626,-877,-911,-142,154,446,-236,1,0,36,45,600,1,53298,1
2,31201,30691,31701,55104,6502,-4003,200,-1394,-1048,-666,118,154,452,-234,1,0,36,45,640,1,53298,1
2,31212,30706,31710,55105,6507,-4260,144,-1501,-919,-903,38,151,441,-239,1,0,36,45,680,1,53298,1
2,31260,30234,31779,55106,6514,-4291,127,-1415,-1100,-950,-71,151,447,-229,1,0,36,45,720,1,53298,1
2,31263,30159,31746,55107,6521,-4148,132,-1389,-802,-1181,-199,156,452,-230,1,0,36,45,760,1,53298,1
2,31313,30330,31799,55108,6529,-4040,345,-1321,-374,-1335,18,160,458,-224,1,0,36,45,800,1,53298,1
2,31330,30727,31798,55109,6539,-4097,365,-1306,-507,-1383,344,149,465,-227,1,0,36,45,840,1,53298,1
2,31354,30488,31799,55110,6550,-4103,323,-1358,-1373,-1154,453,156,454,-220,1,0,36,45,880,1,53298,1
2,31266,34760,31751,55111,6562,-4221,214,-1283,-1525,-873,414,154,458,-220,1,0,36,45,920,1,53298,1
2,31380,31992,31775,55112,6562,-4183,291,-1271,-884,-739,373,147,455,-221,1,0,36,45,960,1,53298,1
1,31305,30392,31771,55113,5971,-4245,280,-1265,-547,-604,329,143,447,-217,1,0,36,46,0,1,53298,1
2,31337,30171,31800,55114,5983,-4232,264,-1296,-851,-329,161,161,451,-213,1,0,36,46,40,1,53298,1
2,31381,30721,31828,55115,5995,-4238,207,-1163,-467,-249,307,143,443,-221,1,0,36,46,80,1,53298,1
2,31382,30636,31817,55116,6006,-4207,337,-1231,97,-456,378,149,453,-213,1,0,36,46,120,1,53298,1
2,31351,30238,31791,55117,6017,-4206,319,-1211,-593,-373,225,148,454,-206,1,0,36,46,160,1,53298,1
2,31322,32160,31762,55118,6028,-4239,251,-1130,-916,-184,116,150,450,-220,1,0,36,46,200,1,53298,1
2,31324,31830,31766,55119,6038,-4255,300,-1196,-361,-97,57,154,450,-210,1,0,36,46,240,1,53298,1
2,31322,31744,31766,55120,6048,-4231,227,-1200,-160,-3,76,153,455,-209,1,0,36,46,280,1,53298,1
2,31337,30455,31781,55121,6058,-4182,294,-1214,-347,-23,127,147,455,-203,1,0,36,46,320,1,53298,1
2,31334,30330,31780,55122,6067,-4254,328,-1138,-29,55,56,156,452,-208,1,0,36,46,360,1,53298,1
2,31334,30166,31780,55123,6076,-4234,308,-1137,617,117,1,151,451,-207,1,0,36,46,400,1,53298,1
2,31306,30271,31746,55124,6084,-4217,315,-1221,590,290,-136,158,452,-218,1,0,36,46,440,1,53298,1
2,31300,30693,31780,55125,6090,-4139,471,-1330,623,553,-345,154,444,-214,1,0,36,46,480,1,53298,1
2,31261,30602,31770,55126,6093,-3656,1024,-1702,1476,1425,-788,158,448,-224,1,0,36,46,520,1,53298,1
2,31202,30257,31753,55127,6096,-4764,-410,-1456,1939,1558,301,153,439,-221,1,0,36,46,560,1,53298,1
2,31155,30664,31813,55128,6098,-4080,528,-1363,2833,1278,-3,150,442,-224,1,0,36,46,600,1,53298,1
2,31144,30710,31739,55129,6099,-3844,494,-1491,3313,1648,-274,156,448,-220,1,0,36,46,640,1,53298,1
2,31032,30683,31697,55130,6099,-4205,142,-1141,3731,1529,521,155,449,-231,1,0,36,46,680,1,53298,1
2,31151,30707,31739,55131,6101,-4479,244,-1192,1305,830,586,157,441,-227,1,0,36,46,720,1,53298,1
2,31082,30685,31688,55132,6102,-4331,-156,-1498,-2150,488,-25,146,446,-228,1,0,36,46,760,1,53298,1
2,31030,30674,31648,55133,6104,-4335,-184,-1423,-2004,323,-276,150,450,-224,1,0,36,46,800,1,53298,1
2,31029,30670,31645,55134,6105,-4268,66,-1397,-663,129,-216,155,445,-231,1,0,36,46,840,1,53298,1
2,31072,30680,31657,55135,6106,-4191,221,-1365,141,125,-114,149,445,-225,1,0,36,46,880,1,53298,1
2,31061,30678,31640,55136,6107,-4170,192,-1412,1171,-127,447,154,442,-226,1,0,36,46,920,1,53298,1
2,31043,30670,31622,55137,6107,-4121,23,-1619,316,122,90,157,449,-233,1,0,36,46,960,1,53298,1
1,31010,30666,31602,55138,5457,-4218,104,-1441,220,242,-32,150,448,-236,1,0,36,47,0,1,53298,1
2,30999,30659,31589,55139,5458,-4206,237,-1375,1782,275,161,153,443,-231,1,0,36,47,40,1,53298,1
2,30986,30655,31585,55140,5460,-4138,93,-1541,681,316,31,152,448,-238,1,0,36,47,80,1,53298,1
2,30980,30662,31578,55141,5461,-4143,153,-1555,775,333,39,151,441,-241,1,0,36,47,120,1,53298,1
2,30960,30660,31582,55142,5462,-4172,126,-1494,556,231,-24,145,439,-241,1,0,36,47,160,1,53298,1
2,30958,30652,31577,55143,5463,-4156,159,-1507,42,76,-119,144,454,-222,1,0,36,47,200,1,53298,1
2,30965,30659,31577,55144,5465,-4178,165,-1504,-55,66,-130,157,447,-237,1,0,36,47,240,1,53298,1
2,30965,30652,31582,55145,5467,-4160,142,-1508,50,22,-20,152,438,-240,1,0,36,47,280,1,53298,1
2,30963,30659,31585,55146,5468,-4153,136,-1513,-92,-16,-18,147,443,-237,1,0,36,47,320,1,53298,1
2,30966,30655,31584,55147,5469,-4154,131,-1523,-54,-1,-47,143,441,-243,1,0,36,47,360,1,53298,1
2,30957,30655,31579,55148,5470,-4184,149,-1498,50,-8,-55,150,444,-238,1,0,36,47,400,1,53298,1
2,30944,30660,31580,55149,5471,-4145,150,-1531,-251,-47,-65,142,442,-240,1,0,36,47,440,1,53298,1
2,30929,30657,31580,55150,5473,-4165,97,-1486,-407,-63,-94,149,451,-233,1,0,36,47,480,1,53298,1
2,30923,30658,31585,55151,5475,-4231,73,-1433,-812,-175,-172,152,446,-236,1,0,36,47,520,1,53298,1
2,30905,30658,31585,55152,5476,-4299,-113,-1378,-1619,-444,9,152,444,-230,1,0,36,47,560,1,53298,1
2,30904,30659,31593,55153,5478,-4442,-23,-1418,-766,-423,293,151,451,-243,1,0,36,47,600,1,53298,1
2,30938,30652,31606,55154,5479,-4123,10,-1427,-680,-470,-237,148,448,-240,1,0,36,47,640,1,53298,1
2,31026,30664,31624,55155,5481,-4062,305,-1530,-551,-428,-416,147,449,-233,1,0,36,47,680,1,53298,1
2,31062,30673,31630,55156,5483,-4133,251,-1354,-512,-571,21,148,450,-238,1,0,36,47,720,1,53298,1
2,31107,30668,31640,55157,5486,-4442,-134,-1113,-1245,-785,225,156,440,-234,1,0,36,47,760,1,53298,1
2,31153,30684,31668,55158,5490,-4636,-282,-1533,-1421,-954,227,151,443,-225,1,0,36,47,800,1,53298,1
2,31204,30700,31718,55159,5495,-4100,33,-1296,-464,-1357,-369,152,448,-226,1,0,36,47,840,1,53298,1
2,31313,30703,31794,55160,5501,-3940,437,-1163,-186,-1535,-499,144,450,-218,1,0,36,47,880,1,53298,1
2,31341,30692,31820,55161,5509,-3870,572,-1420,-913,-1718,16,158,448,-220,1,0,36,47,920,1,53298,1
2,31361,30713,31820,55162,5509,-4140,330,-1266,-1781,-1372,476,151,455,-219,1,0,36,47,960,1,53298,1
1,31368,30647,31813,55163,4948,-4321,293,-1270,-2559,-1102,426,150,444,-214,1,0,36,48,0,0,53298,1
2,31376,30270,31822,55164,4959,-4234,324,-1214,-1932,-892,279,160,456,-216,1,0,36,48,40,0,53298,1
2,31386,30715,31828,55165,4971,-4177,431,-1176,-851,-534,-4,156,452,-214,1,0,36,48,80,0,53298,1
2,31387,30759,31828,55166,4983,-4227,224,-1185,-449,-124,-190,147,463,-207,1,0,36,48,120,0,53298,1
2,31395,30764,31842,55167,4994,-4243,222,-1174,-223,-1,-55,153,453,-215,1,0,36,48,160,0,53298,1
2,31392,30762,31831,55168,5006,-4242,326,-1206,179,23,-24,153,457,-217,1,0,36,48,200,0,53298,1
2,31379,30759,31826,55169,5016,-4228,193,-1247,256,56,45,157,451,-213,1,0,36,48,240,0,53298,1
2,31377,30756,31823,55170,5027,-4212,277,-1147,-154,47,1,152,456,-210,1,0,36,48,280,0,53298,1
2,31370,30754,31815,55171,5036,-4280,258,-1177,37,11,46,146,452,-210,1,0,36,48,320,0,53298,1
2,31362,30752,31812,55172,5045,-4218,266,-1207,339,69,-1,152,450,-208,1,0,36,48,360,0,53298,1
2,31362,30752,31808,55173,5054,-4244,280,-1139,238,183,-56,147,457,-205,1,0,36,48,400,0,53298,1
2,31326,30746,31786,55174,5061,-4246,251,-1214,144,172,-73,151,459,-207,1,0,36,48,440,0,53298,1
2,31309,30734,31773,55175,5068,-4179,340,-1230,432,258,-137,145,453,-205,1,0,36,48,480,0,53298,1
2,31300,30728,31761,55176,5074,-4253,319,-1181,617,409,-210,155,461,-203,1,0,36,48,520,0,53298,1
2,31288,30721,31770,55177,5079,-4226,248,-1288,215,518,-350,149,439,-209,1,0,36,48,560,0,53298,1
2,31312,30707,31779,55178,5083,-4056,355,-1187,366,727,-380,144,446,-216,1,0,36,48,600,0,53298,1
2,31305,30699,31773,55179,5085,-4196,198,-1238,840,812,-135,155,455,-221,1,0,36,48,640,0,53298,1
2,31297,30715,31766,55180,5087,-4058,468,-1420,691,959,-219,156,458,-214,1,0,36,48,680,0,53298,1
2,31275,30673,31761,55181,5088,-3935,406,-1179,707,1211,-299,156,452,-218,1,0,36,48,720,0,53298,1
2,31246,30681,31763,55182,5090,-4850,-345,-1384,1052,951,515,151,453,-221,1,0,36,48,760,0,53298,1
2,31247,30583,31777,55183,5091,-4054,482,-1477,168,682,-258,149,445,-211,1,0,36,48,800,0,53298,1
2,31237,30656,31754,55184,5092,-3841,351,-1411,97,832,-373,148,448,-224,1,0,36,48,840,0,53298,1
2,31281,30092,31798,55185,5092,-4158,107,-1459,931,1083,281,156,440,-222,1,0,36,48,880,0,53298,1
2,31235,29962,31746,55186,5092,-4230,134,-1435,488,1255,147,153,455,-237,1,0,36,48,920,0,53298,1
2,31231,29992,31732,55187,5092,-4333,34,-1302,1836,1369,-302,155,457,-231,1,0,36,48,960,0,53298,1
1,31137,30229,31676,55188,4436,-4499,-183,-1268,3293,994,-484,151,447,-235,1,0,36,49,0,1,53298,1
2,31115,30675,31657,55189,4436,-4521,-332,-1383,1325,800,-257,151,449,-227,1,0,36,49,40,1,53298,1
2,31133,30681,31674,55190,4437,-4149,24,-1580,289,361,-41,147,441,-239,1,0,36,49,80,1,53298,1
2,31124,30679,31668,55191,4438,-3995,146,-1657,-504,79,33,158,442,-238,1,0,36,49,120,1,53298,1
2,31121,30682,31657,55192,4438,-4048,258,-1565,214,-38,187,158,444,-224,1,0,36,49,160,1,53298,1
2,31084,30668,31639,55193,4439,-4229,66,-1539,131,-60,104,154,452,-238,1,0,36,49,200,1,53298,1
2,31074,30669,31636,55194,4440,-4233,15,-1456,-25,-165,62,157,447,-241,1,0,36,49,240,1,53298,1
2,31089,30668,31639,55195,4440,-4181,115,-1486,-22,-179,30,156,446,-236,1,0,36,49,280,1,53298,1
2,31098,30673,31644,55196,4441,-4125,103,-1521,-206,-83,14,157,445,-237,1,0,36,49,320,1,53298,1
2,31110,30678,31654,55197,4441,-4158,110,-1513,-137,10,24,156,452,-234,1,0,36,49,360,1,53298,1
2,31116,30677,31657,55198,4440,-4191,68,-1495,6,59,13,160,452,-236,1,0,36,49,400,1,53298,1
2,31105,30675,31654,55199,4441,-4175,89,-1525,26,40,19,146,448,-236,1,0,36,49,440,1,53298,1
2,31115,30685,31661,55200,4440,-4144,122,-1535,29,15,6,151,449,-241,1,0,36,49,480,1,53298,1
2,31115,30684,31665,55201,4440,-4166,91,-1519,-27,-13,-26,154,448,-244,1,0,36,49,520,1,53298,1
2,31146,30693,31684,55202,4441,-4184,74,-1516,-10,-48,-3,159,449,-243,1,0,36,49,560,1,53298,1
2,31147,30693,31688,55203,4442,-4156,97,-1526,-38,-26,27,153,455,-237,1,0,36,49,600,1,53298,1
2,31150,30691,31690,55204,4444,-4160,109,-1521,-37,-47,49,146,444,-230,1,0,36,49,640,1,53298,1
2,31136,30686,31685,55205,4445,-4154,89,-1507,-192,-112,79,158,450,-234,1,0,36,49,680,1,53298,1
2,31121,30687,31680,55206,4445,-4184,108,-1459,-253,-165,121,153,449,-243,1,0,36,49,720,1,53298,1
2,31070,30679,31649,55207,4444,-4393,-167,-1333,-377,-502,464,151,447,-241,1,0,36,49,760,1,53298,1
2,31053,30683,31647,55208,4445,-4660,-432,-1483,-924,-604,733,155,453,-237,1,0,36,49,800,1,53298,1
2,31088,30682,31653,55209,4446,-4209,384,-1279,-439,-633,-549,154,444,-230,1,0,36,49,840,1,53298,1
2,31099,30683,31655,55210,4447,-3680,496,-1720,-675,-941,-308,147,449,-231,1,0,36,49,880,1,53298,1
2,31084,30683,31655,55211,4448,-3786,581,-1466,-1326,-437,57,157,445,-233,1,0,36,49,920,1,53298,1
2,31092,30684,31656,55212,4448,-4074,236,-1434,-831,-323,155,157,449,-243,1,0,36,49,960,1,53298,1
1,31090,30686,31665,55213,3925,-4527,-64,-1264,-63,-119,363,161,447,-237,1,0,36,50,0,1,53298,1
2,31085,30690,31665,55214,3927,-4375,-126,-1325,-264,-269,91,153,443,-227,1,0,36,50,40,1,53298,1
2,31100,30698,31674,55215,3930,-4210,79,-1439,-6,-350,5,151,443,-237,1,0,36,50,80,1,53298,1
2,31115,30689,31695,55216,3933,-4062,251,-1475,-38,-445,-8,153,447,-233,1,0,36,50,120,1,53298,1
2,31151,30699,31710,55217,3937,-4265,65,-1355,-470,-443,133,157,449,-227,1,0,36,50,160,1,53298,1
2,31174,30703,31725,55218,3941,-4307,66,-1290,-866,-579,35,154,448,-228,1,0,36,50,200,1,53298,1
2,31229,30636,31757,55219,3946,-4121,277,-1368,-1025,-754,-179,159,453,-227,1,0,36,50,240,1,53298,1
2,31192,30615,31746,55220,3952,-4233,143,-1337,-703,-831,-79,155,447,-229,1,0,36,50,280,1,53298,1
2,31151,30110,31721,55221,3958,-4183,263,-1268,-593,-823,29,155,441,-221,1,0,36,50,320,1,53298,1
2,31301,30105,31797,55222,3966,-4240,244,-1265,-837,-850,127,151,453,-213,1,0,36,50,360,1,53298,1
2,31357,30335,31812,55223,3975,-4341,100,-1213,-1486,-1104,370,159,453,-227,1,0,36,50,400,1,53298,1
2,31410,30746,31800,55224,3986,-4151,357,-1258,-2029,-1247,360,151,451,-219,1,0,36,50,440,1,53298,1
2,31430,30627,31804,55225,3997,-4106,404,-1221,-1875,-982,366,145,455,-209,1,0,36,50,480,1,53298,1
2,31426,30251,31790,55226,4009,-4178,341,-1241,-1346,-698,295,151,453,-215,1,0,36,50,520,1,53298,1
2,31417,30165,31800,55227,4021,-4278,309,-1174,-940,-533,160,155,453,-213,1,0,36,50,560,1,53298,1
2,31411,30168,31805,55228,4033,-4248,363,-1165,-928,-414,23,154,450,-216,1,0,36,50,600,1,53298,1
2,31402,30228,31805,55229,4044,-4117,385,-1190,-981,-156,-137,144,454,-200,1,0,36,50,640,1,53298,1
2,31390,30313,31799,55230,4055,-4266,274,-1083,-999,47,-156,153,461,-217,1,0,36,50,680,1,53298,1
2,31379,30317,31788,55231,4064,-4242,307,-1146,-674,81,-164,152,444,-204,1,0,36,50,720,1,53298,1
2,31355,30465,31767,55232,4073,-4223,230,-1108,-63,165,-118,152,454,-204,1,0,36,50,760,1,53298,1
2,31348,30464,31768,55233,4081,-4311,271,-1113,575,176,-15,154,452,-198,1,0,36,50,800,1,53298,1
2,31336,30169,31768,55234,4089,-4261,253,-1182,554,152,-46,158,450,-210,1,0,36,50,840,1,53298,1
2,31314,30688,31739,55235,4096,-4205,269,-1137,303,187,-100,164,452,-206,1,0,36,50,880,1,53298,1
2,31324,30537,31741,55236,4103,-4287,266,-1182,455,188,-70,155,451,-209,1,0,36,50,920,1,53298,1
2,31331,30310,31756,55237,4103,-4248,251,-1183,560,218,-74,152,452,-214,1,0,36,50,960,1,53298,1
1,31336,30337,31753,55238,3416,-4198,279,-1138,501,255,-117,158,446,-208,1,0,36,51,0,0,53298,1
2,31307,30374,31717,55239,3419,-4179,483,-1337,596,435,-208,151,455,-205,1,0,36,51,40,0,53298,1
2,31279,30584,31745,55240,3422,-4032,242,-1176,1157,856,-351,155,455,-219,1,0,36,51,80,0,53298,1
2,31327,30640,31762,55241,3425,-4439,34,-1144,1157,814,203,160,448,-214,1,0,36,51,120,0,53298,1
2,31340,30592,31739,55242,3425,-3947,964,-1663,1114,1037,-375,160,452,-220,1,0,36,51,160,0,53298,1
2,31305,30561,31741,55243,3425,-4240,82,-1455,879,1204,260,157,443,-213,1,0,36,51,200,0,53298,1
2,31261,30352,31728,55244,3426,-4445,-118,-1163,-92,936,383,160,460,-212,1,0,36,51,240,0,53298,1
2,31278,34815,31817,55245,3427,-3980,737,-1462,98,908,-464,154,458,-214,1,0,36,51,280,0,53298,1
2,31210,34776,31739,55246,3428,-4541,-39,-1505,1182,504,338,164,452,-228,1,0,36,51,320,0,53298,1
2,31187,31486,31720,55247,3428,-4057,340,-1334,643,368,70,155,451,-225,1,0,36,51,360,0,53298,1
2,31298,30195,31812,55248,3428,-4085,324,-1214,-61,437,-210,156,448,-226,1,0,36,51,400,0,53298,1
2,31267,30195,31800,55249,3429,-4668,-259,-1553,506,300,447,146,444,-228,1,0,36,51,440,0,53298,1
2,31200,33445,31727,55250,3430,-4162,390,-1228,481,142,153,147,449,-223,1,0,36,51,480,0,53298,1
2,31177,30257,31715,55251,3430,-4121,172,-1363,248,287,88,155,449,-225,1,0,36,51,520,0,53298,1
2,31160,30289,31699,55252,3431,-4228,171,-1457,627,213,273,152,444,-230,1,0,36,51,560,0,53298,1
2,31160,30445,31694,55253,3432,-4088,482,-1494,277,250,129,158,452,-240,1,0,36,51,600,0,53298,1
2,31150,30681,31685,55254,3432,-3994,429,-1479,-3,612,167,153,451,-237,1,0,36,51,640,0,53298,1
2,31160,30691,31697,55255,3434,-4602,134,-1548,1271,159,559,147,445,-225,1,0,36,51,680,0,53298,1
2,31176,30696,31703,55256,3435,-4164,133,-1312,-281,155,25,151,443,-233,1,0,36,51,720,0,53298,1
2,31171,30692,31695,55257,3436,-4070,264,-1573,269,231,-115,147,439,-237,1,0,36,51,760,0,53298,1
2,31167,30652,31698,55258,3436,-3971,326,-1457,368,219,-31,151,447,-231,1,0,36,51,800,0,53298,1
2,31119,30677,31651,55259,3438,-4166,299,-1501,251,160,201,153,439,-229,1,0,36,51,840,0,53298,1
2,31093,30427,31635,55260,3438,-4233,277,-1463,365,325,207,154,446,-232,1,0,36,51,880,0,53298,1
2,31096,30290,31641,55261,3439,-4162,-51,-1243,422,230,152,153,441,-231,1,0,36,51,920,0,53298,1
2,31102,30353,31660,55262,3439,-4550,-135,-1490,-273,-3,175,150,446,-238,1,0,36,51,960,0,53298,1
1,31133,30433,31672,55263,2904,-4216,151,-1405,221,-254,-347,150,448,-232,1,0,36,52,0,1,53298,1
2,31124,30429,31677,55264,2904,-3997,312,-1465,165,-177,-100,148,448,-244,1,0,36,52,40,1,53298,1
2,31110,30397,31667,55265,2904,-3967,369,-1539,61,-49,110,151,453,-231,1,0,36,52,80,1,53298,1
2,31107,30371,31661,55266,2904,-4131,275,-1444,-33,35,207,146,442,-230,1,0,36,52,120,1,53298,1
2,31106,30367,31669,55267,2904,-4370,53,-1387,-97,55,15,148,448,-234,1,0,36,52,160,1,53298,1
2,31115,30586,31670,55268,2906,-4280,3,-1366,-3,-100,-130,157,449,-229,1,0,36,52,200,1,53298,1
2,31095,30033,31665,55269,2907,-4192,185,-1452,117,-116,-110,149,445,-235,1,0,36,52,240,1,53298,1
2,31126,30458,31673,55270,2908,-4120,104,-1451,300,-233,226,149,449,-231,1,0,36,52,280,1,53298,1
2,31128,30502,31684,55271,2910,-4673,-501,-1067,177,-533,188,148,452,-230,1,0,36,52,320,1,53298,1
2,31151,30464,31702,55272,2912,-4659,-234,-1118,-699,-736,-347,154,452,-228,1,0,36,52,360,1,53298,1
2,31176,30601,31724,55273,2916,-4223,198,-1595,-1723,-1247,-687,152,448,-224,1,0,36,52,400,1,53298,1
2,31203,30662,31735,55274,2921,-3659,651,-1450,-1136,-1392,-107,159,457,-229,1,0,36,52,440,1,53298,1
2,31263,30727,31773,55275,2927,-4030,494,-1353,-788,-1281,370,152,454,-230,1,0,36,52,480,1,53298,1
2,31323,30593,31804,55276,2935,-4386,12,-1245,-1225,-1383,175,152,450,-224,1,0,36,52,520,1,53298,1
2,31348,30738,31778,55277,2944,-4275,198,-1254,-2225,-1685,100,152,450,-218,1,0,36,52,560,1,53298,1
2,31366,30727,31793,55278,2956,-4206,504,-1270,-2897,-1670,250,157,457,-219,1,0,36,52,600,1,53298,1
2,31375,30743,31796,55279,2968,-4112,288,-1284,-2299,-1336,108,152,448,-210,1,0,36,52,640,1,53298,1
2,31376,30748,31799,55280,2982,-4108,353,-1223,-1695,-950,225,156,454,-210,1,0,36,52,680,1,53298,1
2,31368,30743,31800,55281,2994,-4289,306,-1219,-1056,-571,203,154,458,-216,1,0,36,52,720,1,53298,1
2,31352,30738,31786,55282,3006,-4236,427,-1122,-201,-274,-41,152,448,-218,1,0,36,52,760,1,53298,1
2,31363,30743,31792,55283,3016,-4236,240,-1021,-171,20,15,153,449,-199,1,0,36,52,800,1,53298,1
2,31356,30746,31787,55284,3027,-4298,255,-1135,167,29,12,143,457,-211,1,0,36,52,840,1,53298,1
2,31351,30744,31787,55285,3037,-4244,286,-1099,382,88,18,153,459,-205,1,0,36,52,880,1,53298,1
2,31351,30744,31785,55286,3047,-4262,262,-1116,301,96,17,158,456,-210,1,0,36,52,920,1,53298,1
2,31349,30743,31784,55287,3047,-4286,294,-1114,196,80,28,150,456,-204,1,0,36,52,960,1,53298,1
1,31351,30744,31789,55288,2394,-4236,314,-1117,187,62,29,152,454,-218,1,0,36,53,0,1,53298,1
2,31355,30745,31789,55289,2404,-4252,277,-1137,187,99,17,148,456,-204,1,0,36,53,40,1,53298,1
2,31348,30745,31789,55290,2413,-4264,243,-1154,399,150,-46,149,453,-209,1,0,36,53,80,1,53298,1
2,31344,30743,31785,55291,2421,-4236,297,-1152,357,263,-92,147,455,-209,1,0,36,53,120,1,53298,1
2,31340,30739,31780,55292,2429,-4256,308,-1125,488,347,-149,154,450,-212,1,0,36,53,160,1,53298,1
2,31313,30732,31767,55293,2436,-4207,320,-1171,702,532,-304,166,442,-208,1,0,36,53,200,1,53298,1
2,31290,30710,31750,55294,2443,-4180,369,-1194,676,754,-300,153,445,-205,1,0,36,53,240,1,53298,1
2,31304,30402,31747,55295,2448,-4153,229,-1211,650,762,-103,150,444,-204,1,0,36,53,280,1,53298,1
2,31350,30595,31747,55296,2451,-4217,367,-1267,1106,1017,-294,157,447,-207,1,0,36,53,320,1,53298,1
2,31328,30513,31768,55297,2454,-3963,519,-1181,1565,979,361,161,455,-215,1,0,36,53,360,1,53298,1
2,31256,30589,31739,55298,2456,-4523,-352,-1370,960,814,86,157,455,-217,1,0,36,53,400,1,53298,1
2,31324,30728,31769,55299,2458,-4196,525,-1419,1557,940,147,150,448,-232,1,0,36,53,440,1,53298,1
2,31249,30725,31735,55300,2460,-3757,411,-797,3466,887,1067,147,445,-227,1,0,36,53,480,1,53298,1
2,31229,30719,31727,55301,2462,-4878,-363,-1313,3058,615,-411,142,446,-224,1,0,36,53,520,1,53298,1
2,31198,30685,31696,55302,2463,-3886,680,-1807,211,503,-116,148,450,-228,1,0,36,53,560,1,53298,1
2,31241,30686,31723,55303,2464,-3987,-8,-1098,-106,573,309,152,444,-220,1,0,36,53,600,1,53298,1
2,31311,30726,31796,55304,2466,-4627,-269,-1318,-673,429,-257,145,445,-227,1,0,36,53,640,1,53298,1
2,31275,30720,31770,55305,2468,-4049,474,-1577,-385,274,262,149,445,-221,1,0,36,53,680,1,53298,1
2,31298,30722,31780,55306,2469,-4136,-127,-1079,1098,351,312,158,450,-234,1,0,36,53,720,1,53298,1
2,31293,30713,31784,55307,2470,-4580,-222,-1475,348,111,-178,153,447,-235,1,0,36,53,760,1,53298,1
2,31276,30725,31782,55308,2470,-4119,405,-1482,184,366,-201,151,443,-227,1,0,36,53,800,1,53298,1
2,31258,30413,31770,55309,2471,-4003,332,-1500,-311,126,233,155,451,-229,1,0,36,53,840,1,53298,1
2,31230,29968,31741,55310,2472,-4150,338,-1492,512,253,336,145,447,-231,1,0,36,53,880,1,53298,1
2,31178,30607,31708,55311,2473,-4285,70,-1420,57,287,-20,154,444,-236,1,0,36,53,920,1,53298,1
2,31145,30087,31662,55312,2473,-4150,161,-1457,399,288,-94,144,448,-234,1,0,36,53,960,1,53298,1
1,31093,30671,31627,55313,1882,-4087,176,-1381,-110,115,111,144,440,-228,1,0,36,54,0,0,53298,1
2,31090,30667,31634,55314,1884,-4299,-64,-1323,-262,74,207,145,441,-219,1,0,36,54,40,0,53298,1
2,31128,30674,31655,55315,1885,-4520,-42,-1487,267,-57,-178,152,444,-230,1,0,36,54,80,0,53298,1
2,31084,32058,31620,55316,1887,-4127,206,-1373,152,88,-213,152,450,-226,1,0,36,54,120,0,53298,1
2,31132,30607,31664,55317,1888,-4041,282,-1517,218,157,-8,153,455,-229,1,0,36,54,160,0,53298,1
2,31129,30574,31670,55318,1889,-4069,275,-1560,364,198,39,149,445,-231,1,0,36,54,200,0,53298,1
2,31128,30374,31669,55319,1890,-4192,195,-1455,264,86,-14,153,443,-231,1,0,36,54,240,0,53298,1
2,31122,30594,31665,55320,1891,-4251,45,-1373,-106,-4,32,153,447,-233,1,0,36,54,280,0,53298,1
2,31114,30663,31658,55321,1891,-4316,40,-1476,-32,-62,-15,150,448,-232,1,0,36,54,320,0,53298,1
2,31122,30680,31667,55322,1892,-4169,146,-1455,105,-26,-20,149,445,-241,1,0,36,54,360,0,53298,1
2,31127,30682,31670,55323,1892,-4115,193,-1493,-66,-8,52,156,446,-234,1,0,36,54,400,0,53298,1
2,31129,30679,31673,55324,1893,-4162,185,-1485,-192,-40,69,150,444,-238,1,0,36,54,440,0,53298,1
2,31137,30654,31680,55325,1894,-4220,98,-1424,-261,-158,45,152,444,-222,1,0,36,54,480,0,53298,1
2,31135,30565,31686,55326,1894,-4237,61,-1422,-308,-425,209,145,445,-237,1,0,36,54,520,0,53298,1
2,31146,30565,31691,55327,1895,-4386,-40,-1354,-606,-470,-123,151,447,-231,1,0,36,54,560,0,53298,1
2,31146,30559,31697,55328,1896,-4364,-1,-1427,-167,-467,-461,150,446,-232,1,0,36,54,600,0,53298,1
2,31150,30554,31701,55329,1897,-3965,304,-1488,327,-298,-135,153,439,-237,1,0,36,54,640,0,53298,1
2,31169,30550,31700,55330,1897,-3921,475,-1417,-113,-149,346,154,446,-232,1,0,36,54,680,0,53298,1
2,31170,30540,31705,55331,1898,-4236,174,-1448,-249,-233,261,151,445,-229,1,0,36,54,720,0,53298,1
2,31179,30558,31715,55332,1900,-4343,14,-1409,-567,-380,-52,153,445,-241,1,0,36,54,760,0,53298,1
2,31199,30618,31716,55333,1902,-4256,27,-1396,-646,-456,-48,159,445,-241,1,0,36,54,800,0,53298,1
2,31217,30541,31727,55334,1904,-4265,96,-1359,-635,-424,172,152,446,-226,1,0,36,54,840,0,53298,1
2,31220,30569,31733,55335,1905,-4259,96,-1535,-174,-400,63,147,443,-225,1,0,36,54,880,0,53298,1
2,31230,30530,31730,55336,1908,-4015,370,-1371,-220,-295,204,141,445,-221,1,0,36,54,920,0,53298,1
2,31231,30705,31737,55337,1908,-4085,225,-1333,-124,-254,341,149,451,-215,1,0,36,54,960,0,53298,1
1,31246,30714,31747,55338,1372,-4348,290,-1244,-27,-502,161,156,450,-222,1,0,36,55,0,1,53298,1
2,31252,30715,31755,55339,1376,-4297,107,-1345,-69,-681,65,152,444,-224,1,0,36,55,40,1,53298,1
2,31310,30725,31796,55340,1381,-4359,23,-1332,-382,-880,-6,154,454,-224,1,0,36,55,80,1,53298,1
2,31225,30656,31731,55341,1386,-4244,193,-1420,-990,-992,116,156,456,-220,1,0,36,55,120,1,53298,1
2,31264,30667,31778,55342,1392,-4119,373,-1383,-1265,-932,415,153,453,-219,1,0,36,55,160,1,53298,1
2,31278,30627,31779,55343,1399,-4067,344,-1211,-1626,-929,683,148,456,-228,1,0,36,55,200,1,53298,1
2,31313,30693,31783,55344,1407,-4335,206,-1216,-2124,-1085,580,150,446,-224,1,0,36,55,240,1,53298,1
2,31304,30728,31790,55345,1416,-4293,277,-1197,-1954,-1108,461,155,455,-221,1,0,36,55,280,1,53298,1
2,31335,30724,31780,55346,1426,-4208,319,-1152,-1266,-937,508,149,453,-223,1,0,36,55,320,1,53298,1
2,31363,30739,31784,55347,1436,-4195,366,-1188,-694,-649,368,148,452,-206,1,0,36,55,360,1,53298,1
2,31372,30741,31787,55348,1447,-4195,436,-1149,-579,-343,122,147,453,-215,1,0,36,55,400,1,53298,1
2,31364,30741,31790,55349,1459,-4251,361,-1179,-366,-64,19,158,444,-204,1,0,36,55,440,1,53298,1
2,31364,30746,31788,55350,1469,-4209,319,-1134,64,86,-15,146,454,-224,1,0,36,55,480,1,53298,1
2,31352,30749,31790,55351,1479,-4229,357,-1122,131,118,-57,155,453,-211,1,0,36,55,520,1,53298,1
2,31355,30746,31784,55352,1489,-4239,356,-1123,320,115,-51,145,445,-215,1,0,36,55,560,1,53298,1
2,31355,30749,31790,55353,1500,-4249,306,-1165,572,103,-9,153,449,-211,1,0,36,55,600,1,53298,1
2,31353,30748,31789,55354,1510,-4198,340,-1136,846,237,-137,151,453,-203,1,0,36,55,640,1,53298,1
2,31346,30744,31785,55355,1519,-4211,376,-1146,875,331,-218,149,443,-211,1,0,36,55,680,1,53298,1
2,31342,30741,31780,55356,1527,-4280,323,-1240,644,345,-268,145,443,-215,1,0,36,55,720,1,53298,1
2,31323,30737,31766,55357,1535,-4271,281,-1258,652,511,-446,155,447,-221,1,0,36,55,760,1,53298,1
2,31293,30732,31750,55358,1541,-4218,477,-1256,814,849,-711,152,446,-214,1,0,36,55,800,1,53298,1
2,31274,30722,31741,55359,1545,-4100,442,-1051,360,1144,-382,156,446,-212,1,0,36,55,840,1,53298,1
2,31315,30726,31762,55360,1548,-4173,271,-1609,704,1468,-251,154,456,-218,1,0,36,55,880,1,53298,1
2,31255,30720,31811,55361,1549,-4013,750,-1782,1495,2088,-467,153,445,-221,1,0,36,55,920,1,53298,1
2,31283,30492,31762,55362,1549,-3855,612,-773,1029,1614,803,155,445,-223,1,0,36,55,960,1,53298,1
1,31238,30717,31784,55363,863,-4598,-234,-1329,-1197,1062,71,147,449,-233,1,0,36,56,0,0,53298,1
2,31250,30584,31798,55364,864,-4714,232,-1122,-663,630,-668,149,453,-211,1,0,36,56,40,0,53298,1
2,31200,30705,31766,55365,865,-4199,10,-1445,353,143,133,155,447,-229,1,0,36,56,80,0,53298,1
2,31216,30670,31776,55366,866,-4316,455,-1452,117,113,-124,155,435,-223,1,0,36,56,120,0,53298,1
2,31253,30717,31800,55367,867,-3947,427,-1543,22,389,-36,153,451,-221,1,0,36,56,160,0,53298,1
2,31294,30472,31828,55368,868,-4120,249,-1347,1076,378,308,157,451,-231,1,0,36,56,200,0,53298,1
2,31264,30048,31800,55369,870,-4129,306,-1408,518,439,189,153,443,-231,1,0,36,56,240,0,53298,1
2,31252,30727,31795,55370,871,-4290,236,-1307,821,352,48,148,446,-230,1,0,36,56,280,0,53298,1
2,31227,30018,31765,55371,871,-4138,-29,-1556,-30,230,66,153,449,-231,1,0,36,56,320,0,53298,1
2,31232,30006,31768,55372,872,-4298,-34,-1358,115,306,214,150,444,-238,1,0,36,56,360,0,53298,1
2,31280,30730,31809,55373,874,-4372,179,-1408,561,53,10,156,450,-230,1,0,36,56,400,0,53298,1
2,31256,30639,31781,55374,874,-4258,285,-1464,366,75,1,147,451,-223,1,0,36,56,440,0,53298,1
2,31212,29961,31749,55375,875,-4057,326,-1513,356,128,109,153,447,-233,1,0,36,56,480,0,53298,1
2,31110,30458,31663,55376,877,-4063,303,-1458,563,191,57,153,443,-241,1,0,36,56,520,0,53298,1
2,31083,30365,31637,55377,878,-4109,164,-1415,340,187,-37,153,441,-231,1,0,36,56,560,0,53298,1
2,31068,30230,31619,55378,879,-4183,94,-1407,466,122,30,149,441,-231,1,0,36,56,600,0,53298,1
2,31057,30448,31617,55379,881,-4281,127,-1485,489,37,-40,150,440,-242,1,0,36,56,640,0,53298,1
2,31058,30554,31619,55380,882,-4178,176,-1508,154,101,-52,147,441,-233,1,0,36,56,680,0,53298,1
2,31062,30578,31622,55381,884,-4188,161,-1448,192,-17,-71,152,444,-232,1,0,36,56,720,0,53298,1
2,31065,30534,31625,55382,886,-4165,211,-1495,112,-52,-75,149,443,-229,1,0,36,56,760,0,53298,1
2,31076,30498,31634,55383,888,-4154,218,-1488,124,-5,25,148,450,-238,1,0,36,56,800,0,53298,1
2,31155,29917,31681,55384,889,-4136,185,-1488,98,-9,-39,151,451,-235,1,0,36,56,840,0,53298,1
2,31258,30625,31790,55385,890,-4138,185,-1463,84,-40,-42,154,450,-236,1,0,36,56,880,0,53298,1
2,31250,30576,31786,55386,891,-4213,188,-1455,309,-79,-15,151,441,-233,1,0,36,56,920,0,53298,1
2,31243,30440,31784,55387,891,-4169,112,-1480,-94,-35,-28,147,447,-233,1,0,36,56,960,0,53298,1
1,31234,30417,31777,55388,351,-4233,51,-1324,-427,-148,43,158,452,-228,1,0,36,57,0,0,53298,1
2,31192,30367,31749,55389,354,-4619,-183,-1330,-1376,-614,243,147,443,-233,1,0,36,57,40,0,53298,1
2,31181,30303,31752,55390,356,-4912,-462,-1166,-1062,-1079,-156,151,439,-227,1,0,36,57,80,0,53298,1
2,31234,30226,31772,55391,359,-3998,316,-1610,-458,-1574,-327,151,451,-229,1,0,36,57,120,0,53298,1
2,31318,30340,31800,55392,364,-3815,433,-1400,-1412,-1337,-71,153,447,-227,1,0,36,57,160,0,53298,1
2,31274,30125,31803,55393,369,-3726,620,-1646,-1333,-1459,-162,151,439,-211,1,0,36,57,200,0,53298,1
2,31258,30557,31767,55394,375,-4097,516,-1398,-1269,-1187,199,157,449,-223,1,0,36,57,240,0,53298,1
2,31255,30575,31768,55395,382,-4246,332,-1301,-1202,-1040,308,160,448,-222,1,0,36,57,280,0,53298,1
2,31269,30719,31769,55396,390,-4375,329,-1241,-793,-999,244,154,454,-220,1,0,36,57,320,0,53298,1
2,31393,30056,31849,55397,399,-4143,456,-1258,-267,-657,43,145,455,-221,1,0,36,57,360,0,53298,1
2,31304,30665,31803,55398,408,-4133,230,-1220,190,-235,192,156,450,-220,1,0,36,57,400,0,53298,1
2,31344,30724,31820,55399,419,-4184,221,-1178,388,-171,341,151,445,-209,1,0,36,57,440,0,53298,1
2,31316,30450,31774,55400,429,-4242,273,-1371,31,-256,329,146,442,-214,1,0,36,57,480,0,53298,1
2,31328,30599,31806,55401,440,-4227,333,-1260,-480,-234,240,143,453,-219,1,0,36,57,520,0,53298,1
2,31305,30661,31788,55402,451,-4217,328,-1199,-650,-277,153,140,456,-214,1,0,36,57,560,0,53298,1
2,31314,30696,31792,55403,462,-4127,348,-1184,-269,-167,45,151,453,-213,1,0,36,57,600,0,53298,1
2,31309,30670,31785,55404,474,-4239,247,-1180,-159,-12,57,145,455,-221,1,0,36,57,640,0,53298,1
2,31299,30684,31787,55405,485,-4244,349,-1213,150,83,-35,149,447,-215,1,0,36,57,680,0,53298,1
2,31297,30724,31784,55406,495,-4215,257,-1185,236,144,-42,149,455,-215,1,0,36,57,720,0,53298,1
2,31297,30728,31784,55407,505,-4261,239,-1218,44,91,18,149,447,-213,1,0,36,57,760,0,53298,1
2,31293,30712,31777,55408,514,-4224,346,-1230,64,89,-65,155,455,-219,1,0,36,57,800,0,53298,1
2,31285,30704,31773,55409,522,-4235,295,-1227,187,168,-99,151,451,-209,1,0,36,57,840,0,53298,1
2,31278,30689,31764,55410,530,-4258,329,-1243,189,231,-129,156,452,-218,1,0,36,57,880,0,53298,1
2,31254,30712,31752,55411,537,-4098,474,-1272,305,501,-306,149,451,-217,1,0,36,57,920,0,53298,1
2,31225,30711,31744,55412,537,-4100,218,-1112,145,724,-123,152,448,-218,1,0,36,57,960,0,53298,1
1,31279,30713,31776,55413,0,-4279,138,-1428,-391,726,47,154,454,-212,1,0,36,58,0,1,53298,1
2,31207,30697,31730,55414,39848,-4027,598,-1179,284,897,-430,155,453,-209,1,0,36,58,40,1,53298,1
2,31230,30707,31751,55415,39851,-4192,332,-1381,-216,965,-87,156,442,-220,1,0,36,58,80,1,53298,1
2,31175,30692,31705,55416,39853,-4082,296,-1366,109,921,-100,160,444,-230,1,0,36,58,120,1,53298,1
2,31186,30705,31731,55417,39853,-4098,182,-1203,957,916,-107,157,441,-221,1,0,36,58,160,1,53298,1
2,31235,30720,31783,55418,39855,-4411,17,-1405,1640,631,406,155,445,-215,1,0,36,58,200,1,53298,1
2,31228,30719,31783,55419,39855,-4388,147,-1452,358,843,47,157,447,-223,1,0,36,58,240,1,53298,1
2,31215,29944,31758,55420,39857,-4142,201,-1354,692,674,-229,146,442,-230,1,0,36,58,280,1,53298,1
2,31147,30445,31720,55421,39858,-4242,144,-1224,1188,549,31,150,450,-230,1,0,36,58,320,1,53298,1
2,31186,30454,31735,55422,39860,-4294,49,-1526,261,401,251,146,450,-234,1,0,36,58,360,1,53298,1
2,31186,30470,31747,55423,39860,-4270,269,-1564,-38,343,-74,151,449,-217,1,0,36,58,400,1,53298,1
2,31122,30673,31694,55424,39861,-4000,323,-1465,652,406,-250,158,452,-228,1,0,36,58,440,1,53298,1
2,31113,30687,31686,55425,39862,-4047,276,-1366,913,581,-13,153,451,-233,1,0,36,58,480,1,53298,1
2,31107,30662,31682,55426,39863,-4213,104,-1285,-227,419,-22,143,451,-227,1,0,36,58,520,1,53298,1
2,31109,30579,31681,55427,39864,-4304,77,-1435,-372,61,-150,151,449,-235,1,0,36,58,560,1,53298,1
2,31108,30407,31682,55428,39865,-4338,-24,-1500,-492,-35,-83,155,453,-237,1,0,36,58,600,1,53298,1
2,31115,30316,31683,55429,39865,-4256,118,-1515,132,-23,93,154,448,-228,1,0,36,58,640,1,53298,1
2,31137,30508,31695,55430,39867,-4109,188,-1460,186,11,183,146,448,-240,1,0,36,58,680,1,53298,1
2,31162,30540,31718,55431,39867,-4156,212,-1467,-113,-15,176,160,450,-232,1,0,36,58,720,1,53298,1
2,31172,30637,31725,55432,39868,-4180,256,-1451,11,-49,75,147,447,-235,1,0,36,58,760,1,53298,1
2,31181,30627,31736,55433,39868,-4202,243,-1456,56,-55,42,155,453,-233,1,0,36,58,800,1,53298,1
2,31207,30638,31757,55434,39869,-4173,194,-1479,56,-114,-44,156,454,-242,1,0,36,58,840,1,53298,1
2,31204,30534,31755,55435,39869,-4177,134,-1466,49,-14,-24,151,451,-239,1,0,36,58,880,1,53298,1
2,31211,30545,31761,55436,39869,-4177,194,-1469,57,6,20,150,446,-234,1,0,36,58,920,1,53298,1
2,31212,30641,31770,55437,39870,-4204,203,-1465,-12,-14,17,149,443,-225,1,0,36,58,960,1,53298,1
1,31207,30599,31767,55438,0,-4187,173,-1454,-40,-57,6,149,441,-235,1,0,36,59,0,0,53298,1
2,31211,30609,31771,55439,39334,-4245,198,-1378,93,-118,28,155,447,-233,1,0,36,59,40,0,53298,1
2,31195,30624,31762,55440,39335,-4290,159,-1368,15,-320,99,145,447,-235,1,0,36,59,80,0,53298,1
2,31196,30584,31760,55441,39335,-4292,135,-1347,-88,-644,206,154,454,-240,1,0,36,59,120,0,53298,1
2,31189,30531,31757,55442,39336,-4258,-568,-1183,-681,-1190,381,147,453,-225,1,0,36,59,160,0,53298,1
2,31215,30558,31777,55443,39338,-4699,-249,-1737,-843,-626,107,143,441,-227,1,0,36,59,200,0,53298,1
2,31220,30545,31783,55444,39339,-4131,137,-1248,789,-896,234,144,448,-230,1,0,36,59,240,0,53298,1
2,31284,30586,31807,55445,39342,-4072,281,-1324,-935,-613,151,148,444,-236,1,0,36,59,280,0,53298,1
2,31331,30402,31830,55446,39345,-3928,673,-1470,-212,-780,-16,152,450,-228,1,0,36,59,320,0,53298,1
2,31312,29947,31839,55447,39349,-4061,541,-1493,-103,-733,194,156,442,-228,1,0,36,59,360,0,53298,1
2,31203,30533,31725,55448,39355,-4251,345,-1230,-46,-671,154,146,450,-226,1,0,36,59,400,0,53298,1
2,31338,30724,31800,55449,39361,-4243,233,-1309,-197,-728,-88,145,447,-221,1,0,36,59,440,0,53298,1
2,31231,30687,31750,55450,39367,-4236,219,-1237,-431,-961,-82,154,450,-228,1,0,36,59,480,0,53298,1
2,31348,30526,31777,55451,39375,-4072,385,-1346,-1049,-1069,-61,144,452,-218,1,0,36,59,520,0,53298,1
2,31289,30706,31791,55452,39384,-4154,349,-1310,-1343,-940,155,151,449,-221,1,0,36,59,560,0,53298,1
2,31299,30731,31804,55453,39393,-4208,292,-1240,-1357,-722,306,157,455,-225,1,0,36,59,600,0,53298,1
2,31292,30714,31807,55454,39404,-4283,347,-1232,-904,-517,303,151,453,-215,1,0,36,59,640,0,53298,1
2,31288,30720,31782,55455,39414,-4275,361,-1301,-629,-294,166,156,448,-214,1,0,36,59,680,0,53298,1
2,31282,30700,31775,55456,39424,-4181,358,-1086,-160,23,85,161,451,-203,1,0,36,59,720,0,53298,1
2,31265,30701,31768,55457,39433,-4178,257,-1129,142,37,162,156,446,-212,1,0,36,59,760,0,53298,1
2,31261,30712,31757,55458,39443,-4210,329,-1234,413,66,108,153,451,-213,1,0,36,59,800,0,53298,1
2,31255,30720,31761,55459,39453,-4256,303,-1231,254,173,-28,156,456,-216,1,0,36,59,840,0,53298,1
2,31259,30719,31763,55460,39462,-4263,243,-1206,108,126,-11,148,450,-216,1,0,36,59,880,0,53298,1
2,31256,30719,31762,55461,39471,-4193,313,-1203,232,99,-61,140,446,-214,1,0,36,59,920,0,53298,1
2,31250,30715,31756,55462,39480,-4205,331,-1203,206,156,-102,146,450,-216,1,0,36,59,960,0,53298,1
1,31248,30715,31753,55463,0,-4239,368,-1344,203,233,-75,149,447,-211,1,0,37,0,0,1,53298,1
2,31231,30709,31742,55464,38831,-4035,640,-1378,279,685,-280,147,449,-211,1,0,37,0,40,1,53298,1
2,31220,30703,31729,55465,38836,-4236,126,-1330,-176,1036,111,149,457,-215,1,0,37,0,80,1,53298,1
2,31193,30701,31725,55466,38841,-4243,364,-1287,119,1087,158,146,448,-218,1,0,37,0,120,1,53298,1
2,31131,30689,31715,55467,38844,-3947,593,-1044,802,1172,-330,156,444,-218,1,0,37,0,160,1,53298,1
2,31174,30699,31731,55468,38846,-4595,-347,-1410,203,728,516,156,440,-222,1,0,37,0,200,1,53298,1
2,31194,30703,31717,55469,38849,-4174,611,-1571,-73,482,-243,148,456,-228,1,0,37,0,240,1,53298,1
2,31226,30711,31775,55470,38850,-3870,750,-1518,305,889,-715,149,455,-217,1,0,37,0,280,1,53298,1
2,31249,30727,31794,55471,38851,-3995,-234,-803,1932,509,263,155,443,-227,1,0,37,0,320,1,53298,1
2,31238,30721,31783,55472,38853,-4695,-306,-1537,112,695,586,156,450,-228,1,0,37,0,360,1,53298,1
2,31216,30589,31774,55473,38854,-4262,509,-1588,498,357,-281,145,445,-237,1,0,37,0,400,1,53298,1
2,31210,30705,31755,55474,38856,-4149,-91,-976,561,509,-249,155,451,-227,1,0,37,0,440,1,53298,1
2,31213,30660,31757,55475,38857,-4478,240,-1572,328,136,249,148,446,-232,1,0,37,0,480,1,53298,1
2,31205,30700,31748,55476,38857,-4154,264,-1444,-559,198,-11,144,442,-232,1,0,37,0,520,1,53298,1
2,31192,30682,31743,55477,38858,-4141,193,-1629,-104,338,-90,155,445,-233,1,0,37,0,560,1,53298,1
2,31146,30613,31709,55478,38858,-4047,433,-1372,323,595,-63,157,449,-233,1,0,37,0,600,1,53298,1
2,31130,30565,31682,55479,38859,-4095,351,-1377,280,369,67,145,447,-229,1,0,37,0,640,1,53298,1
2,31140,30687,31693,55480,38859,-4182,240,-1368,-346,215,94,151,449,-227,1,0,37,0,680,1,53298,1
2,31108,30676,31676,55481,38860,-4264,136,-1386,-307,123,11,159,445,-235,1,0,37,0,720,1,53298,1
2,31099,30617,31655,55482,38860,-4285,126,-1397,271,35,-1,157,445,-237,1,0,37,0,760,1,53298,1
2,31091,29954,31653,55483,38862,-4169,115,-1482,-94,28,45,152,452,-236,1,0,37,0,800,1,53298,1
2,31095,30475,31658,55484,38862,-4136,228,-1451,286,132,121,144,440,-238,1,0,37,0,840,1,53298,1
2,31090,30539,31654,55485,38864,-4124,329,-1461,557,171,51,158,448,-236,1,0,37,0,880,1,53298,1
2,31059,30555,31628,55486,38865,-4081,248,-1485,654,117,125,148,444,-238,1,0,37,0,920,1,53298,1
2,31046,30613,31619,55487,38867,-4209,252,-1484,817,184,16,155,447,-253,1,0,37,0,960,1,53298,1
1,31059,30631,31628,55488,0,-4242,180,-1442,438,247,42,151,451,-231,1,0,37,1,0,1,53298,1
2,31090,30647,31654,55489,38314,-4170,162,-1482,604,131,74,148,444,-242,1,0,37,1,40,1,53298,1
2,31090,30620,31657,55490,38315,-4185,136,-1472,247,138,14,153,441,-235,1,0,37,1,80,1,53298,1
2,31091,30591,31661,55491,38316,-4132,180,-1525,-104,20,-80,147,447,-243,1,0,37,1,120,1,53298,1
2,31090,30555,31663,55492,38316,-4141,261,-1500,166,-121,-141,152,446,-240,1,0,37,1,160,1,53298,1
2,31084,30578,31671,55493,38316,-4157,222,-1487,290,-132,-23,148,454,-240,1,0,37,1,200,1,53298,1
2,31090,30550,31675,55494,38316,-4138,168,-1508,-381,-107,-62,147,451,-237,1,0,37,1,240,1,53298,1
2,31102,30601,31680,55495,38316,-4164,256,-1457,-136,-90,-66,154,448,-236,1,0,37,1,280,1,53298,1
2,31097,30625,31684,55496,38317,-4166,213,-1456,79,-102,-5,148,446,-238,1,0,37,1,320,1,53298,1
2,31103,30619,31691,55497,38318,-4145,160,-1492,-277,-93,21,143,447,-237,1,0,37,1,360,1,53298,1
2,31095,30635,31690,55498,38320,-4280,113,-1385,-76,-105,-87,145,445,-229,1,0,37,1,400,1,53298,1
2,31090,30633,31692,55499,38321,-4381,-96,-1368,-792,-418,-231,145,447,-231,1,0,37,1,440,1,53298,1
2,31080,30579,31691,55500,38322,-4395,-311,-1202,-1154,-1065,-218,143,443,-225,1,0,37,1,480,1,53298,1
2,31024,30536,31651,55501,38323,-4657,224,-1670,-2736,-1011,-637,150,448,-226,1,0,37,1,520,1,53298,1
2,31053,30545,31640,55502,38324,-3910,545,-1467,-943,-1234,60,151,447,-227,1,0,37,1,560,1,53298,1
2,31105,30594,31651,55503,38327,-4035,181,-1370,-1747,-933,-32,150,450,-226,1,0,37,1,600,1,53298,1
2,31123,30490,31678,55504,38331,-3813,546,-1421,-129,-964,-309,152,448,-232,1,0,37,1,640,1,53298,1
2,31190,30509,31764,55505,38336,-3896,547,-1565,-104,-653,-123,151,449,-227,1,0,37,1,680,1,53298,1
2,31230,30528,31782,55506,38342,-4197,343,-1369,-130,-188,232,157,453,-221,1,0,37,1,720,1,53298,1
2,31282,30558,31804,55507,38347,-4584,229,-1071,-429,-359,188,154,446,-226,1,0,37,1,760,1,53298,1
2,31192,30543,31743,55508,38354,-4280,209,-1315,-1015,-812,-54,147,465,-215,1,0,37,1,800,1,53298,1
2,31199,30672,31770,55509,38361,-4085,316,-1274,-296,-815,40,157,447,-229,1,0,37,1,840,1,53298,1
2,31270,30659,31783,55510,38369,-4145,347,-1304,-512,-761,221,152,434,-214,1,0,37,1,880,1,53298,1
2,31296,30684,31792,55511,38380,-4232,288,-1311,-909,-705,285,152,450,-216,1,0,37,1,920,1,53298,1
2,31284,30722,31773,55512,38390,-4239,306,-1184,-1254,-719,275,156,448,-222,1,0,37,1,960,1,53298,1
1,31305,30691,31784,55513,0,-4249,396,-1172,-1613,-735,109,150,446,-212,1,0,37,2,0,0,53298,1
2,31319,30730,31791,55514,37816,-4229,313,-1178,-1599,-663,-39,144,456,-220,1,0,37,2,40,0,53298,1
2,31328,30731,31777,55515,37828,-4178,343,-1233,-1340,-468,-124,148,452,-210,1,0,37,2,80,0,53298,1
2,31317,30731,31775,55516,37839,-4159,305,-1151,-831,-103,-85,157,455,-215,1,0,37,2,120,0,53298,1
2,31323,30728,31775,55517,37849,-4304,307,-1136,-214,-5,62,162,450,-210,1,0,37,2,160,0,53298,1
2,31322,30730,31780,55518,37860,-4248,298,-1146,307,29,63,150,450,-216,1,0,37,2,200,0,53298,1
2,31322,30730,31775,55519,37871,-4220,275,-1159,387,107,62,153,445,-213,1,0,37,2,240,0,53298,1
2,31318,30728,31775,55520,37881,-4252,341,-1163,731,191,43,155,447,-203,1,0,37,2,280,0,53298,1
2,31305,30725,31769,55521,37890,-4187,312,-1193,1236,262,31,155,455,-213,1,0,37,2,320,0,53298,1
2,31299,30725,31743,55522,37899,-4212,323,-1201,1036,326,-18,148,452,-216,1,0,37,2,360,0,53298,1
2,31291,30719,31758,55523,37907,-4248,346,-1253,432,463,-186,153,451,-205,1,0,37,2,400,0,53298,1
2,31270,30708,31744,55524,37914,-4193,319,-1217,694,577,-221,151,453,-207,1,0,37,2,440,0,53298,1
2,31242,30710,31699,55525,37920,-4150,498,-1317,1267,703,-241,153,447,-205,1,0,37,2,480,0,53298,1
2,31178,30702,31731,55526,37924,-4085,544,-1499,1148,1084,-261,156,442,-218,1,0,37,2,520,0,53298,1
2,31289,30714,31781,55527,37928,-4223,165,-1216,619,1107,51,148,450,-208,1,0,37,2,560,0,53298,1
2,31172,30684,31713,55528,37931,-4159,526,-1498,-81,1105,-76,152,454,-218,1,0,37,2,600,0,53298,1
2,31161,30672,31725,55529,37933,-4013,157,-980,564,804,-200,158,444,-222,1,0,37,2,640,0,53298,1
2,31275,30673,31817,55530,37936,-4622,-397,-1339,-186,593,557,154,448,-226,1,0,37,2,680,0,53298,1
2,31250,30675,31807,55531,37938,-4175,388,-1542,85,308,-247,163,443,-227,1,0,37,2,720,0,53298,1
2,31249,30721,31810,55532,37939,-4104,256,-1173,846,135,-96,161,441,-229,1,0,37,2,760,0,53298,1
2,31240,30706,31800,55533,37941,-4408,8,-1370,343,277,239,155,447,-213,1,0,37,2,800,0,53298,1
2,31237,30696,31800,55534,37942,-4111,370,-1409,748,170,6,162,450,-216,1,0,37,2,840,0,53298,1
2,31232,30721,31764,55535,37943,-4034,232,-1329,499,342,-6,153,449,-223,1,0,37,2,880,0,53298,1
2,31223,30715,31794,55536,37944,-4231,252,-1427,328,323,209,145,449,-227,1,0,37,2,920,0,53298,1
2,31223,30436,31793,55537,37945,-4234,283,-1455,-62,359,114,153,453,-229,1,0,37,2,960,0,53298,1
1,31220,30713,31797,55538,0,-4093,231,-1418,288,414,-27,160,448,-234,1,0,37,3,0,0,53298,1
2,31207,30692,31781,55539,37296,-4106,239,-1335,1486,577,64,148,452,-236,1,0,37,3,40,0,53298,1
2,31106,31979,31694,55540,37298,-4275,252,-1347,2081,466,252,153,455,-233,1,0,37,3,80,0,53298,1
2,31129,30497,31735,55541,37300,-4314,52,-1470,487,264,8,154,446,-238,1,0,37,3,120,0,53298,1
2,31115,30666,31730,55542,37301,-4252,21,-1446,-102,159,-127,152,450,-232,1,0,37,3,160,0,53298,1
2,31107,30691,31728,55543,37303,-4221,107,-1408,-93,122,-104,156,448,-236,1,0,37,3,200,0,53298,1
2,31106,30667,31737,55544,37305,-4217,178,-1438,-166,31,-48,151,443,-233,1,0,37,3,240,0,53298,1
2,31109,30324,31737,55545,37306,-4155,191,-1487,-197,-40,35,148,450,-226,1,0,37,3,280,0,53298,1
2,31108,30341,31735,55546,37308,-4144,208,-1454,13,-68,53,152,444,-232,1,0,37,3,320,0,53298,1
2,31112,30276,31745,55547,37309,-4173,228,-1424,-173,-81,14,148,442,-238,1,0,37,3,360,0,53298,1
2,31118,30637,31751,55548,37311,-4182,210,-1436,-204,-55,-6,150,448,-230,1,0,37,3,400,0,53298,1
2,31114,30268,31740,55549,37312,-4165,178,-1424,-170,-15,5,144,454,-230,1,0,37,3,440,0,53298,1
2,31120,30427,31753,55550,37313,-4198,215,-1437,150,35,-36,151,443,-239,1,0,37,3,480,0,53298,1
2,31109,30336,31743,55551,37314,-4180,170,-1438,51,42,-5,159,443,-239,1,0,37,3,520,0,53298,1
2,31104,30373,31738,55552,37315,-4188,168,-1466,11,18,2,145,445,-229,1,0,37,3,560,0,53298,1
2,31109,30345,31735,55553,37316,-4163,193,-1459,-73,-3,-2,151,443,-235,1,0,37,3,600,0,53298,1
2,31106,30500,31743,55554,37317,-4171,198,-1439,24,-37,5,153,451,-235,1,0,37,3,640,0,53298,1
2,31102,30508,31749,55555,37317,-4195,175,-1461,-2,-44,15,148,442,-234,1,0,37,3,680,0,53298,1
2,31106,30458,31748,55556,37318,-4189,176,-1435,-118,-70,59,154,448,-232,1,0,37,3,720,0,53298,1
2,31106,30513,31750,55557,37319,-4247,226,-1348,-152,-113,84,146,452,-240,1,0,37,3,760,0,53298,1
2,31110,30569,31751,55558,37320,-4211,120,-1194,259,-442,283,148,442,-234,1,0,37,3,800,0,53298,1
2,31106,30585,31757,55559,37321,-4426,40,-1407,-313,-659,580,157,449,-235,1,0,37,3,840,0,53298,1
2,31093,30578,31751,55560,37321,-4247,127,-1410,-24,-723,152,152,450,-224,1,0,37,3,880,0,53298,1
2,31142,30588,31771,55561,37323,-4070,-36,-1448,-123,-805,61,146,452,-228,1,0,37,3,920,0,53298,1
2,31149,30610,31784,55562,37324,-4152,230,-1565,-340,-395,166,154,448,-228,1,0,37,3,960,0,53298,1
1,31160,30632,31787,55563,0,-4275,62,-1106,-445,-529,250,150,444,-232,1,0,37,4,0,0,53298,1
2,31210,30640,31794,55564,36789,-4655,119,-1422,-1481,-857,287,151,449,-217,1,0,37,4,40,0,53298,1
2,31262,30494,31828,55565,36791,-4008,322,-1106,-894,-1252,-177,149,445,-223,1,0,37,4,80,0,53298,1
2,31243,30259,31782,55566,36796,-4201,230,-1550,-169,-1369,70,148,452,-222,1,0,37,4,120,0,53298,1
2,31110,30622,31705,55567,36802,-3885,612,-1334,496,-1383,-162,145,455,-227,1,0,37,4,160,0,53298,1
2,31241,30646,31760,55568,36809,-4122,385,-1261,-696,-1163,131,152,440,-218,1,0,37,4,200,0,53298,1
2,31231,30722,31746,55569,36818,-4226,297,-1211,-1915,-1054,252,147,445,-221,1,0,37,4,240,0,53298,1
2,31279,30729,31754,55570,36830,-4239,403,-1234,-1851,-795,162,145,451,-207,1,0,37,4,280,0,53298,1
2,31289,30730,31768,55571,36841,-4212,352,-1272,-930,-350,239,148,460,-210,1,0,37,4,320,0,53298,1
2,31288,30728,31766,55572,36853,-4210,325,-1056,-398,96,275,153,451,-219,1,0,37,4,360,0,53298,1
2,31294,30728,31768,55573,36865,-4180,327,-1148,-130,75,223,158,454,-210,1,0,37,4,400,0,53298,1
2,31299,30730,31782,55574,36877,-4201,380,-1231,66,-11,176,150,458,-214,1,0,37,4,440,0,53298,1
2,31302,30710,31776,55575,36889,-4225,357,-1202,-322,29,28,144,454,-222,1,0,37,4,480,0,53298,1
2,31285,30612,31772,55576,36900,-4242,342,-1137,-182,13,-40,148,452,-206,1,0,37,4,520,0,53298,1
2,31282,30729,31768,55577,36910,-4210,259,-1158,13,-59,-1,148,454,-208,1,0,37,4,560,0,53298,1
2,31281,30731,31772,55578,36920,-4221,326,-1180,-45,-22,-17,150,460,-214,1,0,37,4,600,0,53298,1
2,31280,30729,31768,55579,36930,-4247,319,-1133,99,109,-75,148,448,-206,1,0,37,4,640,0,53298,1
2,31274,30728,31765,55580,36939,-4257,328,-1196,202,176,-36,148,450,-206,1,0,37,4,680,0,53298,1
2,31266,30721,31731,55581,36948,-4231,370,-1183,438,331,-100,153,451,-213,1,0,37,4,720,0,53298,1
2,31267,30720,31728,55582,36957,-4267,270,-1181,754,335,-35,155,453,-221,1,0,37,4,760,0,53298,1
2,31245,30719,31718,55583,36964,-4211,466,-1456,639,457,-204,156,448,-216,1,0,37,4,800,0,53298,1
2,31192,30702,31696,55584,36968,-3865,819,-1322,762,1027,-661,150,442,-216,1,0,37,4,840,0,53298,1
2,31190,30698,31736,55585,36972,-4168,109,-1439,-743,1153,-45,154,450,-218,1,0,37,4,880,0,53298,1
2,31276,30691,31760,55586,36975,-4052,659,-1480,-770,1456,-511,154,452,-214,1,0,37,4,920,0,53298,1
2,31280,30725,31805,55587,36977,-4158,-272,-664,805,932,-219,159,441,-227,1,0,37,4,960,0,53298,1
1,31230,30703,31756,55588,0,-4764,-619,-1264,-688,802,386,147,447,-221,1,0,37,5,0,0,53298,1
2,31170,30544,31748,55589,36279,-4189,586,-1611,288,438,-932,159,449,-219,1,0,37,5,40,0,53298,1
2,31140,30690,31731,55590,36280,-4064,325,-1066,1594,414,-577,152,454,-226,1,0,37,5,80,0,53298,1
2,31118,30694,31722,55591,36282,-4232,147,-1359,556,499,143,158,450,-222,1,0,37,5,120,0,53298,1
2,31118,30691,31731,55592,36283,-4084,463,-1527,296,483,-82,154,436,-222,1,0,37,5,160,0,53298,1
2,31226,30717,31817,55593,36284,-4049,287,-1399,377,583,106,145,449,-229,1,0,37,5,200,0,53298,1
2,31212,30215,31793,55594,36285,-4184,225,-1340,192,583,259,153,451,-229,1,0,37,5,240,0,53298,1
2,31177,30065,31772,55595,36286,-4319,128,-1430,-554,520,136,156,464,-240,1,0,37,5,280,0,53298,1
2,31183,30559,31765,55596,36287,-4303,74,-1432,-147,342,-57,158,442,-234,1,0,37,5,320,0,53298,1
2,31185,30721,31767,55597,36288,-4269,67,-1259,1064,261,-36,157,443,-229,1,0,37,5,360,0,53298,1
2,31185,30721,31775,55598,36289,-4287,65,-1335,472,177,-94,157,449,-231,1,0,37,5,400,0,53298,1
2,31171,30627,31767,55599,36291,-4223,164,-1478,48,124,-75,159,449,-227,1,0,37,5,440,0,53298,1
2,31183,30581,31780,55600,36293,-4153,203,-1439,103,103,18,153,447,-227,1,0,37,5,480,0,53298,1
2,31192,30312,31791,55601,36295,-4152,215,-1424,144,115,10,153,451,-233,1,0,37,5,520,0,53298,1
2,31192,30698,31794,55602,36297,-4157,214,-1427,282,107,15,156,442,-230,1,0,37,5,560,0,53298,1
2,31201,30613,31810,55603,36298,-4191,191,-1456,498,97,28,160,452,-238,1,0,37,5,600,0,53298,1
2,31199,30651,31826,55604,36299,-4197,178,-1415,739,110,21,147,437,-235,1,0,37,5,640,0,53298,1
2,31199,30590,31817,55605,36301,-4201,157,-1448,521,78,-4,151,447,-237,1,0,37,5,680,0,53298,1
2,31190,30652,31815,55606,36302,-4192,144,-1472,244,38,24,157,443,-231,1,0,37,5,720,0,53298,1
2,31102,30597,31718,55607,36304,-4180,179,-1461,36,5,38,156,454,-230,1,0,37,5,760,0,53298,1
2,31075,30609,31705,55608,36305,-4221,180,-1435,12,-94,54,155,435,-227,1,0,37,5,800,0,53298,1
2,31057,30640,31695,55609,36306,-4223,122,-1450,-292,-240,126,163,447,-231,1,0,37,5,840,0,53298,1
2,31060,30614,31689,55610,36307,-4194,159,-1450,-480,-272,102,156,440,-230,1,0,37,5,880,0,53298,1
2,31045,30615,31684,55611,36308,-4207,148,-1468,-564,-318,40,154,448,-236,1,0,37,5,920,0,53298,1
2,31037,30610,31686,55612,36309,-4148,200,-1441,-554,-213,-60,155,439,-227,1,0,37,5,960,0,53298,1
1,31036,30636,31692,55613,0,-4125,339,-1373,237,-107,-46,151,447,-233,1,0,37,6,0,0,53298,1
2,31036,30651,31693,55614,35770,-4182,121,-1249,50,-211,113,146,444,-236,1,0,37,6,40,0,53298,1
2,31038,30657,31693,55615,35772,-4495,-107,-1372,-530,-409,405,145,449,-235,1,0,37,6,80,0,53298,1
2,31032,30662,31699,55616,35775,-4432,90,-1407,-546,-276,-131,152,448,-230,1,0,37,6,120,0,53298,1
2,31230,30726,31877,55617,35777,-4196,266,-1429,544,-629,-179,149,451,-233,1,0,37,6,160,0,53298,1
2,31268,30737,31875,55618,35780,-4089,104,-1358,-956,-587,282,152,450,-232,1,0,37,6,200,0,53298,1
2,31293,30741,31893,55619,35783,-3983,225,-1577,-1925,-724,248,154,450,-228,1,0,37,6,240,0,53298,1
2,31339,30748,31906,55620,35786,-3966,358,-1376,-1139,-835,204,153,443,-223,1,0,37,6,280,0,53298,1
2,31352,30751,31912,55621,35790,-4211,549,-1290,-1066,-693,520,151,453,-227,1,0,37,6,320,0,53298,1
2,31383,30756,31926,55622,35794,-4267,330,-1194,-783,-703,630,156,450,-234,1,0,37,6,360,0,53298,1
2,31406,30721,31947,55623,35799,-4331,-32,-866,-106,-763,401,154,442,-210,1,0,37,6,400,0,53298,1
2,31345,30568,31933,55624,35805,-4398,209,-1183,-3,-745,84,145,443,-223,1,0,37,6,440,0,53298,1
2,31165,30645,31717,55625,35811,-4134,298,-1256,355,-859,-132,151,445,-221,1,0,37,6,480,0,53298,1
2,31151,30705,31718,55626,35819,-4150,167,-1274,-86,-803,80,151,445,-213,1,0,37,6,520,0,53298,1
2,31158,30686,31745,55627,35827,-4037,381,-1119,-335,-772,118,148,448,-222,1,0,37,6,560,0,53298,1
2,31218,30627,31755,55628,35837,-4145,450,-1225,-816,-764,203,157,449,-223,1,0,37,6,600,0,53298,1
2,31287,30725,31797,55629,35847,-4182,442,-1205,-1476,-689,49,155,453,-215,1,0,37,6,640,0,53298,1
2,31288,30706,31768,55630,35858,-4269,359,-1229,-1536,-469,-61,155,453,-217,1,0,37,6,680,0,53298,1
2,31289,30702,31769,55631,35869,-4224,326,-1081,-763,-348,7,157,443,-211,1,0,37,6,720,0,53298,1
2,31303,30668,31771,55632,35880,-4202,310,-1141,-360,-307,108,149,451,-209,1,0,37,6,760,0,53298,1
2,31309,30721,31775,55633,35892,-4215,426,-1207,-108,-195,89,155,441,-207,1,0,37,6,800,0,53298,1
2,31301,30726,31775,55634,35903,-4226,330,-1137,-46,38,52,156,450,-210,1,0,37,6,840,0,53298,1
2,31295,30732,31774,55635,35915,-4236,355,-1065,234,95,57,157,453,-213,1,0,37,6,880,0,53298,1
2,31292,30730,31768,55636,35926,-4222,360,-1163,417,145,-37,156,442,-214,1,0,37,6,920,0,53298,1
2,31287,30729,31768,55637,35936,-4235,315,-1160,596,254,-151,152,450,-208,1,0,37,6,960,0,53298,1
1,31286,30725,31768,55638,0,-4219,252,-1183,747,248,-44,148,444,-206,1,0,37,7,0,1,53298,1
2,31283,30723,31763,55639,35268,-4178,383,-1221,798,317,-113,153,453,-211,1,0,37,7,40,1,53298,1
2,31273,30719,31758,55640,35277,-4258,337,-1139,992,458,-168,158,454,-214,1,0,37,7,80,1,53298,1
2,31268,30714,31752,55641,35286,-4310,343,-1154,818,449,-167,158,450,-212,1,0,37,7,120,1,53298,1
2,31250,30710,31745,55642,35294,-4175,457,-1373,307,528,-375,156,452,-212,1,0,37,7,160,1,53298,1
2,31210,30704,31712,55643,35301,-4134,327,-1299,385,810,-423,149,445,-217,1,0,37,7,200,1,53298,1
2,31188,30685,31737,55644,35307,-4273,366,-1366,372,849,-107,154,448,-210,1,0,37,7,240,1,53298,1
2,31158,30687,31724,55645,35310,-3925,687,-1230,462,1164,-518,155,455,-219,1,0,37,7,280,1,53298,1
2,31151,30667,31706,55646,35313,-4212,-180,-1106,397,1115,-24,157,455,-215,1,0,37,7,320,1,53298,1
2,31240,30657,31769,55647,35316,-4527,114,-1278,975,852,75,151,441,-215,1,0,37,7,360,1,53298,1
2,31196,30671,31779,55648,35318,-4111,621,-1484,1318,832,-716,157,441,-223,1,0,37,7,400,1,53298,1
2,31183,30621,31752,55649,35320,-4151,-213,-1081,1472,642,-117,157,443,-223,1,0,37,7,440,1,53298,1
2,31166,30651,31760,55650,35323,-4527,-204,-1392,201,701,175,152,444,-222,1,0,37,7,480,1,53298,1
2,31139,30675,31748,55651,35325,-4123,379,-1552,-49,513,-217,161,445,-225,1,0,37,7,520,1,53298,1
2,31119,30576,31733,55652,35327,-4039,295,-1438,26,610,-50,154,444,-242,1,0,37,7,560,1,53298,1
2,31071,32684,31705,55653,35330,-4065,277,-1349,677,554,146,151,443,-233,1,0,37,7,600,1,53298,1
2,31093,30445,31693,55654,35332,-4243,138,-1456,99,381,146,160,450,-224,1,0,37,7,640,1,53298,1
2,31091,30700,31708,55655,35334,-4296,-72,-1431,785,176,45,158,442,-236,1,0,37,7,680,1,53298,1
2,31110,30700,31717,55656,35338,-4355,-13,-1299,2494,224,55,148,450,-234,1,0,37,7,720,1,53298,1
2,31114,30412,31735,55657,35340,-4325,93,-1391,2121,192,29,145,455,-225,1,0,37,7,760,1,53298,1
2,31133,30110,31738,55658,35342,-4144,122,-1543,412,169,-108,151,453,-233,1,0,37,7,800,1,53298,1
2,31132,30600,31750,55659,35345,-4125,151,-1474,-248,153,-114,150,444,-234,1,0,37,7,840,1,53298,1
2,31125,30582,31746,55660,35347,-4179,181,-1456,-171,93,-32,151,443,-231,1,0,37,7,880,1,53298,1
2,31118,30284,31748,55661,35350,-4204,116,-1510,-171,60,-1,149,451,-237,1,0,37,7,920,1,53298,1
2,31121,30517,31758,55662,35352,-4188,129,-1460,41,-19,-31,157,443,-235,1,0,37,7,960,1,53298,1
1,31103,30535,31749,55663,0,-4159,158,-1449,164,-59,-46,149,449,-237,1,0,37,8,0,0,53298,1
2,31120,30628,31765,55664,34752,-4187,160,-1454,71,-30,-37,156,450,-234,1,0,37,8,40,0,53298,1
2,31115,30613,31767,55665,34754,-4185,133,-1461,-93,-2,-9,153,443,-233,1,0,37,8,80,0,53298,1
2,31148,30520,31793,55666,34756,-4205,144,-1473,-92,-1,9,162,444,-236,1,0,37,8,120,0,53298,1
2,31180,30574,31815,55667,34758,-4166,146,-1470,14,-17,40,151,449,-235,1,0,37,8,160,0,53298,1
2,31185,30636,31814,55668,34760,-4179,152,-1483,-5,-16,7,159,453,-233,1,0,37,8,200,0,53298,1
2,31168,30691,31814,55669,34762,-4184,156,-1466,-24,-46,20,159,439,-231,1,0,37,8,240,0,53298,1
2,31190,30735,31846,55670,34764,-4171,142,-1486,-250,-106,15,154,446,-234,1,0,37,8,280,0,53298,1
2,31185,30734,31846,55671,34765,-4270,131,-1405,-121,-148,19,149,447,-229,1,0,37,8,320,0,53298,1
2,31196,30742,31857,55672,34767,-4218,95,-1393,-21,-269,109,157,455,-231,1,0,37,8,360,0,53298,1
2,31196,30738,31855,55673,34768,-4162,90,-1473,-511,-373,104,153,445,-241,1,0,37,8,400,0,53298,1
2,31212,30740,31880,55674,34769,-4263,58,-1372,-636,-410,211,151,453,-237,1,0,37,8,440,0,53298,1
2,31176,30728,31860,55675,34770,-4638,-43,-1529,-557,-613,592,158,456,-230,1,0,37,8,480,0,53298,1
2,31142,30717,31859,55676,34771,-4372,-21,-1157,-743,-613,-106,151,447,-231,1,0,37,8,520,0,53298,1
2,31271,30740,31876,55677,34774,-4077,-73,-1202,-355,-912,-23,153,447,-227,1,0,37,8,560,0,53298,1
2,31362,30758,31930,55678,34776,-4091,190,-1279,-1184,-626,87,158,448,-226,1,0,37,8,600,0,53298,1
2,31400,30747,31939,55679,34779,-3966,534,-1581,-594,-982,2,159,445,-233,1,0,37,8,640,0,53298,1
2,31421,30653,31960,55680,34783,-4081,474,-1427,-777,-800,78,155,449,-231,1,0,37,8,680,0,53298,1
2,31393,30431,31827,55681,34789,-4343,179,-1279,-1032,-828,44,158,452,-226,1,0,37,8,720,0,53298,1
2,31151,30141,31727,55682,34795,-4296,141,-1321,-1294,-1105,-3,153,445,-215,1,0,37,8,760,0,53298,1
2,31183,30660,31725,55683,34802,-4130,364,-1272,-1338,-1414,64,157,451,-227,1,0,37,8,800,0,53298,1
2,31176,30682,31730,55684,34811,-4098,437,-1317,-1762,-1400,355,159,455,-229,1,0,37,8,840,0,53298,1
2,31222,30701,31736,55685,34822,-4146,406,-1276,-1933,-1014,432,150,456,-212,1,0,37,8,880,0,53298,1
2,31269,30730,31746,55686,34833,-4232,311,-1140,-1686,-676,415,158,450,-206,1,0,37,8,920,0,53298,1
2,31305,30736,31776,55687,34844,-4244,356,-1194,-976,-539,299,153,455,-211,1,0,37,8,960,0,53298,1
1,31321,30732,31778,55688,0,-4214,391,-1103,-361,-313,51,161,449,-203,1,0,37,9,0,1,53298,1
2,31337,30654,31783,55689,34253,-4231,351,-1137,-63,-111,24,153,457,-213,1,0,37,9,40,1,53298,1
2,31315,30408,31774,55690,34264,-4189,297,-1150,87,68,-66,151,451,-213,1,0,37,9,80,1,53298,1
2,31310,30599,31768,55691,34274,-4217,301,-1085,104,168,-70,143,449,-217,1,0,37,9,120,1,53298,1
2,31308,30601,31768,55692,34284,-4247,333,-1131,43,131,-37,158,446,-204,1,0,37,9,160,1,53298,1
2,31294,30596,31731,55693,34293,-4256,340,-1140,185,190,-100,154,444,-210,1,0,37,9,200,1,53298,1
2,31265,30593,31746,55694,34301,-4217,328,-1194,499,246,-102,158,458,-208,1,0,37,9,240,1,53298,1
2,31234,30702,31717,55695,34308,-4012,542,-1162,728,591,-463,162,454,-212,1,0,37,9,280,1,53298,1
2,31190,30671,31701,55696,34314,-4257,79,-1212,549,808,-240,159,457,-215,1,0,37,9,320,1,53298,1
2,31204,30694,31708,55697,34319,-4296,381,-1232,935,758,-72,159,449,-211,1,0,37,9,360,1,53298,1
2,31193,30691,31684,55698,34321,-4106,282,-1007,1257,838,-211,153,451,-209,1,0,37,9,400,1,53298,1
2,31196,30697,31720,55699,34323,-4341,72,-1314,608,812,251,156,450,-204,1,0,37,9,440,1,53298,1
2,31161,30710,31721,55700,34325,-3939,887,-1511,638,1148,-372,154,444,-218,1,0,37,9,480,1,53298,1
2,31165,30705,31712,55701,34326,-4348,-36,-1326,883,731,500,153,445,-215,1,0,37,9,520,1,53298,1
2,31139,30695,31711,55702,34329,-4449,0,-1183,273,679,285,152,448,-224,1,0,37,9,560,1,53298,1
2,31135,30695,31706,55703,34332,-4022,641,-1694,72,701,-649,155,443,-223,1,0,37,9,600,1,53298,1
2,31082,30085,31666,55704,34333,-4076,70,-1133,846,599,-236,155,447,-215,1,0,37,9,640,1,53298,1
2,31125,30315,31701,55705,34333,-4373,72,-1402,-591,438,160,153,449,-221,1,0,37,9,680,1,53298,1
2,31129,30591,31707,55706,34335,-4369,333,-1375,-573,274,-68,167,441,-231,1,0,37,9,720,1,53298,1
2,31116,30540,31703,55707,34336,-4173,230,-1364,-56,329,-186,157,445,-229,1,0,37,9,760,1,53298,1
2,31106,30413,31689,55708,34337,-4057,175,-1119,606,274,19,153,455,-229,1,0,37,9,800,1,53298,1
2,31107,30261,31686,55709,34339,-4267,227,-1555,-519,228,281,151,445,-233,1,0,37,9,840,1,53298,1
2,31085,33766,31687,55710,34340,-4188,333,-1415,104,406,299,154,450,-228,1,0,37,9,880,1,53298,1
2,31103,30686,31685,55711,34342,-4165,251,-1342,699,499,186,156,446,-240,1,0,37,9,920,1,53298,1
2,31131,30613,31699,55712,34343,-4197,157,-1386,544,447,270,158,446,-224,1,0,37,9,960,1,53298,1
1,31158,30707,31724,55713,0,-4171,73,-1366,179,269,203,155,443,-227,1,0,37,10,0,0,53298,1
2,31212,30702,31751,55714,33734,-4286,125,-1385,195,167,28,157,447,-231,1,0,37,10,40,0,53298,1
2,31247,30638,31769,55715,33736,-4307,155,-1361,423,119,2,151,443,-225,1,0,37,10,80,0,53298,1
2,31300,30254,31830,55716,33738,-4182,154,-1419,-74,58,47,155,447,-233,1,0,37,10,120,0,53298,1
2,31329,30405,31854,55717,33740,-4164,203,-1404,253,48,164,157,447,-235,1,0,37,10,160,0,53298,1
2,31334,30635,31857,55718,33742,-4154,218,-1467,219,62,105,149,445,-235,1,0,37,10,200,0,53298,1
2,31351,30495,31857,55719,33744,-4178,211,-1438,-25,7,62,160,438,-232,1,0,37,10,240,0,53298,1
2,31323,30625,31868,55720,33745,-4158,238,-1430,69,-32,-17,146,454,-222,1,0,37,10,280,0,53298,1
2,31300,30651,31860,55721,33746,-4181,206,-1424,325,-23,-29,154,446,-226,1,0,37,10,320,0,53298,1
2,31276,30685,31846,55722,33747,-4210,205,-1398,275,11,-21,154,450,-234,1,0,37,10,360,0,53298,1
2,31248,30615,31829,55723,33749,-4168,195,-1433,227,-5,-31,146,446,-232,1,0,37,10,400,0,53298,1
2,31273,30612,31860,55724,33750,-4198,174,-1411,231,-20,-1,154,440,-236,1,0,37,10,440,0,53298,1
2,31275,30633,31874,55725,33751,-4294,-4,-1257,-140,-215,88,154,442,-232,1,0,37,10,480,0,53298,1
2,31253,30645,31862,55726,33753,-4849,-142,-1513,-330,-715,357,142,450,-228,1,0,37,10,520,0,53298,1
2,31238,30698,31851,55727,33754,-4362,111,-1180,-465,-570,-459,150,450,-228,1,0,37,10,560,0,53298,1
2,31345,30723,31884,55728,33756,-4169,586,-1823,871,-1165,203,152,448,-232,1,0,37,10,600,0,53298,1
2,31395,30740,31935,55729,33760,-3713,508,-1287,-670,-906,-131,160,450,-236,1,0,37,10,640,0,53298,1
2,31374,30601,31771,55730,33763,-3920,470,-1494,-457,-1142,-78,151,453,-221,1,0,37,10,680,0,53298,1
2,31423,30288,31940,55731,33767,-4358,265,-1344,-1271,-934,285,162,450,-224,1,0,37,10,720,0,53298,1
2,31223,30667,31755,55732,33773,-4380,160,-1218,-1319,-1149,21,150,450,-226,1,0,37,10,760,0,53298,1
2,31280,30737,31786,55733,33780,-4152,410,-1324,-1094,-1255,-103,153,445,-211,1,0,37,10,800,0,53298,1
2,31251,30396,31798,55734,33788,-4036,568,-1297,-1166,-1070,-75,149,441,-215,1,0,37,10,840,0,53298,1
2,31256,30669,31782,55735,33797,-4112,264,-1259,-1447,-711,195,156,446,-220,1,0,37,10,880,0,53298,1
2,31315,30746,31812,55736,33808,-4273,148,-1142,-883,-478,360,153,453,-215,1,0,37,10,920,0,53298,1
2,31286,30714,31775,55737,33820,-4282,425,-1222,-7,-386,311,151,453,-211,1,0,37,10,960,0,53298,1
1,31302,30721,31773,55738,0,-4240,323,-1183,80,-289,224,151,459,-219,1,0,37,11,0,1,53298,1
2,31311,30655,31775,55739,33236,-4141,298,-1211,-160,-181,106,149,449,-211,1,0,37,11,40,1,53298,1
2,31281,30717,31750,55740,33247,-4174,397,-1191,112,-5,37,153,441,-213,1,0,37,11,80,1,53298,1
2,31270,30717,31721,55741,33259,-4292,264,-1160,124,49,65,157,455,-217,1,0,37,11,120,1,53298,1
2,31276,30715,31749,55742,33270,-4208,313,-1230,186,100,-25,156,452,-212,1,0,37,11,160,1,53298,1
2,31276,30714,31755,55743,33279,-4262,305,-1159,455,164,2,149,453,-211,1,0,37,11,200,1,53298,1
2,31283,30716,31756,55744,33289,-4257,266,-1198,383,159,0,157,447,-205,1,0,37,11,240,1,53298,1
2,31272,30712,31752,55745,33298,-4190,329,-1230,380,241,-82,154,454,-212,1,0,37,11,280,1,53298,1
2,31260,30709,31706,55746,33306,-4246,365,-1294,584,387,-86,147,451,-213,1,0,37,11,320,1,53298,1
2,31228,30710,31700,55747,33312,-3978,495,-1268,830,722,-322,158,448,-218,1,0,37,11,360,1,53298,1
2,31195,30710,31722,55748,33317,-4070,483,-1305,662,1088,-133,151,449,-219,1,0,37,11,400,1,53298,1
2,31143,30704,31692,55749,33321,-4083,443,-1362,616,1323,-20,157,447,-217,1,0,37,11,440,1,53298,1
2,31117,30701,31695,55750,33323,-4424,22,-1057,762,962,221,158,440,-218,1,0,37,11,480,1,53298,1
2,31107,30699,31700,55751,33325,-4573,-114,-1319,-317,572,316,150,442,-224,1,0,37,11,520,1,53298,1
2,31071,30690,31676,55752,33328,-3975,772,-1806,-12,698,-450,155,439,-225,1,0,37,11,560,1,53298,1
2,31092,30695,31701,55753,33330,-3811,408,-1049,1123,1173,-239,152,450,-224,1,0,37,11,600,1,53298,1
2,31084,30687,31692,55754,33331,-4285,128,-1382,515,852,721,162,450,-220,1,0,37,11,640,1,53298,1
2,31054,30031,31668,55755,33332,-4292,205,-1418,-280,782,306,157,445,-225,1,0,37,11,680,1,53298,1
2,31032,30574,31655,55756,33334,-4324,131,-1290,104,760,-119,151,447,-229,1,0,37,11,720,1,53298,1
2,31052,30596,31657,55757,33335,-4296,38,-1296,213,385,-256,162,446,-236,1,0,37,11,760,1,53298,1
2,31054,30684,31654,55758,33336,-4237,-15,-1389,-432,110,-150,162,438,-228,1,0,37,11,800,1,53298,1
2,31054,30370,31651,55759,33337,-4285,149,-1390,116,72,-105,155,441,-233,1,0,37,11,840,1,53298,1
2,31041,30660,31654,55760,33338,-4156,162,-1387,547,42,60,155,445,-235,1,0,37,11,880,1,53298,1
2,31049,30426,31652,55761,33338,-4182,215,-1421,608,90,91,154,450,-230,1,0,37,11,920,1,53298,1
2,31060,30625,31659,55762,33339,-4127,315,-1479,342,96,-5,154,450,-238,1,0,37,11,960,1,53298,1
1,31045,30021,31658,55763,0,-4187,301,-1435,509,153,-82,145,443,-237,1,0,37,12,0,0,53298,1
2,31046,30625,31651,55764,32717,-4169,216,-1406,596,111,-84,154,450,-232,1,0,37,12,40,0,53298,1
2,31042,30599,31644,55765,32718,-4196,150,-1485,132,32,-99,146,454,-240,1,0,37,12,80,0,53298,1
2,31012,30637,31621,55766,32718,-4271,83,-1507,119,86,200,145,445,-229,1,0,37,12,120,0,53298,1
2,30986,30564,31605,55767,32719,-4161,162,-1456,119,43,61,148,448,-236,1,0,37,12,160,0,53298,1
2,30982,30568,31604,55768,32720,-4160,190,-1444,61,-11,77,149,443,-227,1,0,37,12,200,0,53298,1
2,30996,30602,31617,55769,32722,-4196,187,-1443,-66,-54,76,152,448,-236,1,0,37,12,240,0,53298,1
2,30991,30630,31622,55770,32724,-4188,158,-1395,-143,-84,60,155,447,-239,1,0,37,12,280,0,53298,1
2,30984,30620,31626,55771,32726,-4225,195,-1461,-284,-121,110,150,444,-230,1,0,37,12,320,0,53298,1
2,30979,30610,31625,55772,32728,-4160,289,-1434,29,-192,28,160,448,-234,1,0,37,12,360,0,53298,1
2,30975,30625,31622,55773,32730,-4112,251,-1458,88,-168,-22,142,438,-232,1,0,37,12,400,0,53298,1
2,30974,30644,31624,55774,32731,-4151,257,-1454,-3,-116,-19,154,448,-234,1,0,37,12,440,0,53298,1
2,30969,30653,31625,55775,32733,-4173,198,-1458,-185,-103,-18,151,447,-239,1,0,37,12,480,0,53298,1
2,30970,30656,31626,55776,32736,-4227,177,-1386,-176,-87,-52,156,444,-232,1,0,37,12,520,0,53298,1
2,30963,30645,31626,55777,32738,-4294,-79,-1242,-21,-389,130,153,449,-231,1,0,37,12,560,0,53298,1
2,30969,30636,31639,55778,32740,-4874,-278,-1425,-497,-606,178,152,446,-236,1,0,37,12,600,0,53298,1
2,30992,30640,31654,55779,32742,-4213,231,-1332,-263,-819,-309,148,452,-236,1,0,37,12,640,0,53298,1
2,31073,30649,31666,55780,32744,-3965,383,-1617,-946,-1142,274,154,448,-218,1,0,37,12,680,0,53298,1
2,31107,30665,31699,55781,32747,-3998,288,-1433,-943,-1179,276,147,439,-219,1,0,37,12,720,0,53298,1
2,31135,30546,31714,55782,32752,-4160,445,-1284,-245,-1320,200,155,447,-225,1,0,37,12,760,0,53298,1
2,31164,30411,31733,55783,32756,-4224,160,-1311,-1321,-1394,202,153,447,-223,1,0,37,12,800,0,53298,1
2,31222,30599,31745,55784,32763,-4138,434,-1220,-1263,-1522,-9,148,456,-216,1,0,37,12,840,0,53298,1
2,31246,30675,31773,55785,32770,-4010,565,-1359,-1351,-1408,129,151,449,-213,1,0,37,12,880,0,53298,1
2,31232,30673,31760,55786,32778,-3976,409,-1196,-1314,-974,454,148,454,-216,1,0,37,12,920,0,53298,1
2,31263,30680,31769,55787,32787,-4326,364,-1026,-1020,-657,500,148,452,-214,1,0,37,12,960,0,53298,1
1,31270,30723,31768,55788,0,-4366,386,-1114,-489,-552,327,148,456,-214,1,0,37,13,0,1,53298,1
2,31273,30719,31772,55789,32216,-4193,365,-1152,292,-319,237,155,451,-211,1,0,37,13,40,1,53298,1
2,31287,30731,31769,55790,32226,-4112,360,-1205,602,-95,121,154,452,-212,1,0,37,13,80,1,53298,1
2,31293,30731,31770,55791,32236,-4205,446,-1245,696,157,5,151,451,-211,1,0,37,13,120,1,53298,1
2,31287,30727,31730,55792,32245,-4201,303,-1239,713,364,-90,157,453,-213,1,0,37,13,160,1,53298,1
2,31281,30724,31725,55793,32254,-4245,291,-1087,1260,341,22,148,446,-212,1,0,37,13,200,1,53298,1
2,31276,30724,31754,55794,32261,-4295,354,-1200,921,240,-95,147,447,-217,1,0,37,13,240,1,53298,1
2,31262,30721,31746,55795,32269,-4223,284,-1215,420,287,-174,149,451,-211,1,0,37,13,280,1,53298,1
2,31255,30718,31747,55796,32275,-4204,302,-1184,235,324,-187,155,453,-221,1,0,37,13,320,1,53298,1
2,31247,30713,31736,55797,32281,-4216,353,-1242,214,371,-216,153,451,-217,1,0,37,13,360,1,53298,1
2,31227,30651,31726,55798,32286,-4230,298,-1215,215,400,-201,156,450,-212,1,0,37,13,400,1,53298,1
2,31210,30703,31723,55799,32290,-4191,316,-1227,70,433,-202,157,447,-221,1,0,37,13,440,1,53298,1
2,31186,30710,31716,55800,32294,-4156,513,-1365,238,567,-322,157,457,-217,1,0,37,13,480,1,53298,1
2,31191,30711,31729,55801,32297,-4157,347,-1392,-22,761,-190,153,451,-211,1,0,37,13,520,1,53298,1
2,31179,30706,31688,55802,32298,-4103,213,-1154,-279,855,-86,145,455,-217,1,0,37,13,560,1,53298,1
2,31153,30711,31716,55803,32299,-4231,430,-1537,-444,983,-14,151,441,-219,1,0,37,13,600,1,53298,1
2,31112,30695,31692,55804,32300,-3941,384,-1002,554,1039,-306,153,443,-221,1,0,37,13,640,1,53298,1
2,31114,30685,31699,55805,32300,-4659,-195,-1344,638,633,527,154,450,-218,1,0,37,13,680,1,53298,1
2,31100,30617,31693,55806,32301,-4272,234,-1450,-133,500,-138,151,451,-213,1,0,37,13,720,1,53298,1
2,31081,30381,31683,55807,32301,-4139,280,-1259,235,587,-516,156,444,-220,1,0,37,13,760,1,53298,1
2,31076,30680,31686,55808,32301,-4254,298,-1428,778,233,172,158,456,-226,1,0,37,13,800,1,53298,1
2,31067,30357,31682,55809,32301,-4182,311,-1460,-503,413,96,156,446,-226,1,0,37,13,840,1,53298,1
2,31037,29975,31650,55810,32301,-4155,379,-1516,-81,566,-16,160,442,-222,1,0,37,13,880,1,53298,1
2,31012,30270,31639,55811,32301,-4079,415,-1374,429,734,73,148,452,-230,1,0,37,13,920,1,53298,1
2,31042,29950,31651,55812,32301,-4122,411,-1500,-463,799,160,153,451,-245,1,0,37,13,960,1,53298,1
1,31035,30619,31642,55813,0,-4121,299,-1500,-770,886,254,149,449,-243,1,0,37,14,0,1,53298,1
2,31005,30676,31624,55814,31700,-4129,229,-1543,-408,1296,570,150,448,-238,1,0,37,14,40,1,53298,1
2,30996,30668,31615,55815,31701,-4225,170,-1519,-477,1527,1123,154,442,-246,1,0,37,14,80,1,53298,1
2,30972,30514,31600,55816,31702,-4261,50,-1332,-72,1422,1249,145,441,-231,1,0,37,14,120,1,53298,1
2,30960,30417,31597,55817,31702,-4278,-101,-1036,780,724,887,143,445,-233,1,0,37,14,160,1,53298,1
2,30937,29862,31589,55818,31702,-4183,-134,-1113,748,-450,66,144,448,-234,1,0,37,14,200,1,53298,1
2,30932,29976,31586,55819,31703,-4177,254,-1524,321,-880,-614,148,446,-238,1,0,37,14,240,1,53298,1
2,30929,30356,31595,55820,31704,-4143,657,-1798,205,-599,-552,150,448,-238,1,0,37,14,280,1,53298,1
2,30926,30631,31602,55821,31704,-4137,626,-1705,401,-66,-102,153,445,-235,1,0,37,14,320,1,53298,1
2,30924,30613,31606,55822,31704,-4106,253,-1476,343,100,113,149,445,-237,1,0,37,14,360,1,53298,1
2,30933,30591,31607,55823,31703,-4062,201,-1460,313,2,-13,149,443,-237,1,0,37,14,400,1,53298,1
2,30918,30603,31604,55824,31703,-4049,324,-1593,87,-127,-80,156,442,-240,1,0,37,14,440,1,53298,1
2,30921,30609,31600,55825,31703,-4126,349,-1538,152,69,125,145,451,-231,1,0,37,14,480,1,53298,1
2,30911,30510,31595,55826,31703,-4160,300,-1529,-23,79,244,151,445,-235,1,0,37,14,520,1,53298,1
2,30912,30537,31592,55827,31704,-4140,222,-1483,-165,-1,130,153,449,-235,1,0,37,14,560,1,53298,1
2,30913,30517,31591,55828,31705,-4146,280,-1502,-31,13,66,146,442,-240,1,0,37,14,600,1,53298,1
2,30909,30574,31596,55829,31705,-4139,293,-1489,295,-12,56,148,442,-242,1,0,37,14,640,1,53298,1
2,30905,30576,31597,55830,31705,-4159,128,-1303,72,-208,-9,148,448,-242,1,0,37,14,680,1,53298,1
2,30899,30592,31607,55831,31706,-4459,-147,-1349,-305,-432,197,148,442,-220,1,0,37,14,720,1,53298,1
2,30929,30600,31627,55832,31707,-4657,-258,-1566,-471,-448,240,148,442,-244,1,0,37,14,760,1,53298,1
2,31003,30616,31645,55833,31708,-4197,164,-1099,1126,-781,190,155,453,-235,1,0,37,14,800,1,53298,1
2,31032,30620,31674,55834,31710,-3878,422,-1567,599,-943,-185,149,445,-229,1,0,37,14,840,1,53298,1
2,31060,30148,31686,55835,31714,-3796,795,-1572,413,-935,-195,150,448,-230,1,0,37,14,880,1,53298,1
2,31075,29942,31705,55836,31718,-4204,376,-1628,-809,-870,167,151,453,-239,1,0,37,14,920,1,53298,1
2,31085,30701,31717,55837,31723,-4368,249,-1378,-821,-932,7,146,452,-232,1,0,37,14,960,1,53298,1
1,31177,30694,31717,55838,0,-4247,293,-1389,-1038,-1140,-104,152,448,-230,1,0,37,15,0,1,53298,1
2,31199,30690,31760,55839,31197,-4105,382,-1423,-998,-1275,147,148,448,-230,1,0,37,15,40,1,53298,1
2,31254,30714,31767,55840,31205,-4146,468,-1345,-937,-1086,309,145,455,-227,1,0,37,15,80,1,53298,1
2,31267,30716,31763,55841,31215,-4196,398,-1369,-1031,-760,361,149,455,-223,1,0,37,15,120,1,53298,1
2,31288,30684,31778,55842,31226,-4233,402,-1318,-840,-536,323,143,445,-217,1,0,37,15,160,1,53298,1
2,31284,30733,31773,55843,31237,-4334,468,-1377,-337,-351,152,154,456,-224,1,0,37,15,200,1,53298,1
2,31270,30503,31768,55844,31247,-4043,316,-1264,-317,-95,-108,141,451,-219,1,0,37,15,240,1,53298,1
2,31280,30594,31767,55845,31257,-4048,397,-1240,-393,-107,-78,147,457,-217,1,0,37,15,280,1,53298,1
2,31275,30637,31769,55846,31268,-4222,406,-1278,-104,-140,45,155,453,-227,1,0,37,15,320,1,53298,1
2,31268,30547,31759,55847,31277,-4231,347,-1265,-111,-51,-25,144,458,-222,1,0,37,15,360,1,53298,1
2,31272,30694,31765,55848,31287,-4201,371,-1244,-292,-43,-72,154,450,-222,1,0,37,15,400,1,53298,1
2,31275,30653,31760,55849,31296,-4134,368,-1227,-97,-30,-141,149,445,-217,1,0,37,15,440,1,53298,1
2,31264,30645,31757,55850,31305,-4158,369,-1309,18,64,-139,152,452,-208,1,0,37,15,480,1,53298,1
2,31242,30681,31712,55851,31313,-4183,557,-1375,259,348,-312,152,446,-214,1,0,37,15,520,1,53298,1
2,31192,30596,31695,55852,31319,-3960,399,-1054,908,671,-711,152,446,-222,1,0,37,15,560,1,53298,1
2,31187,30607,31705,55853,31323,-4162,86,-1325,-110,586,-100,154,442,-214,1,0,37,15,600,1,53298,1
2,31183,30705,31733,55854,31326,-4100,786,-1440,360,745,-408,151,449,-209,1,0,37,15,640,1,53298,1
2,31209,30696,31744,55855,31329,-4249,126,-1356,699,608,-14,156,452,-226,1,0,37,15,680,1,53298,1
2,31195,30709,31731,55856,31331,-4224,308,-1382,275,429,143,152,446,-212,1,0,37,15,720,1,53298,1
2,31164,30692,31719,55857,31333,-4055,446,-1153,653,552,-293,154,460,-222,1,0,37,15,760,1,53298,1
2,31146,30689,31708,55858,31335,-4358,-46,-1429,394,560,307,155,451,-221,1,0,37,15,800,1,53298,1
2,31120,30678,31695,55859,31337,-4139,537,-1511,544,595,7,153,443,-227,1,0,37,15,840,1,53298,1
2,31100,30693,31689,55860,31338,-3921,681,-1510,528,836,-526,152,450,-236,1,0,37,15,880,1,53298,1
2,31075,30690,31678,55861,31339,-3952,154,-1292,1456,751,20,157,449,-231,1,0,37,15,920,1,53298,1
2,31065,30684,31672,55862,31340,-4346,142,-1483,1000,1017,487,153,453,-233,1,0,37,15,960,1,53298,1
1,31046,30506,31650,55863,0,-4323,181,-1406,786,873,220,147,447,-233,1,0,37,16,0,1,53298,1
2,31048,30658,31653,55864,30686,-4311,5,-1384,920,619,29,155,449,-241,1,0,37,16,40,1,53298,1
2,31008,30637,31630,55865,30686,-4275,39,-1473,320,417,4,149,445,-239,1,0,37,16,80,1,53298,1
2,30998,30483,31619,55866,30687,-4224,207,-1481,504,273,126,148,450,-240,1,0,37,16,120,1,53298,1
2,30982,30666,31610,55867,30689,-4083,232,-1555,354,107,63,150,436,-236,1,0,37,16,160,1,53298,1
2,30969,30648,31605,55868,30691,-4096,289,-1533,439,122,121,149,445,-227,1,0,37,16,200,1,53298,1
2,30959,30637,31600,55869,30691,-4092,317,-1519,513,110,129,149,447,-243,1,0,37,16,240,1,53298,1
2,30951,30661,31600,55870,30692,-4119,270,-1525,543,138,134,147,441,-245,1,0,37,16,280,1,53298,1
2,30941,30151,31592,55871,30692,-4179,223,-1518,464,39,50,158,444,-242,1,0,37,16,320,1,53298,1
2,30934,30502,31580,55872,30692,-4159,134,-1572,-120,91,76,146,438,-242,1,0,37,16,360,1,53298,1
2,30932,30647,31575,55873,30693,-4131,249,-1550,339,96,34,148,448,-244,1,0,37,16,400,1,53298,1
2,30928,30621,31572,55874,30695,-4117,205,-1550,440,145,40,149,443,-233,1,0,37,16,440,1,53298,1
2,30922,30630,31569,55875,30695,-4174,250,-1528,1042,230,151,143,453,-241,1,0,37,16,480,1,53298,1
2,30905,30620,31566,55876,30696,-4125,220,-1559,1195,200,140,138,452,-250,1,0,37,16,520,1,53298,1
2,30903,30636,31565,55877,30696,-4134,194,-1553,622,135,36,142,444,-242,1,0,37,16,560,1,53298,1
2,30900,30652,31567,55878,30696,-4146,247,-1570,321,8,12,142,442,-248,1,0,37,16,600,1,53298,1
2,30894,30653,31574,55879,30697,-4128,191,-1589,-133,-50,18,146,448,-242,1,0,37,16,640,1,53298,1
2,30900,30659,31583,55880,30699,-4125,221,-1546,-94,-131,11,149,447,-243,1,0,37,16,680,1,53298,1
2,30901,30648,31594,55881,30700,-4135,192,-1571,-328,-141,-77,141,443,-247,1,0,37,16,720,1,53298,1
2,30905,30639,31600,55882,30700,-4161,209,-1555,-625,-89,-170,146,442,-242,1,0,37,16,760,1,53298,1
2,30904,30641,31603,55883,30702,-4168,176,-1510,-524,-115,-48,144,450,-248,1,0,37,16,800,1,53298,1
2,30914,30631,31606,55884,30703,-4134,242,-1562,-349,-122,-29,153,445,-239,1,0,37,16,840,1,53298,1
2,30928,30634,31610,55885,30705,-4192,139,-1563,-431,-250,32,139,451,-231,1,0,37,16,880,1,53298,1
2,30913,30632,31623,55886,30707,-4445,-159,-1316,-591,-285,38,146,446,-236,1,0,37,16,920,1,53298,1
2,30922,30637,31633,55887,30709,-4473,165,-1763,-921,-584,-6,151,447,-243,1,0,37,16,960,1,53298,1
1,31012,30645,31667,55888,0,-4042,52,-1385,-1258,-919,188,149,447,-243,1,0,37,17,0,1,53298,1
2,31077,30499,31685,55889,30178,-3991,416,-1385,-960,-1006,-162,147,451,-241,1,0,37,17,40,1,53298,1
2,31097,30570,31711,55890,30182,-3969,542,-1517,-370,-1198,-98,144,452,-236,1,0,37,17,80,1,53298,1
2,31099,30041,31717,55891,30187,-4107,392,-1517,-1148,-1232,51,144,450,-228,1,0,37,17,120,1,53298,1
2,31115,30707,31690,55892,30194,-4129,418,-1443,-1324,-1304,25,149,447,-233,1,0,37,17,160,1,53298,1
2,31184,30659,31752,55893,30203,-4239,416,-1454,-1518,-1205,11,154,446,-222,1,0,37,17,200,1,53298,1
2,31239,30678,31770,55894,30212,-4104,399,-1404,-1398,-820,-28,156,448,-226,1,0,37,17,240,1,53298,1
2,31250,30700,31766,55895,30221,-4060,410,-1304,-509,-328,-13,147,465,-215,1,0,37,17,280,1,53298,1
2,31267,30720,31769,55896,30231,-4047,397,-1298,150,-150,223,148,454,-224,1,0,37,17,320,1,53298,1
2,31253,30726,31768,55897,30240,-4142,411,-1409,332,-5,191,146,448,-228,1,0,37,17,360,1,53298,1
2,31260,30726,31764,55898,30249,-4264,332,-1309,207,138,30,153,451,-231,1,0,37,17,400,1,53298,1
2,31258,30724,31760,55899,30258,-4224,249,-1345,-125,13,51,147,455,-211,1,0,37,17,440,1,53298,1
2,31253,30723,31758,55900,30267,-4153,379,-1325,4,-42,3,142,458,-222,1,0,37,17,480,1,53298,1
2,31255,30723,31761,55901,30276,-4135,293,-1291,25,8,3,156,454,-222,1,0,37,17,520,1,53298,1
2,31249,30719,31754,55902,30284,-4159,353,-1358,218,72,23,151,453,-227,1,0,37,17,560,1,53298,1
2,31246,30714,31747,55903,30292,-4197,328,-1356,312,221,42,150,454,-222,1,0,37,17,600,1,53298,1
2,31235,30690,31744,55904,30298,-4168,359,-1347,406,385,-70,149,449,-223,1,0,37,17,640,1,53298,1
2,31212,30713,31730,55905,30304,-4143,392,-1431,633,540,-211,152,448,-226,1,0,37,17,680,1,53298,1
2,31203,30690,31728,55906,30309,-4298,226,-1407,640,495,2,150,454,-218,1,0,37,17,720,1,53298,1
2,31171,30701,31701,55907,30314,-4046,575,-1385,703,694,-317,155,451,-229,1,0,37,17,760,1,53298,1
2,31146,30680,31682,55908,30317,-4101,218,-1338,196,772,-161,151,439,-227,1,0,37,17,800,1,53298,1
2,31124,30701,31717,55909,30319,-4253,153,-1526,-840,677,110,153,447,-229,1,0,37,17,840,1,53298,1
2,31094,30692,31706,55910,30321,-4025,706,-1619,-719,871,-543,154,448,-228,1,0,37,17,880,1,53298,1
2,31066,30383,31702,55911,30323,-4046,250,-1305,118,683,-394,158,440,-224,1,0,37,17,920,1,53298,1
2,31041,30347,31679,55912,30324,-4164,17,-1438,-297,710,-41,150,440,-236,1,0,37,17,960,1,53298,1
1,31023,30094,31662,55913,0,-4273,216,-1425,164,547,67,146,450,-230,1,0,37,18,0,1,53298,1
2,30994,30437,31662,55914,29669,-4286,208,-1447,340,484,161,151,447,-231,1,0,37,18,40,1,53298,1
2,30954,30579,31635,55915,29671,-4134,117,-1454,257,563,157,147,451,-243,1,0,37,18,80,1,53298,1
2,30935,30671,31628,55916,29672,-4138,172,-1443,966,584,239,152,448,-236,1,0,37,18,120,1,53298,1
2,30912,30554,31617,55917,29674,-4084,321,-1491,1952,518,99,146,444,-232,1,0,37,18,160,1,53298,1
2,30907,30658,31610,55918,29675,-4156,352,-1514,2841,652,57,139,447,-243,1,0,37,18,200,1,53298,1
2,30887,30640,31598,55919,29676,-4180,139,-1556,2172,530,192,152,440,-250,1,0,37,18,240,1,53298,1
2,30883,30574,31596,55920,29678,-4216,34,-1573,861,317,215,149,439,-243,1,0,37,18,280,1,53298,1
2,30889,30476,31594,55921,29679,-4206,23,-1627,88,129,68,153,439,-251,1,0,37,18,320,1,53298,1
2,30883,30138,31589,55922,29679,-4114,126,-1632,-211,6,71,144,450,-248,1,0,37,18,360,1,53298,1
2,30880,30653,31596,55923,29679,-4108,251,-1582,245,38,45,150,444,-236,1,0,37,18,400,1,53298,1
2,30867,30626,31598,55924,29681,-4114,216,-1553,444,25,164,146,446,-244,1,0,37,18,440,1,53298,1
2,30861,30614,31599,55925,29683,-4103,254,-1553,421,-30,74,154,442,-246,1,0,37,18,480,1,53298,1
2,30849,30639,31594,55926,29684,-4069,244,-1608,32,3,-65,150,438,-244,1,0,37,18,520,1,53298,1
