sensorStatus,cap1,cap2,cap3,counter,microseconds_since_last_tick,accX,accY,accZ,gyroX,gyroY,gyroZ,magnetX,magnetY,magnetZ,day,hour,min,sec,msec,sync,battery_fuel,crc_good
2,30781,30339,31381,74464,33380,-4571,-803,-489,-18,-28,24,234,516,-168,1,0,49,40,40,0,53298,1
2,30764,30339,31379,74465,33391,-4571,-799,-498,-9,-9,11,232,508,-156,1,0,49,40,80,0,53298,1
2,30753,30342,31379,74466,33400,-4580,-815,-491,-15,4,8,237,517,-161,1,0,49,40,120,0,53298,1
2,30756,30331,31381,74467,33409,-4568,-814,-499,-14,-4,9,234,502,-170,1,0,49,40,160,0,53298,1
2,30727,30325,31381,74468,33418,-4579,-823,-494,-12,-25,26,235,509,-171,1,0,49,40,200,0,53298,1
2,30727,30330,31381,74469,33427,-4585,-806,-496,-6,-33,37,232,516,-162,1,0,49,40,240,0,53298,1
2,30721,30323,31380,74470,33437,-4566,-804,-498,-8,-35,47,234,512,-164,1,0,49,40,280,0,53298,1
2,30739,30329,31380,74471,33446,-4576,-813,-493,-11,-25,32,232,508,-168,1,0,49,40,320,0,53298,1
2,30732,30331,31380,74472,33455,-4581,-816,-494,-6,-13,24,227,519,-157,1,0,49,40,360,0,53298,1
2,30714,30329,31379,74473,33464,-4580,-825,-485,-14,1,28,241,509,-171,1,0,49,40,400,0,53298,1
2,30734,30329,31382,74474,33472,-4578,-824,-488,-7,-2,22,235,511,-169,1,0,49,40,440,0,53298,1
2,30716,30336,31381,74475,33480,-4576,-794,-505,-11,0,24,236,508,-172,1,0,49,40,480,0,53298,1
2,30716,30326,31381,74476,33489,-4579,-806,-492,-10,3,9,237,515,-157,1,0,49,40,520,0,53298,1
2,30719,30331,31385,74477,33498,-4585,-817,-501,-15,-4,15,234,510,-164,1,0,49,40,560,0,53298,1
2,30719,30327,31386,74478,33507,-4576,-806,-506,-14,-6,22,233,509,-155,1,0,49,40,600,0,53298,1
2,30718,30326,31380,74479,33515,-4576,-810,-513,-18,-17,14,237,501,-161,1,0,49,40,640,0,53298,1
2,30719,30328,31382,74480,33524,-4572,-803,-492,-18,-19,34,236,514,-166,1,0,49,40,680,0,53298,1
2,30719,30342,31385,74481,33533,-4568,-803,-516,-8,-28,22,232,510,-168,1,0,49,40,720,0,53298,1
2,30707,30341,31381,74482,33542,-4574,-803,-505,-17,-24,7,236,514,-162,1,0,49,40,760,0,53298,1
2,30698,30341,31380,74483,33551,-4588,-818,-502,-5,-19,35,237,529,-165,1,0,49,40,800,0,53298,1
2,30716,30338,31382,74484,33560,-4563,-802,-490,10,4,73,239,513,-175,1,0,49,40,840,0,53298,1
2,30713,30339,31381,74485,33570,-4565,-805,-489,28,33,93,235,513,-167,1,0,49,40,880,0,53298,1
2,30705,30335,31384,74486,33579,-4577,-800,-503,42,68,114,231,515,-169,1,0,49,40,920,0,53298,1
2,30707,30333,31379,74487,33589,-4577,-798,-505,43,70,44,231,513,-179,1,0,49,40,960,0,53298,1
1,30705,30349,31380,74488,0,-4594,-823,-502,-13,42,-49,240,518,-166,1,0,49,41,0,0,53298,1
2,30699,30346,31378,74489,32912,-4574,-804,-506,-57,8,-99,234,504,-164,1,0,49,41,40,0,53298,1
2,30705,30351,31381,74490,32921,-4581,-826,-515,-63,-70,-114,239,517,-167,1,0,49,41,80,0,53298,1
2,30706,30361,31381,74491,32930,-4574,-825,-491,-97,-137,-79,231,517,-157,1,0,49,41,120,0,53298,1
2,30710,30358,31381,74492,32940,-4570,-812,-486,-74,-162,0,236,506,-166,1,0,49,41,160,0,53298,1
2,30669,30355,31373,74493,32950,-4575,-808,-496,-45,-167,54,234,510,-168,1,0,49,41,200,0,53298,1
2,29353,30343,31353,74494,32959,-4581,-810,-500,-65,-160,83,234,512,-166,1,0,49,41,240,0,53298,1
2,29244,30343,31355,74495,32968,-4580,-807,-494,-70,-196,84,236,506,-162,1,0,49,41,280,0,53298,1
2,29218,30342,31347,74496,32977,-4563,-802,-491,-60,-220,73,232,510,-174,1,0,49,41,320,0,53298,1
2,29225,30344,31349,74497,32986,-4571,-807,-477,-57,-194,94,233,511,-169,1,0,49,41,360,0,53298,1
2,29230,30350,31350,74498,32996,-4570,-800,-464,-44,-146,95,237,507,-161,1,0,49,41,400,0,53298,1
2,29173,30354,31346,74499,33006,-4579,-795,-475,6,-73,77,237,509,-169,1,0,49,41,440,0,53298,1
2,29174,30345,31352,74500,33016,-4578,-803,-473,20,14,38,243,509,-163,1,0,49,41,480,0,53298,1
2,29181,30351,31351,74501,33026,-4570,-802,-484,-16,70,0,233,509,-163,1,0,49,41,520,0,53298,1
2,29175,30344,31350,74502,33035,-4574,-813,-483,-17,60,-34,234,512,-164,1,0,49,41,560,0,53298,1
2,29161,30339,31350,74503,33045,-4570,-806,-495,-24,36,-25,234,512,-154,1,0,49,41,600,0,53298,1
2,29161,30339,31349,74504,33054,-4576,-812,-467,-19,13,0,234,510,-156,1,0,49,41,640,0,53298,1
2,29162,30339,31348,74505,33064,-4577,-810,-476,-13,4,38,240,508,-168,1,0,49,41,680,0,53298,1
2,29158,30350,31348,74506,33072,-4578,-798,-494,8,10,53,234,514,-172,1,0,49,41,720,0,53298,1
2,29133,30355,31349,74507,33081,-4588,-813,-479,-5,-1,30,236,512,-162,1,0,49,41,760,0,53298,1
2,29138,30340,31355,74508,33090,-4573,-806,-477,-26,-18,-7,235,505,-159,1,0,49,41,800,0,53298,1
2,29138,30355,31351,74509,33099,-4579,-812,-480,-43,-50,-30,242,516,-168,1,0,49,41,840,0,53298,1
2,29145,30358,31347,74510,33108,-4580,-810,-486,-57,-80,-31,243,505,-165,1,0,49,41,880,0,53298,1
2,29143,30357,31350,74511,33117,-4578,-831,-461,-41,-78,-1,228,520,-160,1,0,49,41,920,0,53298,1
2,29137,30352,31355,74512,33127,-4600,-817,-476,-21,-32,46,234,522,-150,1,0,49,41,960,0,53298,1
1,29127,30354,31350,74513,0,-4573,-805,-486,-3,-16,51,239,513,-167,1,0,49,42,0,1,53298,1
2,29121,30353,31350,74514,32447,-4566,-817,-466,22,-15,94,234,504,-162,1,0,49,42,40,1,53298,1
2,29128,30348,31354,74515,32455,-4574,-812,-474,100,45,191,235,511,-169,1,0,49,42,80,1,53298,1
2,29153,30336,31354,74516,32464,-4569,-796,-461,196,133,248,235,509,-159,1,0,49,42,120,1,53298,1
2,29112,30351,31350,74517,32474,-4582,-779,-497,146,209,142,236,506,-168,1,0,49,42,160,1,53298,1
2,29100,30340,31352,74518,32483,-4576,-793,-500,70,241,-11,233,515,-157,1,0,49,42,200,1,53298,1
2,29112,30347,31355,74519,32491,-4586,-786,-490,31,298,-180,235,521,-177,1,0,49,42,240,1,53298,1
2,29091,30350,31352,74520,32501,-4578,-819,-518,-8,311,-324,237,511,-167,1,0,49,42,280,1,53298,1
2,29100,30354,31355,74521,32510,-4565,-846,-527,-62,263,-304,242,512,-166,1,0,49,42,320,1,53298,1
2,29099,30350,31352,74522,32519,-4568,-841,-552,-79,167,-172,239,505,-173,1,0,49,42,360,1,53298,1
2,29095,30351,31353,74523,32528,-4587,-842,-520,-29,41,-1,231,511,-167,1,0,49,42,400,1,53298,1
2,29097,30347,31355,74524,32536,-4574,-828,-520,-11,-113,113,230,514,-154,1,0,49,42,440,1,53298,1
2,29101,30350,31351,74525,32545,-4571,-809,-515,-42,-194,158,240,514,-164,1,0,49,42,480,1,53298,1
2,29084,30345,31355,74526,32556,-4579,-807,-491,3,-189,162,241,513,-161,1,0,49,42,520,1,53298,1
2,29082,30355,31354,74527,32565,-4570,-805,-489,19,-121,101,232,514,-164,1,0,49,42,560,1,53298,1
2,29087,30355,31350,74528,32574,-4579,-808,-489,6,-41,49,241,511,-169,1,0,49,42,600,1,53298,1
2,29093,30349,31353,74529,32584,-4567,-817,-501,34,46,58,230,518,-166,1,0,49,42,640,1,53298,1
2,29084,30355,31353,74530,32594,-4572,-807,-509,75,109,68,232,512,-170,1,0,49,42,680,1,53298,1
2,29073,30360,31353,74531,32603,-4580,-812,-507,72,93,56,232,510,-164,1,0,49,42,720,1,53298,1
2,29084,30359,31351,74532,32613,-4575,-807,-526,36,59,36,230,518,-156,1,0,49,42,760,1,53298,1
2,29100,30358,31351,74533,32622,-4578,-811,-522,22,22,15,231,513,-159,1,0,49,42,800,1,53298,1
2,29097,30348,31355,74534,32632,-4586,-822,-526,-9,-22,14,233,509,-161,1,0,49,42,840,1,53298,1
2,29078,30353,31353,74535,32642,-4576,-816,-520,-14,-54,15,233,509,-159,1,0,49,42,880,1,53298,1
2,29100,30352,31351,74536,32651,-4569,-821,-522,-16,-72,9,229,507,-167,1,0,49,42,920,1,53298,1
2,29093,30334,31350,74537,32660,-4574,-813,-515,-19,-54,26,237,519,-163,1,0,49,42,960,1,53298,1
1,29092,30324,31352,74538,0,-4576,-821,-503,-16,-25,27,237,513,-169,1,0,49,43,0,1,53298,1
2,29093,30347,31351,74539,31983,-4574,-812,-501,-2,-14,28,241,515,-167,1,0,49,43,40,1,53298,1
2,29100,30336,31352,74540,31993,-4573,-818,-504,-14,-14,13,242,508,-168,1,0,49,43,80,1,53298,1
2,29085,30340,31353,74541,32003,-4583,-814,-514,-22,-24,25,228,510,-164,1,0,49,43,120,1,53298,1
2,29082,30323,31353,74542,32012,-4572,-814,-506,-14,-44,26,234,518,-168,1,0,49,43,160,1,53298,1
2,29081,30321,31349,74543,32021,-4585,-805,-506,-14,-47,35,230,518,-176,1,0,49,43,200,1,53298,1
2,29068,30338,31353,74544,32031,-4570,-809,-508,-17,-36,36,236,522,-172,1,0,49,43,240,1,53298,1
2,29064,30331,31355,74545,32040,-4558,-816,-513,-26,-51,27,242,512,-160,1,0,49,43,280,1,53298,1
2,29074,30335,31352,74546,32050,-4581,-815,-513,-23,-56,24,232,514,-160,1,0,49,43,320,1,53298,1
2,29085,30340,31355,74547,32059,-4577,-813,-500,-27,-68,36,236,504,-166,1,0,49,43,360,1,53298,1
2,29080,30343,31353,74548,32069,-4582,-817,-493,-28,-60,39,238,514,-164,1,0,49,43,400,1,53298,1
2,29085,30350,31351,74549,32079,-4581,-807,-506,-13,-54,42,236,510,-156,1,0,49,43,440,1,53298,1
2,29102,30356,31352,74550,32089,-4599,-821,-514,-19,-35,32,234,520,-168,1,0,49,43,480,1,53298,1
2,29096,30355,31350,74551,32098,-4575,-812,-495,-30,-49,16,238,500,-176,1,0,49,43,520,1,53298,1
2,29096,30351,31355,74552,32106,-4574,-794,-503,-32,-41,13,242,514,-160,1,0,49,43,560,1,53298,1
2,29105,30352,31352,74553,32116,-4578,-816,-510,-24,-45,9,237,509,-165,1,0,49,43,600,1,53298,1
2,29092,30354,31349,74554,32125,-4576,-808,-502,-27,-48,8,233,517,-167,1,0,49,43,640,1,53298,1
2,29093,30347,31351,74555,32133,-4574,-801,-505,-32,-37,8,229,509,-161,1,0,49,43,680,1,53298,1
2,29103,30352,31355,74556,32141,-4586,-816,-509,-26,-27,-7,239,517,-163,1,0,49,43,720,1,53298,1
2,29100,30354,31355,74557,32150,-4585,-816,-502,-30,-36,2,233,505,-163,1,0,49,43,760,1,53298,1
2,29087,30354,31355,74558,32159,-4580,-822,-495,-30,-39,9,238,512,-154,1,0,49,43,800,1,53298,1
2,29075,30356,31351,74559,32168,-4586,-823,-494,-17,-26,18,238,502,-162,1,0,49,43,840,1,53298,1
2,29080,30350,31351,74560,32177,-4569,-806,-512,-10,-20,21,229,507,-159,1,0,49,43,880,1,53298,1
2,29057,30354,31352,74561,32184,-4579,-821,-503,-10,-7,36,233,509,-159,1,0,49,43,920,1,53298,1
2,29064,30350,31350,74562,32193,-4588,-817,-498,4,-8,32,248,512,-168,1,0,49,43,960,1,53298,1
1,29062,30356,31352,74563,0,-4583,-819,-517,0,-17,28,235,509,-169,1,0,49,44,0,0,53298,1
2,29069,30359,31353,74564,31518,-4584,-816,-504,-8,-18,43,231,517,-169,1,0,49,44,40,0,53298,1
2,29065,30357,31353,74565,31526,-4592,-808,-495,1,-28,46,241,503,-165,1,0,49,44,80,0,53298,1
2,29062,30356,31352,74566,31535,-4577,-809,-502,3,-3,26,226,508,-164,1,0,49,44,120,0,53298,1
2,29061,30359,31354,74567,31544,-4578,-818,-508,-22,0,12,236,504,-168,1,0,49,44,160,0,53298,1
2,29053,30359,31354,74568,31552,-4581,-813,-506,-19,-8,11,231,519,-161,1,0,49,44,200,0,53298,1
2,29064,30355,31355,74569,31561,-4583,-818,-491,9,-15,26,228,516,-160,1,0,49,44,240,0,53298,1
2,29046,30360,31353,74570,31569,-4579,-820,-509,10,1,44,234,506,-168,1,0,49,44,280,0,53298,1
2,29055,30357,31355,74571,31577,-4580,-816,-512,9,10,57,241,513,-167,1,0,49,44,320,0,53298,1
2,29054,30346,31351,74572,31586,-4577,-803,-509,7,8,33,240,516,-176,1,0,49,44,360,0,53298,1
2,29044,30348,31353,74573,31595,-4577,-815,-496,-4,-4,24,228,510,-154,1,0,49,44,400,0,53298,1
2,29056,30359,31355,74574,31604,-4574,-806,-512,-11,-14,16,233,517,-163,1,0,49,44,440,0,53298,1
2,29044,30350,31351,74575,31612,-4586,-806,-496,-13,-15,0,238,508,-168,1,0,49,44,480,0,53298,1
2,29047,30342,31350,74576,31622,-4571,-811,-508,-17,-14,10,238,508,-164,1,0,49,44,520,0,53298,1
2,29050,30330,31351,74577,31630,-4565,-811,-515,-16,-18,21,241,513,-167,1,0,49,44,560,0,53298,1
2,29037,30338,31350,74578,31639,-4564,-801,-499,-8,-21,31,245,517,-167,1,0,49,44,600,0,53298,1
2,29044,30334,31350,74579,31648,-4587,-815,-500,-21,-22,34,233,511,-173,1,0,49,44,640,0,53298,1
2,29051,30333,31353,74580,31658,-4571,-806,-510,-16,-26,23,242,514,-170,1,0,49,44,680,0,53298,1
2,29041,30328,31355,74581,31667,-4582,-823,-513,-24,-33,12,229,515,-149,1,0,49,44,720,0,53298,1
2,29045,30346,31350,74582,31677,-4574,-824,-513,-16,-33,14,232,508,-160,1,0,49,44,760,0,53298,1
2,29025,30341,31355,74583,31686,-4587,-814,-506,-11,-29,37,234,520,-166,1,0,49,44,800,0,53298,1
2,29063,30350,31355,74584,31695,-4573,-810,-506,2,-12,38,235,515,-165,1,0,49,44,840,0,53298,1
2,29029,30348,31350,74585,31705,-4568,-800,-513,-16,-6,35,235,507,-159,1,0,49,44,880,0,53298,1
2,29039,30353,31354,74586,31715,-4584,-810,-501,-13,-18,21,244,520,-166,1,0,49,44,920,0,53298,1
2,29043,30358,31350,74587,31724,-4572,-810,-500,-10,-35,16,237,513,-167,1,0,49,44,960,0,53298,1
1,29045,30353,31353,74588,0,-4581,-814,-504,-10,-29,23,235,513,-165,1,0,49,45,0,0,53298,1
2,29055,30355,31353,74589,31054,-4571,-812,-501,-8,-19,33,229,513,-161,1,0,49,45,40,0,53298,1
2,29075,30354,31351,74590,31062,-4578,-807,-518,-11,-10,34,231,517,-165,1,0,49,45,80,0,53298,1
2,29068,30358,31353,74591,31071,-4579,-807,-555,-14,-12,37,234,506,-168,1,0,49,45,120,0,53298,1
2,29080,30356,31355,74592,31079,-4552,-837,-591,-137,23,3,228,514,-176,1,0,49,45,160,0,53298,1
2,29070,30370,31355,74593,31087,-4592,-763,-444,-58,-26,-7,241,511,-173,1,0,49,45,200,0,53298,1
2,29062,30374,31355,74594,31096,-4564,-827,-548,-269,-2,-21,244,518,-164,1,0,49,45,240,0,53298,1
2,29062,30355,31354,74595,31105,-4588,-800,-445,-151,-36,-20,231,509,-165,1,0,49,45,280,0,53298,1
2,29023,30347,31357,74596,31114,-4604,-759,-612,-425,55,-64,230,518,-166,1,0,49,45,320,0,53298,1
2,29045,30345,31361,74597,31122,-4581,-846,-566,-535,42,-104,235,517,-159,1,0,49,45,360,0,53298,1
2,29060,30250,31360,74598,31132,-4583,-856,-502,-617,123,-130,238,514,-172,1,0,49,45,400,0,53298,1
2,29053,30137,31360,74599,31141,-4598,-801,-580,-517,64,-91,235,515,-163,1,0,49,45,440,0,53298,1
2,29054,30069,31363,74600,31151,-4549,-881,-495,-224,99,-85,237,517,-165,1,0,49,45,480,0,53298,1
2,29057,30008,31361,74601,31160,-4560,-808,-384,-27,40,-67,245,519,-163,1,0,49,45,520,0,53298,1
2,29064,30076,31364,74602,31170,-4569,-791,-387,-126,-134,-5,234,522,-166,1,0,49,45,560,0,53298,1
2,29043,30134,31360,74603,31179,-4556,-841,-483,-137,-217,46,231,515,-173,1,0,49,45,600,0,53298,1
2,29062,30100,31364,74604,31188,-4587,-818,-537,18,-129,63,239,507,-171,1,0,49,45,640,0,53298,1
2,29071,30166,31361,74605,31197,-4609,-831,-523,-136,-97,8,236,510,-164,1,0,49,45,680,0,53298,1
2,29067,30200,31373,74606,31206,-4617,-789,-551,-478,-117,-37,246,514,-168,1,0,49,45,720,0,53298,1
2,29066,30246,31367,74607,31214,-4520,-869,-533,-300,-51,-30,242,518,-168,1,0,49,45,760,0,53298,1
2,29063,30251,31372,74608,31222,-4526,-815,-407,51,53,-10,227,517,-167,1,0,49,45,800,0,53298,1
2,29080,30189,31363,74609,31232,-4562,-802,-468,136,-8,36,237,515,-155,1,0,49,45,840,0,53298,1
2,29064,30186,31363,74610,31240,-4548,-844,-497,213,32,46,241,521,-169,1,0,49,45,880,0,53298,1
2,29100,30185,31360,74611,31250,-4521,-867,-427,652,46,93,235,517,-175,1,0,49,45,920,0,53298,1
2,29067,30162,31366,74612,31259,-4621,-775,-492,997,6,194,241,509,-165,1,0,49,45,960,0,53298,1
1,29061,30171,31358,74613,0,-4645,-761,-589,654,-40,189,239,505,-155,1,0,49,46,0,1,53298,1
2,29041,30178,31357,74614,30591,-4564,-837,-519,407,-47,105,239,511,-177,1,0,49,46,40,1,53298,1
2,29059,30212,31355,74615,30601,-4588,-832,-537,269,-32,91,233,509,-161,1,0,49,46,80,1,53298,1
2,29044,30232,31355,74616,30610,-4593,-814,-529,336,-32,106,234,514,-170,1,0,49,46,120,1,53298,1
2,29052,30237,31355,74617,30619,-4568,-811,-529,353,-55,97,234,512,-166,1,0,49,46,160,1,53298,1
2,29050,30245,31352,74618,30628,-4583,-809,-502,216,-32,77,242,508,-166,1,0,49,46,200,1,53298,1
2,29075,30247,31353,74619,30636,-4577,-800,-529,141,-30,54,234,516,-162,1,0,49,46,240,1,53298,1
2,29064,30227,31355,74620,30644,-4583,-808,-517,110,-31,21,232,514,-174,1,0,49,46,280,1,53298,1
2,29050,30217,31348,74621,30652,-4580,-810,-506,86,-33,33,235,519,-161,1,0,49,46,320,1,53298,1
2,29061,30219,31352,74622,30660,-4588,-831,-509,57,-7,34,237,509,-169,1,0,49,46,360,1,53298,1
2,29061,30212,31354,74623,30669,-4579,-814,-507,41,-8,36,233,507,-167,1,0,49,46,400,1,53298,1
2,29053,30186,31352,74624,30678,-4578,-819,-505,29,-8,39,231,515,-167,1,0,49,46,440,1,53298,1
2,29033,30199,31348,74625,30687,-4573,-797,-506,18,-17,36,229,509,-163,1,0,49,46,480,1,53298,1
2,29054,30209,31352,74626,30696,-4575,-815,-496,12,-35,24,234,512,-158,1,0,49,46,520,1,53298,1
2,29051,30186,31355,74627,30705,-4593,-821,-499,-1,-31,33,227,511,-171,1,0,49,46,560,1,53298,1
2,29049,30202,31350,74628,30714,-4589,-812,-490,7,-29,25,235,517,-169,1,0,49,46,600,1,53298,1
2,29062,30196,31355,74629,30724,-4566,-801,-505,1,-22,26,233,517,-165,1,0,49,46,640,1,53298,1
2,29064,30203,31351,74630,30733,-4576,-817,-505,-8,-11,37,229,517,-159,1,0,49,46,680,1,53298,1
2,29070,30192,31352,74631,30743,-4570,-806,-492,-4,-7,23,233,505,-169,1,0,49,46,720,1,53298,1
2,29068,30190,31352,74632,30752,-4577,-818,-496,-1,-2,9,234,514,-156,1,0,49,46,760,1,53298,1
2,29074,30169,31353,74633,30761,-4580,-820,-510,-6,-15,23,232,518,-160,1,0,49,46,800,1,53298,1
2,29091,30177,31354,74634,30771,-4572,-806,-490,-10,-29,26,232,504,-162,1,0,49,46,840,1,53298,1
2,29119,30177,31354,74635,30781,-4569,-813,-500,-7,-22,30,239,509,-159,1,0,49,46,880,1,53298,1
2,29096,30177,31352,74636,30791,-4579,-805,-510,-11,-19,21,237,523,-167,1,0,49,46,920,1,53298,1
2,29082,30187,31353,74637,30800,-4582,-807,-489,-14,-12,27,241,517,-161,1,0,49,46,960,1,53298,1
1,29077,30184,31350,74638,0,-4571,-813,-522,-4,-10,15,237,513,-163,1,0,49,47,0,0,53298,1
2,29075,30185,31352,74639,30127,-4592,-817,-515,-16,-10,14,221,507,-155,1,0,49,47,40,0,53298,1
2,29094,30181,31352,74640,30136,-4583,-821,-512,-16,-19,16,238,520,-158,1,0,49,47,80,0,53298,1
2,29074,30167,31353,74641,30145,-4567,-808,-517,-19,-21,25,236,520,-166,1,0,49,47,120,0,53298,1
2,29075,30188,31354,74642,30154,-4577,-799,-503,-12,-18,29,236,516,-160,1,0,49,47,160,0,53298,1
2,29088,30170,31355,74643,30164,-4580,-810,-492,-25,-21,17,239,515,-169,1,0,49,47,200,0,53298,1
2,29094,30181,31352,74644,30174,-4582,-810,-523,-43,-23,16,236,514,-164,1,0,49,47,240,0,53298,1
2,29085,30184,31353,74645,30185,-4570,-813,-509,-45,-36,11,223,515,-159,1,0,49,47,280,0,53298,1
2,29084,30195,31353,74646,30194,-4583,-819,-490,-45,-39,14,236,508,-156,1,0,49,47,320,0,53298,1
2,29095,30182,31354,74647,30204,-4561,-800,-492,-27,-39,16,235,513,-165,1,0,49,47,360,0,53298,1
2,29085,30192,31355,74648,30213,-4583,-823,-505,-30,-22,20,245,505,-163,1,0,49,47,400,0,53298,1
2,29091,30184,31354,74649,30223,-4587,-813,-504,-40,-36,15,232,506,-160,1,0,49,47,440,0,53298,1
2,29075,30180,31354,74650,30233,-4577,-804,-505,-60,-29,5,231,503,-157,1,0,49,47,480,0,53298,1
2,29091,30175,31355,74651,30242,-4580,-819,-502,-74,-41,-3,230,514,-152,1,0,49,47,520,0,53298,1
2,29100,30173,31355,74652,30252,-4586,-809,-484,-119,-76,-22,235,515,-165,1,0,49,47,560,0,53298,1
2,29076,30154,31352,74653,30261,-4578,-786,-469,-222,-134,-30,240,516,-166,1,0,49,47,600,0,53298,1
2,29066,30194,31355,74654,30271,-4634,-700,-396,-581,-232,-136,232,508,-160,1,0,49,47,640,0,53298,1
2,29099,30203,31359,74655,30281,-4634,-749,-399,-1740,-517,-373,235,513,-167,1,0,49,47,680,0,53298,1
2,29066,30180,31355,74656,30290,-4570,-901,-523,-2482,-701,-265,240,504,-162,1,0,49,47,720,0,53298,1
2,29085,30181,31354,74657,30299,-4530,-891,-583,-2065,-637,-159,241,511,-159,1,0,49,47,760,0,53298,1
2,29084,30199,31355,74658,30309,-4586,-865,-486,-1213,-471,-118,243,515,-169,1,0,49,47,800,0,53298,1
2,29077,30205,31352,74659,30318,-4609,-763,-370,-1018,-498,-65,244,508,-162,1,0,49,47,840,0,53298,1
2,29065,30151,31350,74660,30328,-4543,-902,-480,-1302,-557,24,249,505,-161,1,0,49,47,880,0,53298,1
2,29072,30151,31350,74661,30336,-4528,-937,-578,-728,-251,61,240,504,-154,1,0,49,47,920,0,53298,1
2,29075,30153,31350,74662,30345,-4572,-839,-435,204,1,104,235,499,-159,1,0,49,47,960,0,53298,1
1,29087,30150,31350,74663,0,-4589,-777,-390,495,75,76,236,498,-156,1,0,49,48,0,1,53298,1
2,29086,30164,31351,74664,29663,-4578,-814,-437,290,93,-3,235,503,-171,1,0,49,48,40,1,53298,1
2,29097,30146,31350,74665,29672,-4574,-846,-454,198,159,21,246,506,-154,1,0,49,48,80,1,53298,1
2,29091,30145,31355,74666,29681,-4585,-854,-471,382,156,97,235,505,-165,1,0,49,48,120,1,53298,1
2,29080,30122,31354,74667,29690,-4616,-752,-384,715,125,188,235,511,-155,1,0,49,48,160,1,53298,1
2,29067,30101,31350,74668,29700,-4604,-787,-398,356,42,68,245,509,-157,1,0,49,48,200,1,53298,1
2,29096,30121,31352,74669,29710,-4577,-835,-453,70,40,80,243,509,-169,1,0,49,48,240,1,53298,1
2,29117,30100,31352,74670,29719,-4589,-799,-422,220,62,107,232,506,-162,1,0,49,48,280,1,53298,1
2,29080,30105,31355,74671,29730,-4588,-777,-413,274,36,58,234,506,-162,1,0,49,48,320,1,53298,1
2,29084,30121,31355,74672,29740,-4579,-805,-437,48,8,31,250,508,-168,1,0,49,48,360,1,53298,1
2,29076,30113,31350,74673,29750,-4571,-852,-473,30,32,72,242,510,-162,1,0,49,48,400,1,53298,1
2,29081,30066,31349,74674,29759,-4593,-796,-441,351,69,113,243,511,-163,1,0,49,48,440,1,53298,1
2,29076,30087,31351,74675,29769,-4601,-738,-383,318,13,61,238,508,-166,1,0,49,48,480,1,53298,1
2,29054,29993,31355,74676,29779,-4580,-800,-428,-361,-129,73,240,506,-164,1,0,49,48,520,1,53298,1
2,28905,30166,31362,74677,29790,-4591,-810,-258,-1483,-427,409,234,516,-170,1,0,49,48,560,1,53298,1
2,28997,30001,31365,74678,29801,-4602,-855,-291,-1286,-603,375,238,518,-152,1,0,49,48,600,1,53298,1
2,28989,29803,31359,74679,29812,-4654,-977,-355,-879,-674,288,238,508,-162,1,0,49,48,640,1,53298,1
2,29052,29825,31359,74680,29823,-4624,-777,-422,-1105,-624,81,239,511,-163,1,0,49,48,680,1,53298,1
2,29124,29865,31377,74681,29835,-4537,-719,-460,-827,-527,-90,248,504,-166,1,0,49,48,720,1,53298,1
2,29272,29909,31414,74682,29847,-4618,-743,-365,-361,-543,-26,242,516,-164,1,0,49,48,760,1,53298,1
2,29375,30095,31452,74683,29859,-4611,-722,-396,-351,-584,-70,246,502,-164,1,0,49,48,800,1,53298,1
2,29444,31216,31451,74684,29871,-4550,-772,-378,-200,-605,-54,235,511,-169,1,0,49,48,840,1,53298,1
2,29463,30159,31450,74685,29884,-4543,-754,-365,-102,-527,-23,247,511,-165,1,0,49,48,880,1,53298,1
2,29655,30080,31539,74686,29896,-4701,-842,-278,-6,-555,-28,237,501,-161,1,0,49,48,920,1,53298,1
2,30089,31459,31663,74687,29910,-4618,-722,-304,-143,-648,-148,238,512,-154,1,0,49,48,960,1,53298,1
1,30080,30250,31655,74688,0,-4665,-866,-251,-158,-712,-149,253,509,-161,1,0,49,49,0,1,53298,1
2,29838,30172,31533,74689,29203,-4778,-825,-291,-318,-751,-275,252,514,-152,1,0,49,49,40,1,53298,1
2,29646,29958,31482,74690,29217,-4597,-805,-219,113,-742,-47,245,509,-159,1,0,49,49,80,1,53298,1
2,29262,29964,31437,74691,29232,-4608,-751,-267,67,-820,-81,253,501,-159,1,0,49,49,120,1,53298,1
2,29105,30036,31452,74692,29247,-4604,-788,-227,82,-760,-86,249,513,-151,1,0,49,49,160,1,53298,1
2,31358,31547,31610,74693,29263,-4589,-808,-213,-70,-781,-124,249,505,-159,1,0,49,49,200,1,53298,1
2,31280,30965,31502,74694,29279,-4567,-762,-231,-105,-802,-193,254,502,-162,1,0,49,49,240,1,53298,1
2,32163,35364,32405,74695,29295,-4586,-821,-241,53,-673,-176,248,506,-148,1,0,49,49,280,1,53298,1
2,32054,33494,32244,74696,29312,-4617,-791,-176,41,-543,-173,247,505,-153,1,0,49,49,320,1,53298,1
2,32173,32375,32394,74697,29329,-4609,-828,-131,-23,-464,-149,248,514,-158,1,0,49,49,360,1,53298,1
2,32202,31553,32400,74698,29345,-4594,-815,-184,-62,-478,-185,253,507,-145,1,0,49,49,400,1,53298,1
2,32234,30842,32419,74699,29361,-4599,-841,-160,-99,-441,-226,256,504,-158,1,0,49,49,440,1,53298,1
2,32404,30777,32438,74700,29377,-4600,-832,-130,-4,-368,-170,245,505,-151,1,0,49,49,480,1,53298,1
2,32400,30799,32406,74701,29393,-4599,-775,-200,55,-268,-145,251,505,-141,1,0,49,49,520,1,53298,1
2,32389,30773,32443,74702,29409,-4603,-842,-165,-15,-52,-63,248,504,-164,1,0,49,49,560,1,53298,1
2,32308,30802,32441,74703,29425,-4606,-831,-134,17,25,-20,257,507,-153,1,0,49,49,600,1,53298,1
2,32266,30751,32428,74704,29440,-4628,-864,-108,-32,49,-46,246,510,-148,1,0,49,49,640,1,53298,1
2,32165,30827,32269,74705,29456,-4632,-877,-87,-38,-6,10,254,502,-148,1,0,49,49,680,1,53298,1
2,32072,30660,32234,74706,29472,-4585,-860,-136,-34,-32,56,255,505,-153,1,0,49,49,720,1,53298,1
2,32191,30753,32347,74707,29487,-4610,-834,-121,-11,4,30,247,503,-155,1,0,49,49,760,1,53298,1
2,32213,30793,32389,74708,29503,-4610,-847,-132,27,-6,44,243,501,-157,1,0,49,49,800,1,53298,1
2,32216,30829,32373,74709,29518,-4610,-870,-119,27,-6,39,254,508,-158,1,0,49,49,840,1,53298,1
2,32207,30923,32376,74710,29533,-4611,-863,-120,8,9,24,255,495,-149,1,0,49,49,880,1,53298,1
2,32204,31031,32374,74711,29548,-4604,-853,-135,-1,0,19,249,509,-155,1,0,49,49,920,1,53298,1
2,32191,31179,32366,74712,29564,-4622,-857,-112,19,1,38,251,495,-153,1,0,49,49,960,1,53298,1
1,32191,31242,32365,74713,0,-4599,-859,-117,45,-3,49,252,502,-158,1,0,49,50,0,0,53298,1
2,32203,31211,32365,74714,28742,-4597,-844,-131,16,-19,62,252,504,-154,1,0,49,50,40,0,53298,1
2,32205,31245,32369,74715,28757,-4607,-859,-123,7,-11,44,251,505,-151,1,0,49,50,80,0,53298,1
2,32198,31224,32369,74716,28771,-4615,-866,-127,12,-25,53,243,505,-139,1,0,49,50,120,0,53298,1
2,32202,31189,32368,74717,28786,-4601,-859,-116,23,-24,54,254,508,-146,1,0,49,50,160,0,53298,1
2,32216,31088,32375,74718,28801,-4598,-836,-130,-29,-17,44,254,506,-144,1,0,49,50,200,0,53298,1
2,32209,31005,32373,74719,28815,-4595,-832,-126,-12,-15,46,254,500,-154,1,0,49,50,240,0,53298,1
2,32211,30967,32374,74720,28831,-4592,-864,-123,-8,4,25,255,497,-153,1,0,49,50,280,0,53298,1
2,32213,30969,32380,74721,28846,-4598,-864,-125,17,9,31,250,494,-154,1,0,49,50,320,0,53298,1
2,32214,30988,32372,74722,28860,-4600,-844,-137,23,-12,63,257,503,-145,1,0,49,50,360,0,53298,1
2,32200,31022,32361,74723,28874,-4603,-858,-114,8,-5,57,253,507,-157,1,0,49,50,400,0,53298,1
2,32198,30976,32364,74724,28888,-4613,-868,-117,13,-13,48,254,498,-152,1,0,49,50,440,0,53298,1
2,32195,31008,32359,74725,28902,-4608,-841,-128,-9,-19,41,252,506,-142,1,0,49,50,480,0,53298,1
2,32200,30986,32366,74726,28915,-4623,-856,-119,24,-1,38,251,501,-149,1,0,49,50,520,0,53298,1
2,32201,30990,32370,74727,28929,-4612,-870,-128,24,-9,58,252,498,-150,1,0,49,50,560,0,53298,1
2,32083,30846,32242,74728,28943,-4606,-855,-122,24,8,50,258,500,-146,1,0,49,50,600,0,53298,1
2,32052,30740,32177,74729,28957,-4618,-880,-130,-22,25,24,245,507,-145,1,0,49,50,640,0,53298,1
2,31990,30655,32155,74730,28971,-4608,-848,-120,-13,9,48,252,506,-142,1,0,49,50,680,0,53298,1
2,31957,30569,32125,74731,28985,-4593,-851,-132,-5,-5,44,254,504,-150,1,0,49,50,720,0,53298,1
2,31933,30552,32078,74732,28999,-4614,-864,-110,15,4,34,253,507,-155,1,0,49,50,760,0,53298,1
2,31894,30547,32039,74733,29013,-4606,-867,-111,8,-16,41,258,500,-152,1,0,49,50,800,0,53298,1
2,31892,30501,32035,74734,29027,-4593,-851,-121,-37,-15,32,258,502,-158,1,0,49,50,840,0,53298,1
2,31884,30489,32028,74735,29040,-4617,-871,-115,-44,-11,33,255,503,-153,1,0,49,50,880,0,53298,1
2,31858,30459,31995,74736,29054,-4603,-858,-144,-22,-28,62,250,504,-144,1,0,49,50,920,0,53298,1
2,31851,30446,31973,74737,29068,-4607,-857,-135,1,-21,67,248,502,-142,1,0,49,50,960,0,53298,1
1,31822,30430,31965,74738,0,-4609,-840,-171,-37,-5,58,254,508,-148,1,0,49,51,0,0,53298,1
2,31816,30425,31951,74739,28277,-4623,-889,-95,46,25,17,252,506,-152,1,0,49,51,40,0,53298,1
2,31807,30411,31926,74740,28291,-4613,-883,-140,-15,-13,39,259,503,-155,1,0,49,51,80,0,53298,1
2,31789,30403,31924,74741,28306,-4613,-859,-136,-11,8,18,263,499,-151,1,0,49,51,120,0,53298,1
2,31784,30398,31918,74742,28321,-4621,-874,-134,71,17,21,251,493,-153,1,0,49,51,160,0,53298,1
2,31773,30393,31911,74743,28335,-4610,-864,-132,64,17,44,261,503,-153,1,0,49,51,200,0,53298,1
2,31760,30376,31899,74744,28348,-4610,-862,-101,76,30,26,258,508,-150,1,0,49,51,240,0,53298,1
2,31739,30377,31871,74745,28362,-4590,-846,-136,-17,15,24,258,502,-154,1,0,49,51,280,0,53298,1
2,31724,30375,31860,74746,28376,-4611,-856,-153,7,19,31,249,501,-151,1,0,49,51,320,0,53298,1
2,31722,30358,31864,74747,28391,-4609,-864,-114,61,27,24,248,508,-150,1,0,49,51,360,0,53298,1
2,31722,30374,31856,74748,28404,-4598,-878,-140,-30,30,13,258,510,-146,1,0,49,51,400,0,53298,1
2,31728,30373,31865,74749,28418,-4622,-853,-129,50,23,36,254,498,-152,1,0,49,51,440,0,53298,1
2,31736,30364,31873,74750,28432,-4609,-847,-144,104,40,9,257,499,-141,1,0,49,51,480,0,53298,1
2,31734,30379,31870,74751,28445,-4633,-894,-125,16,48,10,245,509,-141,1,0,49,51,520,0,53298,1
2,31730,30389,31866,74752,28458,-4603,-844,-137,-40,30,32,257,503,-151,1,0,49,51,560,0,53298,1
2,31719,30405,31858,74753,28471,-4610,-893,-120,18,38,56,257,501,-145,1,0,49,51,600,0,53298,1
2,31717,30423,31851,74754,28486,-4607,-861,-144,-23,21,149,252,512,-140,1,0,49,51,640,0,53298,1
2,31729,30409,31873,74755,28499,-4686,-958,-160,35,-27,324,258,508,-154,1,0,49,51,680,0,53298,1
2,31725,30435,31870,74756,28513,-4611,-825,-211,226,-278,624,246,502,-138,1,0,49,51,720,0,53298,1
2,31725,30415,31875,74757,28527,-4575,-788,-173,741,-297,568,248,504,-134,1,0,49,51,760,0,53298,1
2,31725,30420,31877,74758,28540,-4605,-812,-180,19,-231,496,249,503,-149,1,0,49,51,800,0,53298,1
2,31717,30399,31874,74759,28554,-4614,-695,-121,-667,-96,351,245,503,-145,1,0,49,51,840,0,53298,1
2,31717,30394,31875,74760,28567,-4586,-587,-188,-430,39,430,252,502,-146,1,0,49,51,880,0,53298,1
2,31708,30392,31875,74761,28580,-4473,-562,-178,-101,247,693,247,497,-149,1,0,49,51,920,0,53298,1
2,31702,30367,31870,74762,28592,-4507,-820,-106,-171,431,861,237,503,-145,1,0,49,51,960,0,53298,1
1,31697,30373,31867,74763,0,-4603,-1393,199,91,507,287,250,508,-148,1,0,49,52,0,0,53298,1
2,31690,30374,31860,74764,27814,-4738,-575,-264,143,271,-328,244,510,-160,1,0,49,52,40,0,53298,1
2,31635,30560,31837,74765,27826,-4571,-680,-319,643,335,-305,244,504,-150,1,0,49,52,80,0,53298,1
2,31974,30964,32296,74766,27837,-4127,-289,-881,771,1155,-858,258,508,-148,1,0,49,52,120,0,53298,1
2,31903,30760,32265,74767,27847,-4317,-304,-481,1043,2108,-223,250,508,-148,1,0,49,52,160,0,53298,1
2,31827,31136,32218,74768,27856,-4753,-469,-320,535,2097,708,247,505,-147,1,0,49,52,200,0,53298,1
2,31760,32024,32092,74769,27865,-4973,-815,-409,2124,1479,1743,230,510,-154,1,0,49,52,240,0,53298,1
2,31835,35015,32247,74770,27873,-5381,-1818,216,2833,789,1527,230,504,-142,1,0,49,52,280,0,53298,1
2,31737,34185,32206,74771,27881,-4538,-1553,490,220,120,112,237,511,-147,1,0,49,52,320,0,53298,1
2,31752,34370,32185,74772,27888,-4484,-159,-497,-1594,160,-362,235,509,-155,1,0,49,52,360,0,53298,1
2,31772,35037,32223,74773,27895,-4579,-1009,-459,-1073,682,23,235,507,-153,1,0,49,52,400,0,53298,1
2,31736,34432,32181,74774,27902,-4685,-732,-127,-668,454,-148,230,496,-152,1,0,49,52,440,0,53298,1
2,31734,32760,32181,74775,27910,-4537,-744,-332,-542,361,-240,234,510,-162,1,0,49,52,480,0,53298,1
2,31740,33289,32186,74776,27918,-4554,-822,-461,-76,257,-130,235,507,-155,1,0,49,52,520,0,53298,1
2,31738,33098,32182,74777,27927,-4612,-720,-333,135,63,-81,236,516,-150,1,0,49,52,560,0,53298,1
2,31767,34582,32219,74778,27936,-4575,-758,-373,172,-113,7,236,524,-160,1,0,49,52,600,0,53298,1
2,31732,34922,32164,74779,27945,-4571,-777,-389,329,-214,150,238,504,-156,1,0,49,52,640,0,53298,1
2,31740,34924,32147,74780,27954,-4616,-755,-351,674,-266,268,239,507,-151,1,0,49,52,680,0,53298,1
2,31756,34930,32206,74781,27962,-4592,-712,-367,687,-229,249,231,507,-159,1,0,49,52,720,0,53298,1
2,31262,33833,31668,74782,27971,-4582,-732,-371,560,-89,205,236,506,-156,1,0,49,52,760,0,53298,1
2,31162,33763,31519,74783,27979,-4609,-712,-357,322,-29,110,228,510,-152,1,0,49,52,800,0,53298,1
2,31110,32522,31479,74784,27987,-4580,-765,-388,6,44,51,231,495,-155,1,0,49,52,840,0,53298,1
2,31123,32129,31498,74785,27996,-4609,-731,-364,-19,48,81,230,508,-150,1,0,49,52,880,0,53298,1
2,31146,32167,31535,74786,28004,-4596,-733,-361,-17,33,19,229,495,-151,1,0,49,52,920,0,53298,1
2,31219,31496,31600,74787,28013,-4592,-736,-385,6,-45,33,229,505,-147,1,0,49,52,960,0,53298,1
1,31253,31229,31640,74788,0,-4579,-732,-383,6,-147,47,233,509,-147,1,0,49,53,0,0,53298,1
2,31330,31157,31719,74789,27347,-4601,-734,-369,-36,-103,32,227,507,-145,1,0,49,53,40,0,53298,1
2,31411,31111,31808,74790,27355,-4601,-746,-349,-137,-36,-3,221,503,-149,1,0,49,53,80,0,53298,1
2,31435,31524,31844,74791,27363,-4645,-698,-421,-234,38,-37,227,505,-149,1,0,49,53,120,0,53298,1
2,31419,31858,31812,74792,27372,-4576,-791,-342,-472,128,-80,235,513,-151,1,0,49,53,160,0,53298,1
2,31316,32104,31709,74793,27380,-4555,-736,-340,-242,76,-20,238,504,-154,1,0,49,53,200,0,53298,1
2,31222,32317,31595,74794,27388,-4613,-748,-385,-159,72,26,230,510,-154,1,0,49,53,240,0,53298,1
2,31198,32687,31578,74795,27397,-4589,-738,-379,-77,30,32,239,505,-153,1,0,49,53,280,0,53298,1
2,31194,30965,31570,74796,27405,-4588,-764,-348,0,10,25,232,498,-148,1,0,49,53,320,0,53298,1
2,31186,30771,31559,74797,27412,-4603,-722,-372,-5,40,33,236,514,-164,1,0,49,53,360,0,53298,1
2,31177,30869,31557,74798,27420,-4651,-691,-422,97,44,57,237,509,-155,1,0,49,53,400,0,53298,1
2,31165,31115,31546,74799,27428,-4662,-672,-499,146,48,224,229,507,-157,1,0,49,53,440,0,53298,1
2,31166,33253,31569,74800,27436,-4654,-893,-511,-635,-8,756,230,508,-156,1,0,49,53,480,0,53298,1
2,31129,33302,31545,74801,27445,-4458,-297,-927,-285,196,1366,223,509,-153,1,0,49,53,520,0,53298,1
2,31099,31599,31540,74802,27453,-4567,434,-1266,-396,1324,2402,224,524,-162,1,0,49,53,560,0,53298,1
2,31088,30492,31545,74803,27462,-4498,271,-1148,-1861,2321,3440,213,515,-167,1,0,49,53,600,0,53298,1
2,31074,30571,31526,74804,27471,-4121,161,-844,-787,3451,3675,210,528,-170,1,0,49,53,640,0,53298,1
2,31075,30082,31522,74805,27480,-4330,-416,-270,-853,4081,3946,196,524,-180,1,0,49,53,680,0,53298,1
2,31109,30218,31539,74806,27488,-4708,-1664,307,-642,3251,3005,182,528,-184,1,0,49,53,720,0,53298,1
2,31225,30526,31691,74807,27497,-4642,-2092,545,27,1172,663,184,534,-176,1,0,49,53,760,0,53298,1
2,31313,30766,31774,74808,27505,-4058,-3312,-202,-187,-857,-1902,181,529,-177,1,0,49,53,800,0,53298,1
2,31266,30512,31745,74809,27514,-5276,1112,-3083,-9093,-643,-717,200,530,-172,1,0,49,53,840,0,53298,1
2,31260,30469,31710,74810,27522,-4412,-911,-380,3724,-406,62,193,537,-173,1,0,49,53,880,0,53298,1
2,31261,30431,31717,74811,27530,-4372,-435,-483,-42,-406,127,190,530,-172,1,0,49,53,920,0,53298,1
2,31272,30448,31721,74812,27538,-4607,-252,-725,-802,-584,377,189,531,-173,1,0,49,53,960,0,53298,1
1,31282,30435,31716,74813,0,-4608,-317,-665,306,-843,155,189,537,-167,1,0,49,54,0,1,53298,1
2,31279,30430,31712,74814,26884,-4485,-467,-572,475,-692,82,184,530,-172,1,0,49,54,40,1,53298,1
2,31280,30434,31713,74815,26892,-4466,-358,-523,710,-456,347,182,536,-162,1,0,49,54,80,1,53298,1
2,31298,30455,31715,74816,26900,-4584,-245,-523,861,-25,609,182,530,-168,1,0,49,54,120,1,53298,1
2,31290,30415,31708,74817,26908,-4558,-303,-589,1119,268,650,182,530,-166,1,0,49,54,160,1,53298,1
2,31275,30421,31682,74818,26916,-4522,-285,-648,1206,448,562,180,536,-172,1,0,49,54,200,1,53298,1
2,31293,30407,31683,74819,26924,-4535,-282,-657,1435,454,394,184,528,-174,1,0,49,54,240,1,53298,1
2,31289,30404,31687,74820,26932,-4538,-284,-694,1305,419,242,178,534,-156,1,0,49,54,280,1,53298,1
2,31267,30386,31662,74821,26940,-4527,-306,-717,1018,362,133,179,539,-169,1,0,49,54,320,1,53298,1
2,31230,30290,31619,74822,26948,-4516,-311,-713,706,265,83,184,526,-172,1,0,49,54,360,1,53298,1
2,31190,30226,31559,74823,26956,-4526,-298,-689,568,148,113,175,537,-177,1,0,49,54,400,1,53298,1
2,31145,30162,31520,74824,26965,-4534,-298,-682,518,35,183,181,529,-173,1,0,49,54,440,1,53298,1
2,31111,30102,31485,74825,26973,-4532,-284,-699,474,-60,215,178,538,-168,1,0,49,54,480,1,53298,1
2,31090,30067,31453,74826,26982,-4519,-287,-675,467,-53,176,185,533,-179,1,0,49,54,520,1,53298,1
2,31081,30034,31440,74827,26990,-4526,-270,-661,404,31,103,176,536,-176,1,0,49,54,560,1,53298,1
2,31061,30003,31421,74828,26999,-4534,-297,-676,239,118,46,168,532,-164,1,0,49,54,600,1,53298,1
2,31061,30000,31420,74829,27007,-4530,-291,-700,131,132,44,174,528,-170,1,0,49,54,640,1,53298,1
2,31079,30036,31442,74830,27015,-4531,-305,-712,82,73,43,184,538,-176,1,0,49,54,680,1,53298,1
2,31103,30075,31465,74831,27023,-4532,-300,-688,87,-9,57,184,534,-172,1,0,49,54,720,1,53298,1
2,31142,30135,31503,74832,27031,-4518,-284,-664,128,-19,48,168,534,-178,1,0,49,54,760,1,53298,1
2,31178,30216,31545,74833,27040,-4526,-277,-684,80,36,22,175,535,-171,1,0,49,54,800,1,53298,1
2,31215,30269,31597,74834,27048,-4510,-282,-684,50,66,-6,181,539,-171,1,0,49,54,840,1,53298,1
2,31262,30319,31634,74835,27057,-4528,-306,-697,69,76,0,182,532,-168,1,0,49,54,880,1,53298,1
2,31308,30394,31685,74836,27066,-4518,-294,-703,67,54,29,170,540,-172,1,0,49,54,920,1,53298,1
2,31359,30449,31740,74837,27075,-4519,-295,-695,71,20,37,183,531,-175,1,0,49,54,960,1,53298,1
1,31327,30410,31716,74838,0,-4520,-289,-686,41,8,45,176,542,-176,1,0,49,55,0,1,53298,1
2,31285,30352,31652,74839,26422,-4523,-295,-711,28,-4,38,178,534,-160,1,0,49,55,40,1,53298,1
2,31260,30325,31643,74840,26430,-4525,-299,-714,33,-6,33,171,533,-161,1,0,49,55,80,1,53298,1
2,31249,30278,31622,74841,26439,-4522,-292,-700,24,-1,16,180,528,-180,1,0,49,55,120,1,53298,1
2,31259,30285,31621,74842,26447,-4532,-297,-711,9,2,14,169,537,-165,1,0,49,55,160,1,53298,1
2,31250,30271,31619,74843,26455,-4521,-297,-690,5,-7,19,175,537,-173,1,0,49,55,200,1,53298,1
2,31251,30284,31622,74844,26464,-4548,-319,-709,0,-22,35,173,533,-179,1,0,49,55,240,1,53298,1
2,31256,30285,31633,74845,26474,-4521,-289,-701,-20,-41,57,178,526,-166,1,0,49,55,280,1,53298,1
2,31251,30290,31620,74846,26483,-4535,-299,-693,19,-41,60,171,533,-173,1,0,49,55,320,1,53298,1
2,31275,30308,31640,74847,26491,-4521,-291,-712,13,-17,46,176,534,-164,1,0,49,55,360,1,53298,1
2,31263,30306,31636,74848,26500,-4523,-283,-693,-9,-18,43,177,529,-175,1,0,49,55,400,1,53298,1
2,31262,30284,31635,74849,26509,-4525,-288,-683,1,-24,22,175,525,-175,1,0,49,55,440,1,53298,1
2,31260,30275,31635,74850,26518,-4526,-292,-688,12,1,4,176,530,-164,1,0,49,55,480,1,53298,1
2,31267,30288,31645,74851,26526,-4539,-303,-698,-4,26,-1,184,536,-180,1,0,49,55,520,1,53298,1
2,31280,30316,31655,74852,26534,-4523,-287,-705,8,39,-4,182,532,-164,1,0,49,55,560,1,53298,1
2,31277,30308,31649,74853,26542,-4527,-288,-708,18,46,-7,179,529,-175,1,0,49,55,600,1,53298,1
2,31265,30272,31634,74854,26550,-4517,-285,-708,4,13,3,173,535,-175,1,0,49,55,640,1,53298,1
2,31261,30264,31636,74855,26558,-4528,-297,-704,-3,-24,16,180,534,-174,1,0,49,55,680,1,53298,1
2,31255,30268,31630,74856,26566,-4534,-303,-715,-18,-39,40,177,523,-177,1,0,49,55,720,1,53298,1
2,31250,30254,31619,74857,26574,-4528,-293,-696,-15,-54,42,182,524,-174,1,0,49,55,760,1,53298,1
2,31242,30248,31606,74858,26583,-4528,-289,-711,-11,-38,33,177,529,-179,1,0,49,55,800,1,53298,1
2,31239,30247,31609,74859,26592,-4526,-294,-693,-24,-19,16,164,536,-168,1,0,49,55,840,1,53298,1
2,31231,30237,31600,74860,26601,-4514,-285,-706,-22,-7,19,174,532,-174,1,0,49,55,880,1,53298,1
2,31205,30213,31570,74861,26609,-4531,-302,-691,-13,-12,31,178,530,-172,1,0,49,55,920,1,53298,1
2,31196,30218,31557,74862,26618,-4514,-286,-705,-18,-22,25,172,522,-178,1,0,49,55,960,1,53298,1
1,31186,30197,31556,74863,0,-4528,-290,-714,-20,-26,27,181,531,-175,1,0,49,56,0,0,53298,1
2,31186,30204,31554,74864,25960,-4524,-300,-703,-32,-39,22,175,529,-167,1,0,49,56,40,0,53298,1
2,31175,30172,31537,74865,25969,-4527,-288,-695,-31,-36,17,178,530,-178,1,0,49,56,80,0,53298,1
2,31168,30152,31535,74866,25978,-4529,-295,-697,-39,-32,18,176,532,-172,1,0,49,56,120,0,53298,1
2,31158,30129,31520,74867,25988,-4521,-264,-676,-61,-25,1,170,534,-174,1,0,49,56,160,0,53298,1
2,31147,30100,31510,74868,25997,-4522,-276,-710,-172,-16,-65,181,533,-173,1,0,49,56,200,0,53298,1
2,31138,30088,31503,74869,26007,-4531,-312,-710,-160,2,-61,169,543,-171,1,0,49,56,240,0,53298,1
2,31133,30084,31498,74870,26017,-4516,-303,-715,-91,14,-56,176,534,-170,1,0,49,56,280,0,53298,1
2,31128,30071,31496,74871,26026,-4528,-311,-713,-30,12,-16,179,537,-173,1,0,49,56,320,0,53298,1
2,31123,30072,31488,74872,26035,-4521,-285,-703,-32,-9,2,178,532,-172,1,0,49,56,360,0,53298,1
2,31118,30058,31486,74873,26045,-4536,-308,-695,-41,-13,-5,171,533,-179,1,0,49,56,400,0,53298,1
2,31117,30063,31485,74874,26055,-4524,-299,-697,-77,-13,-16,179,543,-169,1,0,49,56,440,0,53298,1
2,31111,30051,31477,74875,26066,-4534,-310,-693,-167,-36,-60,174,532,-166,1,0,49,56,480,0,53298,1
2,31109,30036,31480,74876,26075,-4526,-299,-687,-187,-21,-56,183,539,-169,1,0,49,56,520,0,53298,1
2,31112,30044,31481,74877,26085,-4529,-323,-695,-225,-15,-61,178,522,-174,1,0,49,56,560,0,53298,1
2,31105,30037,31477,74878,26095,-4524,-292,-701,-207,-20,-54,184,532,-176,1,0,49,56,600,0,53298,1
2,31106,30029,31474,74879,26104,-4533,-304,-694,-217,-48,-71,181,539,-171,1,0,49,56,640,0,53298,1
2,31102,30012,31465,74880,26114,-4534,-308,-693,-177,-52,-56,178,526,-174,1,0,49,56,680,0,53298,1
2,31090,29995,31462,74881,26123,-4529,-334,-704,-157,-50,-13,178,520,-170,1,0,49,56,720,0,53298,1
2,31083,29984,31460,74882,26132,-4535,-313,-688,-34,-24,30,181,521,-169,1,0,49,56,760,0,53298,1
2,31084,29991,31456,74883,26141,-4525,-300,-682,-8,-41,28,173,533,-161,1,0,49,56,800,0,53298,1
2,31081,29975,31450,74884,26150,-4526,-314,-700,-44,-18,30,174,540,-172,1,0,49,56,840,0,53298,1
2,31075,29969,31445,74885,26159,-4525,-307,-690,-40,-19,30,181,521,-171,1,0,49,56,880,0,53298,1
2,31069,29954,31439,74886,26167,-4540,-317,-687,-30,-21,19,167,535,-173,1,0,49,56,920,0,53298,1
2,31061,29939,31430,74887,26177,-4515,-292,-683,-84,-30,-4,187,531,-171,1,0,49,56,960,0,53298,1
1,31052,29944,31417,74888,0,-4579,-265,-624,-437,-98,-12,176,526,-168,1,0,49,57,0,0,53298,1
2,31025,31210,31415,74889,25500,-4595,-406,-418,-2956,-676,105,186,540,-168,1,0,49,57,40,0,53298,1
2,31017,31050,31411,74890,25510,-4562,-699,-525,-1983,-427,143,187,531,-161,1,0,49,57,80,0,53298,1
2,31036,30453,31428,74891,25519,-4816,-792,-434,-2506,-675,-258,187,535,-175,1,0,49,57,120,0,53298,1
2,31160,30134,31528,74892,25530,-4948,-286,-501,-2840,-897,-703,191,533,-169,1,0,49,57,160,0,53298,1
2,31480,30669,31874,74893,25541,-4436,-142,-500,-1514,-993,-432,191,527,-173,1,0,49,57,200,0,53298,1
2,31661,30566,31999,74894,25553,-4498,-254,-484,-1109,-1420,-178,199,525,-185,1,0,49,57,240,0,53298,1
2,31973,30959,32349,74895,25565,-4328,-300,-544,-1676,-1894,-575,202,524,-166,1,0,49,57,280,0,53298,1
2,31954,30660,32277,74896,25579,-4627,-135,-565,-1646,-2080,-948,203,527,-159,1,0,49,57,320,0,53298,1
2,32137,30756,32294,74897,25593,-4288,-212,-621,-982,-2061,-635,210,524,-158,1,0,49,57,360,0,53298,1
2,32188,31776,32395,74898,25609,-4520,-152,-561,-508,-1553,-774,203,521,-153,1,0,49,57,400,0,53298,1
2,32217,31055,32411,74899,25625,-4546,-200,-518,-583,-1056,-822,204,524,-168,1,0,49,57,440,0,53298,1
2,32271,30828,32428,74900,25641,-4583,-355,-429,-482,-760,-555,209,523,-147,1,0,49,57,480,0,53298,1
2,32257,31203,32404,74901,25658,-4532,-262,-488,-144,-524,-410,210,526,-160,1,0,49,57,520,0,53298,1
2,32275,30994,32416,74902,25674,-4544,-296,-383,6,-54,-91,217,523,-159,1,0,49,57,560,0,53298,1
2,32224,30767,32369,74903,25690,-4631,-418,-228,64,69,-73,216,528,-158,1,0,49,57,600,0,53298,1
2,32108,30641,32249,74904,25706,-4587,-419,-293,-205,-58,17,222,516,-154,1,0,49,57,640,0,53298,1
2,32059,30669,32217,74905,25722,-4572,-386,-316,-20,-28,41,212,526,-158,1,0,49,57,680,0,53298,1
2,32103,30871,32232,74906,25738,-4586,-426,-300,95,66,1,214,522,-154,1,0,49,57,720,0,53298,1
2,32243,31724,32391,74907,25754,-4588,-384,-318,89,51,18,210,522,-158,1,0,49,57,760,0,53298,1
2,32254,31124,32400,74908,25768,-4586,-399,-339,144,74,19,217,519,-159,1,0,49,57,800,0,53298,1
2,32232,31903,32371,74909,25783,-4577,-397,-336,92,53,14,213,525,-163,1,0,49,57,840,0,53298,1
2,32228,32248,32374,74910,25797,-4575,-402,-328,62,15,26,215,523,-151,1,0,49,57,880,0,53298,1
2,32237,33643,32375,74911,25811,-4568,-380,-353,23,-4,24,207,519,-147,1,0,49,57,920,0,53298,1
2,32225,31999,32374,74912,25825,-4595,-406,-312,79,7,17,209,517,-155,1,0,49,57,960,0,53298,1
1,32230,32516,32373,74913,0,-4588,-426,-305,172,10,32,210,514,-156,1,0,49,58,0,1,53298,1
2,32235,32443,32375,74914,25042,-4569,-369,-350,107,7,59,212,520,-154,1,0,49,58,40,1,53298,1
2,32235,32323,32377,74915,25056,-4591,-419,-329,177,54,26,202,528,-152,1,0,49,58,80,1,53298,1
2,32235,31778,32380,74916,25070,-4586,-393,-357,189,34,57,208,518,-140,1,0,49,58,120,1,53298,1
2,32229,31325,32369,74917,25085,-4587,-429,-322,190,26,43,209,521,-151,1,0,49,58,160,1,53298,1
2,32235,31233,32382,74918,25099,-4584,-398,-345,98,9,44,213,523,-155,1,0,49,58,200,1,53298,1
2,32215,31595,32362,74919,25113,-4580,-411,-340,98,28,21,210,526,-162,1,0,49,58,240,1,53298,1
2,32225,31693,32371,74920,25127,-4589,-419,-340,123,33,12,218,518,-154,1,0,49,58,280,1,53298,1
2,32167,31504,32316,74921,25141,-4584,-413,-346,46,41,12,216,524,-156,1,0,49,58,320,1,53298,1
2,32172,31650,32312,74922,25155,-4590,-414,-342,58,39,10,217,521,-155,1,0,49,58,360,1,53298,1
2,32177,31545,32318,74923,25169,-4566,-405,-346,27,49,6,220,514,-156,1,0,49,58,400,1,53298,1
2,32137,31608,32292,74924,25182,-4605,-430,-346,48,58,12,209,527,-151,1,0,49,58,440,1,53298,1
2,32145,33793,32287,74925,25196,-4590,-421,-336,88,49,15,212,512,-152,1,0,49,58,480,1,53298,1
2,32136,34052,32277,74926,25210,-4587,-418,-350,30,28,11,222,516,-152,1,0,49,58,520,1,53298,1
2,32125,32545,32279,74927,25223,-4581,-399,-362,-27,10,13,219,515,-155,1,0,49,58,560,1,53298,1
2,32111,32029,32262,74928,25236,-4595,-450,-354,59,2,14,214,522,-140,1,0,49,58,600,1,53298,1
2,32121,31750,32263,74929,25250,-4578,-399,-351,76,-13,41,215,523,-147,1,0,49,58,640,1,53298,1
2,32102,31690,32261,74930,25264,-4595,-469,-338,41,19,25,209,517,-159,1,0,49,58,680,1,53298,1
2,32108,31573,32242,74931,25277,-4568,-399,-352,9,13,40,212,526,-154,1,0,49,58,720,1,53298,1
2,32103,31365,32259,74932,25291,-4579,-420,-368,72,22,18,211,523,-159,1,0,49,58,760,1,53298,1
2,32099,30941,32260,74933,25304,-4594,-428,-351,-31,7,34,215,525,-147,1,0,49,58,800,1,53298,1
2,32097,31051,32256,74934,25318,-4591,-422,-357,-5,-11,29,220,516,-160,1,0,49,58,840,1,53298,1
2,32085,30997,32246,74935,25332,-4594,-426,-348,-23,-9,37,210,518,-164,1,0,49,58,880,1,53298,1
2,32092,30927,32242,74936,25346,-4565,-397,-359,-57,-13,34,215,513,-153,1,0,49,58,920,1,53298,1
2,32088,30992,32248,74937,25359,-4597,-460,-356,14,-7,33,214,522,-158,1,0,49,58,960,1,53298,1
1,32085,31009,32240,74938,0,-4569,-392,-385,-53,-28,50,216,522,-152,1,0,49,59,0,1,53298,1
2,32077,31091,32235,74939,24580,-4576,-455,-333,40,28,11,216,510,-156,1,0,49,59,40,1,53298,1
2,32079,31199,32230,74940,24593,-4582,-413,-359,-50,-19,52,218,522,-164,1,0,49,59,80,1,53298,1
2,32076,31142,32231,74941,24606,-4580,-423,-366,-17,-14,41,218,518,-160,1,0,49,59,120,1,53298,1
2,32076,30996,32231,74942,24619,-4594,-448,-335,3,-12,40,212,518,-152,1,0,49,59,160,1,53298,1
2,32078,31022,32229,74943,24632,-4562,-405,-365,-65,-36,65,211,519,-159,1,0,49,59,200,1,53298,1
2,32076,30967,32237,74944,24644,-4574,-421,-350,-29,-30,56,213,515,-149,1,0,49,59,240,1,53298,1
2,32080,30960,32235,74945,24657,-4588,-425,-346,-41,-52,87,208,524,-160,1,0,49,59,280,1,53298,1
2,32086,30923,32249,74946,24670,-4593,-441,-333,-70,-58,80,216,524,-152,1,0,49,59,320,1,53298,1
2,32094,30949,32250,74947,24683,-4603,-423,-328,-76,-144,159,211,517,-161,1,0,49,59,360,1,53298,1
2,32105,30899,32251,74948,24696,-4572,-408,-302,-113,-203,173,216,528,-158,1,0,49,59,400,1,53298,1
2,32113,30879,32262,74949,24710,-4576,-346,-380,-104,-178,165,217,521,-155,1,0,49,59,440,1,53298,1
2,32112,30791,32254,74950,24723,-4588,-394,-400,-43,-69,94,216,522,-154,1,0,49,59,480,1,53298,1
2,32110,30799,32252,74951,24737,-4579,-409,-362,-52,58,2,207,527,-161,1,0,49,59,520,1,53298,1
2,32105,30790,32248,74952,24750,-4594,-423,-311,-2,56,-39,209,521,-165,1,0,49,59,560,1,53298,1
2,32110,30792,32255,74953,24764,-4590,-422,-338,-100,-49,35,214,514,-160,1,0,49,59,600,1,53298,1
2,32111,30790,32257,74954,24778,-4570,-409,-351,-74,-28,22,220,522,-154,1,0,49,59,640,1,53298,1
2,32098,30758,32251,74955,24792,-4611,-431,-330,49,1,24,210,522,-156,1,0,49,59,680,1,53298,1
2,32103,30730,32251,74956,24806,-4576,-404,-351,-57,-31,72,213,515,-161,1,0,49,59,720,1,53298,1
2,32106,30706,32253,74957,24820,-4581,-412,-358,-41,-6,56,221,525,-151,1,0,49,59,760,1,53298,1
2,32106,30704,32254,74958,24834,-4587,-420,-345,-34,-9,46,219,523,-155,1,0,49,59,800,1,53298,1
2,32107,30703,32258,74959,24848,-4580,-410,-345,-64,-21,19,210,524,-156,1,0,49,59,840,1,53298,1
2,32115,30701,32261,74960,24861,-4578,-418,-330,-15,-5,14,221,517,-157,1,0,49,59,880,1,53298,1
2,32108,30697,32260,74961,24875,-4569,-404,-350,-9,4,22,217,531,-151,1,0,49,59,920,1,53298,1
2,32115,30699,32262,74962,24888,-4585,-421,-343,-13,9,22,215,521,-161,1,0,49,59,960,1,53298,1
1,32115,30695,32271,74963,0,-4578,-428,-320,-49,-2,28,213,523,-167,1,0,50,0,0,0,53298,1
2,32113,30694,32265,74964,24118,-4562,-369,-367,-16,1,26,213,519,-155,1,0,50,0,40,0,53298,1
2,32106,30687,32265,74965,24132,-4570,-478,-303,105,79,-49,214,522,-144,1,0,50,0,80,0,53298,1
2,32113,30686,32268,74966,24145,-4582,-399,-357,8,10,19,217,527,-151,1,0,50,0,120,0,53298,1
2,32101,30690,32256,74967,24158,-4536,-344,-413,94,73,-35,207,517,-157,1,0,50,0,160,0,53298,1
2,32100,30685,32254,74968,24172,-4597,-515,-268,223,190,-87,212,526,-154,1,0,50,0,200,0,53298,1
2,32094,30684,32255,74969,24185,-4606,-426,-386,-52,77,-12,207,519,-151,1,0,50,0,240,0,53298,1
2,32075,30692,32248,74970,24197,-4539,-474,-325,250,109,-47,218,518,-154,1,0,50,0,280,0,53298,1
2,31970,30635,32151,74971,24209,-4599,-401,-439,244,143,-38,224,522,-156,1,0,50,0,320,0,53298,1
2,31841,30672,32132,74972,24221,-4423,-116,-733,228,538,-214,218,526,-154,1,0,50,0,360,0,53298,1
2,31698,30606,31948,74973,24233,-4496,-210,-695,839,982,-170,208,516,-160,1,0,50,0,400,0,53298,1
2,31782,30618,32215,74974,24244,-4095,358,-1164,476,1817,148,216,520,-160,1,0,50,0,440,0,53298,1
2,31813,30740,32220,74975,24254,-4037,603,-708,2489,2417,1502,203,519,-167,1,0,50,0,480,0,53298,1
2,31733,32357,32178,74976,24265,-3981,-195,-892,4972,1910,3001,187,527,-165,1,0,50,0,520,0,53298,1
2,31650,31953,32140,74977,24274,-6483,-1119,191,5693,1287,2859,176,528,-154,1,0,50,0,560,0,53298,1
2,31728,30663,32205,74978,24285,-4900,-2108,1163,725,51,-233,178,538,-158,1,0,50,0,600,0,53298,1
2,31699,30714,32165,74979,24295,-4161,664,-740,-2204,-336,-437,182,534,-174,1,0,50,0,640,0,53298,1
2,31713,30631,32180,74980,24304,-4393,-630,-920,-2196,829,-195,180,538,-162,1,0,50,0,680,0,53298,1
2,31694,30785,32180,74981,24314,-4652,-554,-446,-470,327,-176,183,525,-169,1,0,50,0,720,0,53298,1
2,31695,30740,32164,74982,24324,-4560,-213,-368,-84,310,24,189,535,-165,1,0,50,0,760,0,53298,1
2,31678,31333,32155,74983,24333,-4535,-252,-918,-338,192,-87,194,524,-168,1,0,50,0,800,0,53298,1
2,31685,30927,32151,74984,24344,-4517,-413,-586,-301,-20,-211,184,524,-166,1,0,50,0,840,0,53298,1
2,31675,30709,32130,74985,24354,-4499,-392,-412,-90,-21,-83,182,530,-164,1,0,50,0,880,0,53298,1
2,31675,30638,32133,74986,24364,-4522,-371,-632,325,90,168,181,531,-173,1,0,50,0,920,0,53298,1
2,31684,30656,32143,74987,24374,-4532,-348,-546,961,95,322,184,526,-170,1,0,50,0,960,0,53298,1
1,31666,30685,32127,74988,0,-4590,-273,-588,982,128,427,181,535,-171,1,0,50,1,0,1,53298,1
2,31689,30718,32131,74989,23655,-4559,-315,-694,608,176,326,183,527,-157,1,0,50,1,40,1,53298,1
2,31675,30860,32124,74990,23664,-4536,-320,-714,368,127,180,188,526,-166,1,0,50,1,80,1,53298,1
2,31431,30982,31863,74991,23674,-4547,-353,-656,346,56,136,177,525,-173,1,0,50,1,120,1,53298,1
2,31508,30927,31981,74992,23683,-4537,-308,-642,389,4,173,177,531,-171,1,0,50,1,160,1,53298,1
2,31553,30846,32020,74993,23692,-4531,-282,-652,371,-29,149,183,531,-163,1,0,50,1,200,1,53298,1
2,31670,30875,32090,74994,23700,-4539,-306,-626,213,-24,91,187,515,-161,1,0,50,1,240,1,53298,1
2,31667,30817,32118,74995,23708,-4543,-319,-654,41,19,38,181,529,-173,1,0,50,1,280,1,53298,1
2,31668,30741,32117,74996,23717,-4539,-315,-648,22,32,21,179,529,-171,1,0,50,1,320,1,53298,1
2,31550,30583,32024,74997,23725,-4547,-320,-650,29,31,16,183,523,-165,1,0,50,1,360,1,53298,1
2,31513,30514,31929,74998,23734,-4542,-327,-646,-23,-3,18,180,524,-170,1,0,50,1,400,1,53298,1
2,31408,30424,31840,74999,23743,-4540,-320,-644,-30,-17,28,175,527,-161,1,0,50,1,440,1,53298,1
2,31341,30320,31780,75000,23752,-4534,-305,-651,-33,-10,27,187,529,-163,1,0,50,1,480,1,53298,1
2,31331,30295,31749,75001,23761,-4551,-324,-641,-21,-11,9,180,518,-168,1,0,50,1,520,1,53298,1
2,31299,30264,31732,75002,23771,-4531,-318,-631,-22,-5,11,179,533,-173,1,0,50,1,560,1,53298,1
2,31305,30263,31726,75003,23781,-4528,-307,-648,-1,-14,30,180,528,-164,1,0,50,1,600,1,53298,1
2,31293,30259,31716,75004,23790,-4541,-321,-634,7,-11,38,173,523,-167,1,0,50,1,640,1,53298,1
2,31286,30251,31701,75005,23800,-4537,-311,-661,-11,-11,34,182,528,-164,1,0,50,1,680,1,53298,1
2,31261,30232,31670,75006,23810,-4540,-315,-652,-13,-2,16,189,525,-171,1,0,50,1,720,1,53298,1
2,31210,30179,31627,75007,23820,-4544,-323,-664,-77,-4,0,170,534,-156,1,0,50,1,760,1,53298,1
2,31149,30163,31584,75008,23829,-4640,-159,-777,-831,-2,-182,179,529,-165,1,0,50,1,800,1,53298,1
2,31119,30141,31537,75009,23838,-4501,-352,-635,-1290,-131,-469,188,528,-180,1,0,50,1,840,1,53298,1
2,31097,30075,31526,75010,23848,-4514,-367,-561,-877,-136,-240,185,529,-171,1,0,50,1,880,1,53298,1
2,31084,30194,31511,75011,23857,-4527,-319,-590,-375,-99,-47,189,529,-163,1,0,50,1,920,1,53298,1
2,31075,30239,31499,75012,23866,-4533,-337,-604,52,-48,48,180,528,-172,1,0,50,1,960,1,53298,1
1,31074,30213,31501,75013,0,-4527,-326,-586,253,33,109,175,529,-155,1,0,50,2,0,1,53298,1
2,31071,30137,31493,75014,23193,-4537,-331,-634,439,97,176,173,527,-157,1,0,50,2,40,1,53298,1
2,31064,30137,31490,75015,23202,-4546,-310,-633,619,47,249,181,535,-169,1,0,50,2,80,1,53298,1
2,31050,30072,31472,75016,23212,-4550,-309,-668,478,8,225,174,524,-170,1,0,50,2,120,1,53298,1
2,31043,30054,31465,75017,23222,-4546,-309,-658,257,-42,157,182,528,-164,1,0,50,2,160,1,53298,1
2,31031,30038,31452,75018,23233,-4539,-304,-630,158,-60,110,179,523,-155,1,0,50,2,200,1,53298,1
2,31022,30003,31446,75019,23242,-4529,-312,-649,94,-39,82,185,525,-165,1,0,50,2,240,1,53298,1
2,31017,30005,31446,75020,23252,-4534,-303,-650,74,-19,67,181,527,-171,1,0,50,2,280,1,53298,1
2,31019,30033,31439,75021,23262,-4533,-313,-628,77,-13,55,187,533,-169,1,0,50,2,320,1,53298,1
2,31015,29996,31436,75022,23271,-4522,-304,-644,45,6,49,179,533,-163,1,0,50,2,360,1,53298,1
2,31016,29986,31441,75023,23281,-4539,-317,-622,47,1,40,184,528,-164,1,0,50,2,400,1,53298,1
2,31018,30036,31436,75024,23290,-4543,-319,-640,53,4,23,174,520,-166,1,0,50,2,440,1,53298,1
2,31014,30061,31434,75025,23299,-4549,-322,-633,4,1,12,190,528,-168,1,0,50,2,480,1,53298,1
2,31012,30019,31439,75026,23308,-4529,-299,-644,-6,-16,26,175,535,-165,1,0,50,2,520,1,53298,1
2,31008,30016,31430,75027,23318,-4543,-311,-634,-12,-24,35,183,539,-169,1,0,50,2,560,1,53298,1
2,31007,29983,31422,75028,23327,-4535,-307,-648,22,-23,51,185,531,-165,1,0,50,2,600,1,53298,1
2,31002,29943,31425,75029,23335,-4548,-307,-620,0,-5,28,183,531,-163,1,0,50,2,640,1,53298,1
2,31000,29919,31423,75030,23344,-4545,-314,-637,-21,-13,5,181,529,-169,1,0,50,2,680,1,53298,1
2,30992,29912,31412,75031,23353,-4530,-315,-649,-25,-1,7,175,531,-167,1,0,50,2,720,1,53298,1
2,30987,29905,31412,75032,23361,-4541,-310,-630,7,-6,31,177,541,-171,1,0,50,2,760,1,53298,1
2,30992,29908,31417,75033,23369,-4535,-301,-644,19,-18,43,178,528,-172,1,0,50,2,800,1,53298,1
2,30994,29914,31417,75034,23378,-4537,-299,-654,-8,-5,34,170,528,-168,1,0,50,2,840,1,53298,1
2,30993,29910,31416,75035,23387,-4537,-307,-626,-31,-8,26,176,522,-172,1,0,50,2,880,1,53298,1
2,30995,29908,31418,75036,23395,-4539,-304,-641,-34,-14,20,180,530,-176,1,0,50,2,920,1,53298,1
2,30997,29904,31417,75037,23404,-4535,-310,-624,-19,-34,20,178,528,-164,1,0,50,2,960,1,53298,1
1,30998,29923,31420,75038,0,-4534,-311,-643,-29,-33,24,187,525,-165,1,0,50,3,0,1,53298,1
2,31000,29922,31428,75039,22732,-4535,-308,-648,-46,-20,20,179,527,-155,1,0,50,3,40,1,53298,1
2,31002,29913,31425,75040,22740,-4541,-309,-634,-11,-9,25,182,530,-172,1,0,50,3,80,1,53298,1
2,31005,29922,31428,75041,22748,-4548,-310,-642,-18,-6,15,183,523,-169,1,0,50,3,120,1,53298,1
2,31005,29910,31431,75042,22756,-4546,-313,-634,-22,-11,20,170,534,-160,1,0,50,3,160,1,53298,1
2,31000,29903,31428,75043,22764,-4558,-306,-630,-58,-31,19,181,531,-167,1,0,50,3,200,1,53298,1
2,30992,29922,31421,75044,22774,-4557,-286,-531,-323,-160,59,179,531,-165,1,0,50,3,240,1,53298,1
2,30998,29932,31434,75045,22783,-4616,-595,-214,-1263,-281,171,186,532,-170,1,0,50,3,280,1,53298,1
2,31008,29925,31435,75046,22791,-4658,-1204,-291,-3285,-705,160,184,524,-160,1,0,50,3,320,1,53298,1
2,31003,30049,31422,75047,22799,-4842,-318,-563,-3535,-327,-612,190,532,-178,1,0,50,3,360,1,53298,1
2,31064,29960,31441,75048,22808,-5102,-367,-196,-1708,-935,-429,188,528,-172,1,0,50,3,400,1,53298,1
2,31253,31564,31657,75049,22817,-4492,-138,-614,-992,-1092,-102,196,526,-152,1,0,50,3,440,1,53298,1
2,31494,32278,31826,75050,22827,-3951,-104,-750,-284,-1622,-182,200,522,-168,1,0,50,3,480,1,53298,1
2,31960,32930,32318,75051,22839,-4357,14,-730,-694,-1368,-547,196,524,-166,1,0,50,3,520,1,53298,1
2,31973,32815,32238,75052,22850,-4584,-291,-552,-335,-1096,-412,195,521,-167,1,0,50,3,560,1,53298,1
2,31997,32823,32305,75053,22863,-4614,-238,-480,-122,-1151,-344,199,523,-157,1,0,50,3,600,1,53298,1
2,32083,33238,32364,75054,22876,-4512,-209,-500,-199,-1165,-282,208,518,-170,1,0,50,3,640,1,53298,1
2,32142,34132,32400,75055,22890,-4572,-323,-392,-289,-1060,-289,202,518,-158,1,0,50,3,680,1,53298,1
2,32190,34093,32406,75056,22905,-4571,-306,-422,-288,-988,-378,205,519,-163,1,0,50,3,720,1,53298,1
2,32213,32556,32407,75057,22922,-4517,-242,-423,-229,-801,-433,202,518,-162,1,0,50,3,760,1,53298,1
2,32242,31480,32430,75058,22938,-4567,-282,-381,-152,-529,-322,204,520,-160,1,0,50,3,800,1,53298,1
2,32240,31859,32416,75059,22954,-4510,-211,-489,-120,-128,-137,202,518,-158,1,0,50,3,840,1,53298,1
2,32245,30865,32440,75060,22968,-4594,-395,-227,116,256,-186,211,525,-155,1,0,50,3,880,1,53298,1
2,32234,30749,32400,75061,22982,-4598,-412,-328,-93,121,-110,210,516,-152,1,0,50,3,920,1,53298,1
2,32269,30791,32452,75062,22996,-4578,-363,-316,-153,10,-35,212,514,-152,1,0,50,3,960,1,53298,1
1,32227,30971,32409,75063,0,-4595,-421,-332,-2,53,-30,209,519,-161,1,0,50,4,0,1,53298,1
2,32223,30819,32413,75064,22275,-4597,-399,-292,-27,47,-14,218,520,-148,1,0,50,4,40,1,53298,1
2,32165,30744,32348,75065,22288,-4567,-377,-346,-11,1,31,213,517,-155,1,0,50,4,80,1,53298,1
2,32116,30712,32305,75066,22301,-4599,-398,-339,32,22,30,216,524,-150,1,0,50,4,120,1,53298,1
2,32090,30685,32277,75067,22314,-4576,-377,-362,-54,1,34,211,515,-165,1,0,50,4,160,1,53298,1
2,32058,30656,32255,75068,22326,-4572,-381,-344,-63,-9,18,208,528,-154,1,0,50,4,200,1,53298,1
2,32062,30662,32233,75069,22339,-4586,-377,-330,-27,-11,13,211,515,-157,1,0,50,4,240,1,53298,1
2,32034,30656,32206,75070,22352,-4591,-428,-350,-85,-11,15,204,522,-158,1,0,50,4,280,1,53298,1
2,32020,30680,32187,75071,22365,-4588,-382,-315,-51,-11,42,213,519,-159,1,0,50,4,320,1,53298,1
2,32013,30755,32188,75072,22379,-4594,-382,-340,-14,-4,40,214,524,-152,1,0,50,4,360,1,53298,1
2,32022,30702,32191,75073,22392,-4582,-399,-335,-21,18,16,206,522,-154,1,0,50,4,400,1,53298,1
2,31955,30645,32130,75074,22407,-4573,-386,-334,-36,8,22,216,516,-148,1,0,50,4,440,1,53298,1
2,31970,30680,32137,75075,22421,-4592,-393,-329,-13,-5,28,207,523,-153,1,0,50,4,480,1,53298,1
2,31972,30692,32150,75076,22435,-4576,-383,-349,-6,-13,41,213,517,-147,1,0,50,4,520,1,53298,1
2,31963,30681,32135,75077,22448,-4580,-377,-339,-22,13,30,206,520,-146,1,0,50,4,560,1,53298,1
2,31970,30704,32140,75078,22462,-4593,-404,-323,6,12,31,211,519,-157,1,0,50,4,600,1,53298,1
2,31994,30714,32190,75079,22476,-4583,-351,-325,91,10,46,214,520,-164,1,0,50,4,640,1,53298,1
2,32025,30748,32210,75080,22489,-4606,-430,-328,128,40,7,211,521,-161,1,0,50,4,680,1,53298,1
2,32031,30749,32215,75081,22503,-4583,-399,-338,90,18,27,211,515,-155,1,0,50,4,720,1,53298,1
2,32037,30734,32221,75082,22517,-4583,-380,-340,97,20,46,214,514,-148,1,0,50,4,760,1,53298,1
2,32031,30721,32206,75083,22530,-4586,-399,-334,-9,13,32,209,515,-153,1,0,50,4,800,1,53298,1
2,32058,30750,32229,75084,22543,-4578,-395,-344,-56,-12,34,208,528,-150,1,0,50,4,840,1,53298,1
2,32036,30745,32214,75085,22556,-4587,-374,-349,-3,-36,59,205,523,-147,1,0,50,4,880,1,53298,1
2,32048,30710,32232,75086,22569,-4589,-395,-352,-32,-14,39,209,517,-157,1,0,50,4,920,1,53298,1
2,32035,30692,32217,75087,22582,-4573,-399,-328,-31,1,28,216,520,-152,1,0,50,4,960,1,53298,1
1,32041,30694,32223,75088,0,-4583,-365,-354,-2,-5,40,219,519,-161,1,0,50,5,0,0,53298,1
2,32035,30709,32216,75089,21814,-4596,-421,-333,-27,-12,38,205,517,-153,1,0,50,5,40,0,53298,1
2,32035,30680,32215,75090,21827,-4581,-392,-323,-13,-28,43,206,530,-138,1,0,50,5,80,0,53298,1
2,32034,30689,32217,75091,21840,-4576,-379,-357,-32,-32,34,211,525,-153,1,0,50,5,120,0,53298,1
2,32040,30723,32224,75092,21853,-4593,-407,-345,-40,-17,21,207,517,-147,1,0,50,5,160,0,53298,1
2,32036,30725,32221,75093,21865,-4594,-402,-347,-33,-38,65,210,520,-160,1,0,50,5,200,0,53298,1
2,32049,30675,32228,75094,21878,-4580,-420,-334,-26,-31,64,206,520,-156,1,0,50,5,240,0,53298,1
2,32051,30690,32239,75095,21891,-4583,-379,-324,-45,-38,100,213,525,-157,1,0,50,5,280,0,53298,1
2,32059,30672,32232,75096,21905,-4569,-371,-352,-22,-33,63,211,519,-157,1,0,50,5,320,0,53298,1
2,32058,30676,32236,75097,21918,-4589,-377,-325,-19,-26,42,206,518,-156,1,0,50,5,360,0,53298,1
2,32066,30685,32255,75098,21931,-4587,-389,-359,-20,-54,68,217,521,-153,1,0,50,5,400,0,53298,1
2,32050,30670,32233,75099,21944,-4588,-395,-327,-14,-31,49,198,524,-144,1,0,50,5,440,0,53298,1
2,32048,30665,32230,75100,21958,-4605,-412,-329,-37,-30,53,209,511,-155,1,0,50,5,480,0,53298,1
2,32069,30664,32233,75101,21972,-4570,-352,-363,9,-9,50,211,519,-155,1,0,50,5,520,0,53298,1
2,32065,30675,32251,75102,21987,-4635,-403,-335,29,6,28,212,514,-142,1,0,50,5,560,0,53298,1
2,32063,30672,32243,75103,22001,-4573,-364,-356,-62,-20,31,213,521,-145,1,0,50,5,600,0,53298,1
2,32060,30679,32246,75104,22015,-4591,-409,-328,-3,53,-27,213,517,-163,1,0,50,5,640,0,53298,1
2,32043,30670,32230,75105,22028,-4573,-333,-380,-8,64,-17,213,513,-155,1,0,50,5,680,0,53298,1
2,31956,30697,32135,75106,22042,-4468,39,-746,227,358,-179,212,516,-156,1,0,50,5,720,0,53298,1
2,31721,30963,32022,75107,22054,-3587,614,-1231,1006,2092,-761,207,511,-161,1,0,50,5,760,0,53298,1
2,31867,30717,32231,75108,22064,-4395,269,-889,1537,2773,1077,203,513,-151,1,0,50,5,800,0,53298,1
2,31763,30888,32206,75109,22073,-4598,-783,-632,2264,2125,2390,193,531,-165,1,0,50,5,840,0,53298,1
2,31729,32567,32194,75110,22082,-5674,-592,148,3147,379,2203,183,521,-167,1,0,50,5,880,0,53298,1
2,31729,32614,32169,75111,22090,-4858,-1491,203,475,-841,1011,191,515,-155,1,0,50,5,920,0,53298,1
2,31653,31167,32115,75112,22099,-4488,-176,-514,-3593,53,-359,182,526,-146,1,0,50,5,960,0,53298,1
1,31587,30840,32055,75113,0,-4485,-160,-811,-3575,499,65,183,523,-153,1,0,50,6,0,1,53298,1
2,31465,30759,31920,75114,21352,-4590,-671,-141,-1355,187,-172,186,522,-162,1,0,50,6,40,1,53298,1
2,31459,30733,31932,75115,21361,-4565,-162,-260,-444,166,35,192,524,-148,1,0,50,6,80,1,53298,1
2,31507,30969,31965,75116,21370,-4444,-355,-587,670,443,140,185,525,-153,1,0,50,6,120,1,53298,1
2,31469,30846,31921,75117,21379,-4557,-275,-553,1058,335,172,183,525,-157,1,0,50,6,160,1,53298,1
2,31434,30775,31874,75118,21388,-4581,-271,-448,1127,253,230,182,532,-158,1,0,50,6,200,1,53298,1
2,31491,31145,31956,75119,21397,-4557,-287,-574,1475,206,308,195,521,-173,1,0,50,6,240,1,53298,1
2,31703,32020,32163,75120,21406,-4571,-268,-614,1569,194,312,181,527,-153,1,0,50,6,280,1,53298,1
2,31477,31197,31938,75121,21415,-4572,-257,-598,1137,207,157,188,530,-164,1,0,50,6,320,1,53298,1
2,31163,30668,31572,75122,21424,-4533,-247,-586,586,232,70,189,533,-165,1,0,50,6,360,1,53298,1
2,31174,30526,31586,75123,21433,-4538,-277,-615,305,210,23,185,529,-159,1,0,50,6,400,1,53298,1
2,31365,30860,31768,75124,21442,-4545,-322,-630,336,166,18,184,522,-158,1,0,50,6,440,1,53298,1
2,31424,30844,31851,75125,21451,-4538,-351,-642,709,124,144,182,532,-158,1,0,50,6,480,1,53298,1
2,31347,30673,31772,75126,21460,-4544,-276,-579,1366,117,331,176,526,-164,1,0,50,6,520,1,53298,1
2,31323,30928,31731,75127,21469,-4530,-236,-594,1502,142,297,179,531,-169,1,0,50,6,560,1,53298,1
2,31334,31515,31743,75128,21478,-4548,-232,-601,1127,166,167,170,530,-168,1,0,50,6,600,1,53298,1
2,31312,31333,31735,75129,21486,-4542,-252,-620,530,172,54,186,532,-164,1,0,50,6,640,1,53298,1
2,31320,31486,31743,75130,21495,-4537,-275,-608,136,186,-9,174,528,-164,1,0,50,6,680,1,53298,1
2,31335,31018,31752,75131,21504,-4555,-296,-654,72,138,-7,174,528,-168,1,0,50,6,720,1,53298,1
2,31350,30818,31767,75132,21513,-4541,-302,-635,124,31,30,177,517,-165,1,0,50,6,760,1,53298,1
2,31367,30832,31770,75133,21522,-4538,-274,-619,99,-44,58,180,528,-176,1,0,50,6,800,1,53298,1
2,31334,30886,31754,75134,21531,-4526,-273,-609,35,-55,60,181,529,-169,1,0,50,6,840,1,53298,1
2,31332,31357,31731,75135,21540,-4546,-279,-612,-10,-40,49,178,518,-164,1,0,50,6,880,1,53298,1
2,31313,31708,31733,75136,21549,-4541,-289,-630,16,-16,31,180,532,-160,1,0,50,6,920,1,53298,1
2,31279,31508,31699,75137,21557,-4541,-273,-640,27,15,21,186,526,-164,1,0,50,6,960,1,53298,1
1,31232,31273,31636,75138,0,-4549,-288,-620,24,10,14,180,530,-166,1,0,50,7,0,1,53298,1
2,31164,31263,31574,75139,20892,-4538,-280,-616,4,5,19,181,525,-165,1,0,50,7,40,1,53298,1
2,31129,31085,31538,75140,20900,-4538,-287,-630,12,-14,26,180,530,-164,1,0,50,7,80,1,53298,1
2,31090,30880,31487,75141,20909,-4537,-280,-636,-4,-20,31,171,533,-165,1,0,50,7,120,1,53298,1
2,31063,30944,31467,75142,20918,-4560,-285,-626,-11,-28,27,173,521,-163,1,0,50,7,160,1,53298,1
2,31044,31050,31443,75143,20927,-4539,-280,-625,-15,-24,32,174,530,-162,1,0,50,7,200,1,53298,1
2,31035,30681,31433,75144,20936,-4541,-285,-618,-11,-14,29,179,523,-171,1,0,50,7,240,1,53298,1
2,31027,30790,31425,75145,20945,-4527,-274,-621,-8,-22,31,165,527,-165,1,0,50,7,280,1,53298,1
2,31026,30662,31417,75146,20954,-4535,-269,-632,-9,-12,20,186,526,-160,1,0,50,7,320,1,53298,1
2,31020,30484,31423,75147,20963,-4557,-295,-621,-18,-8,19,177,525,-165,1,0,50,7,360,1,53298,1
2,31021,30598,31415,75148,20972,-4539,-272,-617,-20,-12,19,177,525,-165,1,0,50,7,400,1,53298,1
2,31021,30285,31417,75149,20982,-4538,-279,-635,-11,-21,23,180,530,-162,1,0,50,7,440,1,53298,1
2,31022,30206,31415,75150,20991,-4542,-275,-628,-14,-27,29,168,530,-152,1,0,50,7,480,1,53298,1
2,31018,30230,31419,75151,21000,-4542,-288,-615,-17,-23,29,172,528,-164,1,0,50,7,520,1,53298,1
2,31014,30165,31415,75152,21010,-4540,-286,-628,-9,-16,33,169,523,-151,1,0,50,7,560,1,53298,1
2,31014,30143,31408,75153,21019,-4547,-288,-632,-7,-9,21,172,530,-156,1,0,50,7,600,1,53298,1
2,31017,30121,31408,75154,21029,-4536,-273,-627,-20,-9,14,171,531,-157,1,0,50,7,640,1,53298,1
2,31018,30164,31414,75155,21039,-4540,-270,-627,-22,-10,17,171,533,-159,1,0,50,7,680,1,53298,1
2,31023,30067,31421,75156,21049,-4545,-283,-630,-16,-15,19,181,519,-165,1,0,50,7,720,1,53298,1
2,31023,30051,31425,75157,21058,-4534,-275,-633,-13,-22,26,169,525,-153,1,0,50,7,760,1,53298,1
2,31028,30079,31426,75158,21068,-4536,-277,-623,-27,-14,33,173,529,-165,1,0,50,7,800,1,53298,1
2,31030,30116,31428,75159,21077,-4545,-284,-614,-6,-16,31,181,531,-171,1,0,50,7,840,1,53298,1
2,31035,30071,31429,75160,21087,-4535,-273,-634,-41,-24,3,170,528,-164,1,0,50,7,880,1,53298,1
2,31034,30110,31432,75161,21097,-4530,-275,-632,-118,-19,-39,173,525,-159,1,0,50,7,920,1,53298,1
2,31030,30134,31433,75162,21106,-4535,-297,-627,-147,5,-15,175,523,-165,1,0,50,7,960,1,53298,1
1,31041,30081,31442,75163,0,-4538,-274,-635,-45,17,8,178,522,-168,1,0,50,8,0,0,53298,1
2,31043,30076,31444,75164,20433,-4533,-276,-628,-22,-21,0,173,531,-159,1,0,50,8,40,0,53298,1
2,31042,30094,31444,75165,20442,-4545,-283,-605,-42,-49,-2,167,529,-161,1,0,50,8,80,0,53298,1
2,31040,30075,31445,75166,20451,-4535,-269,-631,-65,-57,15,166,538,-158,1,0,50,8,120,0,53298,1
2,31044,30077,31446,75167,20460,-4532,-264,-605,-46,-91,33,171,525,-163,1,0,50,8,160,0,53298,1
2,31040,30113,31444,75168,20469,-4551,-266,-601,-109,-157,48,177,523,-165,1,0,50,8,200,0,53298,1
2,31043,30066,31445,75169,20478,-4543,-294,-644,-218,-208,83,170,528,-160,1,0,50,8,240,0,53298,1
2,31051,30064,31453,75170,20487,-4532,-247,-611,-259,-254,49,181,529,-169,1,0,50,8,280,0,53298,1
2,31049,30039,31462,75171,20496,-4592,-268,-497,-674,-322,-38,179,525,-165,1,0,50,8,320,0,53298,1
2,31030,30200,31448,75172,20505,-4603,-181,-514,-1904,-614,9,180,524,-168,1,0,50,8,360,0,53298,1
2,31066,30078,31448,75173,20514,-4566,-577,-433,-2089,-494,145,172,524,-146,1,0,50,8,400,0,53298,1
2,31000,30019,31429,75174,20524,-4774,-903,-184,-2727,-592,72,181,525,-159,1,0,50,8,440,0,53298,1
2,31032,29960,31437,75175,20534,-5121,-643,-431,-3305,-845,-549,193,523,-163,1,0,50,8,480,0,53298,1
2,31185,30141,31629,75176,20544,-4687,-128,-283,-1901,-1096,-590,194,526,-174,1,0,50,8,520,0,53298,1
2,31588,30842,31938,75177,20555,-4501,-68,-479,-456,-1566,-128,202,516,-162,1,0,50,8,560,0,53298,1
2,31657,32046,32228,75178,20567,-4295,-61,-600,-758,-1954,-393,200,526,-156,1,0,50,8,600,0,53298,1
2,32017,31729,32349,75179,20580,-4395,-51,-632,-1087,-1504,-711,200,518,-148,1,0,50,8,640,0,53298,1
2,32076,33104,32382,75180,20593,-4617,-199,-477,-664,-1135,-432,201,519,-161,1,0,50,8,680,0,53298,1
2,32114,33480,32401,75181,20607,-4550,-326,-409,-177,-946,-298,202,518,-154,1,0,50,8,720,0,53298,1
2,32144,32866,32403,75182,20622,-4534,-175,-405,-33,-785,-325,203,521,-159,1,0,50,8,760,0,53298,1
2,32210,30869,32454,75183,20637,-4567,-301,-351,-183,-573,-261,203,521,-153,1,0,50,8,800,0,53298,1
2,32195,31046,32436,75184,20652,-4498,-175,-454,-255,-310,-182,201,511,-153,1,0,50,8,840,0,53298,1
2,32201,30825,32450,75185,20667,-4555,-269,-298,136,80,-66,204,522,-146,1,0,50,8,880,0,53298,1
2,32196,30832,32439,75186,20682,-4612,-366,-271,49,81,-31,207,523,-159,1,0,50,8,920,0,53298,1
2,32202,30830,32442,75187,20696,-4576,-301,-306,-144,-29,7,202,516,-154,1,0,50,8,960,0,53298,1
1,32193,30808,32435,75188,0,-4593,-375,-329,51,-16,15,208,518,-154,1,0,50,9,0,0,53298,1
2,32176,30951,32433,75189,19976,-4578,-321,-270,21,3,-1,206,518,-162,1,0,50,9,40,0,53298,1
2,32170,31283,32415,75190,19990,-4571,-318,-298,-42,20,11,199,513,-155,1,0,50,9,80,0,53298,1
2,32158,31860,32401,75191,20004,-4581,-301,-319,29,45,8,207,521,-145,1,0,50,9,120,0,53298,1
2,32180,31628,32419,75192,20019,-4585,-341,-284,81,76,3,206,516,-154,1,0,50,9,160,0,53298,1
2,32175,31388,32408,75193,20033,-4577,-335,-285,20,30,19,205,519,-159,1,0,50,9,200,0,53298,1
2,32170,31172,32414,75194,20047,-4594,-344,-316,0,-7,32,206,530,-154,1,0,50,9,240,0,53298,1
2,32174,31094,32412,75195,20061,-4580,-342,-299,-27,-29,31,200,524,-148,1,0,50,9,280,0,53298,1
2,32172,31450,32415,75196,20074,-4584,-354,-289,-36,-16,35,203,519,-147,1,0,50,9,320,0,53298,1
2,32175,31085,32412,75197,20088,-4584,-334,-296,-3,-40,71,204,528,-160,1,0,50,9,360,0,53298,1
2,32167,31173,32402,75198,20101,-4584,-324,-310,-19,-36,73,204,524,-150,1,0,50,9,400,0,53298,1
2,32165,31100,32405,75199,20114,-4591,-343,-305,-9,-16,53,207,525,-147,1,0,50,9,440,0,53298,1
2,32174,31085,32410,75200,20128,-4584,-359,-301,1,-22,58,202,512,-142,1,0,50,9,480,0,53298,1
2,32156,31111,32400,75201,20143,-4574,-325,-324,6,-22,69,203,517,-155,1,0,50,9,520,0,53298,1
2,32160,30954,32398,75202,20157,-4579,-328,-315,33,-4,41,202,524,-144,1,0,50,9,560,0,53298,1
2,32142,31005,32375,75203,20171,-4587,-330,-298,11,1,20,202,516,-152,1,0,50,9,600,0,53298,1
2,32134,31025,32371,75204,20186,-4572,-328,-317,12,-5,35,199,517,-165,1,0,50,9,640,0,53298,1
2,32119,31022,32354,75205,20200,-4587,-339,-300,1,-7,20,208,520,-150,1,0,50,9,680,0,53298,1
2,32081,30958,32320,75206,20214,-4582,-332,-317,-29,-1,32,208,514,-156,1,0,50,9,720,0,53298,1
2,32076,31312,32310,75207,20227,-4582,-328,-312,40,10,41,208,518,-154,1,0,50,9,760,0,53298,1
2,31997,31298,32235,75208,20241,-4565,-328,-308,55,29,14,206,516,-160,1,0,50,9,800,0,53298,1
2,31964,31552,32202,75209,20255,-4594,-353,-307,16,27,8,206,522,-154,1,0,50,9,840,0,53298,1
2,31949,31600,32185,75210,20268,-4586,-336,-327,7,-9,32,196,514,-154,1,0,50,9,880,0,53298,1
2,31940,31562,32175,75211,20280,-4580,-356,-310,5,1,16,205,519,-147,1,0,50,9,920,0,53298,1
2,31936,32025,32178,75212,20294,-4571,-334,-323,-37,-15,37,212,518,-158,1,0,50,9,960,0,53298,1
1,31925,31371,32160,75213,0,-4589,-344,-308,76,19,34,204,518,-154,1,0,50,10,0,0,53298,1
2,31925,31372,32158,75214,19516,-4583,-329,-305,32,22,40,212,520,-154,1,0,50,10,40,0,53298,1
2,31912,31680,32156,75215,19530,-4603,-357,-312,4,9,39,204,512,-152,1,0,50,10,80,0,53298,1
2,31922,31720,32155,75216,19543,-4586,-327,-298,37,-21,66,210,518,-154,1,0,50,10,120,0,53298,1
2,31927,31730,32156,75217,19556,-4603,-338,-314,13,-21,67,200,528,-146,1,0,50,10,160,0,53298,1
2,31896,32109,32128,75218,19569,-4589,-335,-287,44,-32,75,205,519,-151,1,0,50,10,200,0,53298,1
2,31889,31681,32120,75219,19581,-4575,-328,-333,-39,-38,72,201,521,-149,1,0,50,10,240,0,53298,1
2,31891,31659,32123,75220,19595,-4593,-347,-291,-50,-39,61,207,525,-139,1,0,50,10,280,0,53298,1
2,31893,31519,32122,75221,19608,-4563,-330,-332,-3,-56,92,206,514,-160,1,0,50,10,320,0,53298,1
2,31877,31547,32107,75222,19622,-4594,-328,-307,25,-44,77,204,520,-148,1,0,50,10,360,0,53298,1
2,31884,31289,32114,75223,19636,-4579,-334,-298,-48,-24,52,206,518,-156,1,0,50,10,400,0,53298,1
2,31884,31287,32113,75224,19649,-4586,-344,-319,-7,-14,49,206,516,-154,1,0,50,10,440,0,53298,1
2,31870,31411,32097,75225,19662,-4585,-314,-331,25,-25,47,217,521,-159,1,0,50,10,480,0,53298,1
2,31871,31592,32101,75226,19676,-4578,-333,-324,8,-5,23,199,527,-149,1,0,50,10,520,0,53298,1
2,31870,31430,32094,75227,19690,-4584,-339,-292,13,-3,16,198,526,-146,1,0,50,10,560,0,53298,1
2,31853,31453,32086,75228,19704,-4579,-327,-315,32,-12,55,198,524,-160,1,0,50,10,600,0,53298,1
2,31849,31948,32072,75229,19718,-4586,-301,-301,40,-3,44,202,524,-154,1,0,50,10,640,0,53298,1
2,31842,31745,32069,75230,19731,-4570,-311,-325,-63,-29,53,207,519,-159,1,0,50,10,680,0,53298,1
2,31837,31422,32062,75231,19745,-4578,-322,-328,-12,-28,51,202,520,-144,1,0,50,10,720,0,53298,1
2,31832,31601,32062,75232,19758,-4593,-338,-290,59,-8,34,206,518,-150,1,0,50,10,760,0,53298,1
2,31833,31400,32063,75233,19772,-4590,-320,-320,-29,-46,68,204,516,-148,1,0,50,10,800,0,53298,1
2,31814,31241,32035,75234,19786,-4588,-354,-307,-45,-27,44,209,521,-151,1,0,50,10,840,0,53298,1
2,31824,31430,32048,75235,19799,-4568,-304,-326,43,-4,41,201,515,-153,1,0,50,10,880,0,53298,1
2,31817,31030,32050,75236,19812,-4611,-351,-304,65,5,30,204,518,-156,1,0,50,10,920,0,53298,1
2,31805,31143,32033,75237,19825,-4570,-295,-359,47,27,9,202,516,-146,1,0,50,10,960,0,53298,1
1,31748,31668,32004,75238,0,-4537,-213,-476,170,190,-135,209,529,-151,1,0,50,11,0,0,53298,1
2,31585,31483,31837,75239,19057,-3844,751,-1537,823,1438,-827,205,523,-147,1,0,50,11,40,0,53298,1
2,31755,30581,31992,75240,19066,-3811,686,-773,3573,2820,440,193,521,-155,1,0,50,11,80,0,53298,1
2,31765,32446,32200,75241,19075,-4291,-318,-625,6301,2426,2494,177,519,-153,1,0,50,11,120,0,53298,1
2,31683,34085,32156,75242,19084,-6351,-569,141,6693,1542,2929,178,530,-154,1,0,50,11,160,0,53298,1
2,31573,32435,32048,75243,19094,-5207,-3163,1567,1432,714,446,171,523,-159,1,0,50,11,200,0,53298,1
2,31736,31373,32216,75244,19104,-4424,574,-130,404,-987,-28,168,526,-154,1,0,50,11,240,0,53298,1
2,31257,31316,31733,75245,19114,-4351,92,-1510,-1855,678,-178,172,518,-166,1,0,50,11,280,0,53298,1
2,31078,30437,31533,75246,19123,-4586,-570,-615,-1269,1062,-204,170,526,-154,1,0,50,11,320,0,53298,1
2,31175,30445,31634,75247,19133,-4686,-242,-210,-109,91,-81,178,528,-160,1,0,50,11,360,0,53298,1
2,31240,30413,31703,75248,19142,-4493,-261,-581,-411,462,-247,172,528,-164,1,0,50,11,400,0,53298,1
2,31367,30566,31800,75249,19152,-4509,-355,-824,154,415,-156,165,531,-163,1,0,50,11,440,0,53298,1
2,31465,30661,31924,75250,19161,-4570,-245,-548,269,-178,23,175,525,-165,1,0,50,11,480,0,53298,1
2,31495,30671,31947,75251,19170,-4529,-310,-510,-26,-165,33,180,520,-162,1,0,50,11,520,0,53298,1
2,31507,30710,31967,75252,19180,-4529,-301,-627,61,32,131,172,522,-152,1,0,50,11,560,0,53298,1
2,31525,30712,31973,75253,19188,-4544,-255,-559,408,22,201,168,520,-156,1,0,50,11,600,0,53298,1
2,31551,30863,32020,75254,19198,-4541,-278,-568,341,70,136,169,525,-159,1,0,50,11,640,0,53298,1
2,31605,30846,32059,75255,19207,-4542,-272,-619,189,115,116,173,529,-169,1,0,50,11,680,0,53298,1
2,31649,30912,32127,75256,19216,-4552,-277,-603,199,36,100,171,525,-161,1,0,50,11,720,0,53298,1
2,31690,31044,32148,75257,19225,-4529,-304,-609,295,22,143,179,523,-165,1,0,50,11,760,0,53298,1
2,31687,30859,32135,75258,19234,-4536,-321,-624,652,28,280,172,522,-168,1,0,50,11,800,0,53298,1
2,31615,30740,32057,75259,19243,-4545,-230,-591,1115,18,381,170,530,-148,1,0,50,11,840,0,53298,1
2,31587,31013,32036,75260,19251,-4561,-231,-588,1014,-6,319,167,531,-155,1,0,50,11,880,0,53298,1
2,31587,30900,32036,75261,19260,-4543,-242,-597,641,-40,217,167,523,-159,1,0,50,11,920,0,53298,1
2,31544,31057,31997,75262,19269,-4539,-246,-593,151,-36,127,159,539,-163,1,0,50,11,960,0,53298,1
1,31538,31197,31987,75263,0,-4546,-262,-591,-41,-4,71,163,527,-163,1,0,50,12,0,1,53298,1
2,31530,31475,31968,75264,18596,-4540,-255,-602,33,18,38,168,518,-156,1,0,50,12,40,1,53298,1
2,31515,31346,31960,75265,18605,-4522,-240,-610,82,7,35,169,531,-165,1,0,50,12,80,1,53298,1
2,31524,31296,31968,75266,18613,-4539,-253,-608,18,9,34,166,528,-174,1,0,50,12,120,1,53298,1
2,31520,32289,31973,75267,18621,-4539,-257,-624,-25,-12,26,169,533,-169,1,0,50,12,160,1,53298,1
2,31529,32428,31972,75268,18630,-4535,-252,-609,-12,-13,34,169,521,-165,1,0,50,12,200,1,53298,1
2,31516,32409,31964,75269,18639,-4543,-259,-594,19,-13,37,157,521,-159,1,0,50,12,240,1,53298,1
2,31536,33030,31976,75270,18647,-4546,-265,-608,12,-5,33,168,528,-164,1,0,50,12,280,1,53298,1
2,31545,33920,31981,75271,18656,-4542,-257,-611,-14,7,19,169,519,-165,1,0,50,12,320,1,53298,1
2,31552,30757,31994,75272,18666,-4539,-255,-608,-8,-1,17,178,532,-166,1,0,50,12,360,1,53298,1
2,31554,30646,32006,75273,18676,-4534,-246,-604,1,-9,23,171,525,-157,1,0,50,12,400,1,53298,1
2,31564,30584,32011,75274,18686,-4532,-244,-612,6,-14,21,159,523,-157,1,0,50,12,440,1,53298,1
2,31556,30520,32015,75275,18696,-4539,-244,-603,-15,-7,25,173,527,-161,1,0,50,12,480,1,53298,1
2,31562,30519,32003,75276,18705,-4538,-248,-595,-12,-3,22,169,525,-159,1,0,50,12,520,1,53298,1
2,31555,30524,32007,75277,18714,-4545,-252,-606,-1,-10,26,171,527,-171,1,0,50,12,560,1,53298,1
2,31551,30525,31994,75278,18723,-4547,-250,-615,4,-20,26,167,519,-165,1,0,50,12,600,1,53298,1
2,31547,30516,31994,75279,18733,-4542,-256,-609,-5,-12,33,164,528,-162,1,0,50,12,640,1,53298,1
2,31485,30473,31928,75280,18742,-4538,-250,-616,-15,-6,24,171,523,-155,1,0,50,12,680,1,53298,1
2,31442,30444,31870,75281,18751,-4542,-259,-613,-10,-15,28,165,531,-167,1,0,50,12,720,1,53298,1
2,31418,30430,31858,75282,18760,-4547,-261,-610,-1,-15,32,170,530,-160,1,0,50,12,760,1,53298,1
2,31389,30414,31819,75283,18770,-4548,-249,-623,-7,-14,24,162,534,-164,1,0,50,12,800,1,53298,1
2,31366,30403,31803,75284,18780,-4552,-259,-610,-9,-12,19,167,533,-163,1,0,50,12,840,1,53298,1
2,31369,30474,31803,75285,18790,-4538,-244,-613,-13,1,14,173,523,-161,1,0,50,12,880,1,53298,1
2,31367,30464,31815,75286,18800,-4533,-245,-608,-8,2,18,168,524,-170,1,0,50,12,920,1,53298,1
2,31378,30497,31819,75287,18810,-4547,-253,-611,-9,3,23,166,528,-166,1,0,50,12,960,1,53298,1
1,31381,30496,31814,75288,0,-4538,-246,-612,-18,-15,24,166,528,-154,1,0,50,13,0,0,53298,1
2,31375,30483,31818,75289,18137,-4546,-261,-611,-3,-17,30,158,534,-152,1,0,50,13,40,0,53298,1
2,31369,30472,31819,75290,18146,-4535,-256,-623,-14,-27,26,177,531,-157,1,0,50,13,80,0,53298,1
2,31340,30468,31782,75291,18156,-4535,-248,-601,-14,-15,21,162,528,-158,1,0,50,13,120,0,53298,1
2,31346,30487,31785,75292,18165,-4538,-257,-606,-9,-6,24,164,530,-166,1,0,50,13,160,0,53298,1
2,31344,30487,31771,75293,18174,-4531,-254,-613,0,-8,24,166,526,-158,1,0,50,13,200,0,53298,1
2,31331,30465,31757,75294,18182,-4550,-247,-618,-13,4,25,170,532,-168,1,0,50,13,240,0,53298,1
2,31317,30473,31748,75295,18191,-4538,-259,-624,-20,-5,19,169,521,-161,1,0,50,13,280,0,53298,1
2,31319,30449,31755,75296,18201,-4544,-256,-602,-14,-18,18,168,522,-162,1,0,50,13,320,0,53298,1
2,31319,30457,31758,75297,18210,-4554,-267,-622,-10,-22,17,176,526,-158,1,0,50,13,360,0,53298,1
2,31319,30463,31757,75298,18220,-4529,-254,-618,-19,-14,19,167,521,-151,1,0,50,13,400,0,53298,1
2,31328,30470,31765,75299,18230,-4541,-259,-606,-19,-2,28,166,536,-164,1,0,50,13,440,0,53298,1
2,31324,30469,31759,75300,18239,-4547,-247,-617,-8,-1,23,169,531,-157,1,0,50,13,480,0,53298,1
2,31321,30457,31763,75301,18248,-4540,-255,-616,-5,-8,20,172,522,-162,1,0,50,13,520,0,53298,1
2,31313,30451,31738,75302,18258,-4547,-259,-625,-20,-9,19,163,527,-167,1,0,50,13,560,0,53298,1
2,31306,30446,31747,75303,18267,-4535,-252,-613,-14,-16,21,169,527,-165,1,0,50,13,600,0,53298,1
2,31307,30445,31744,75304,18277,-4528,-251,-604,-8,-18,32,161,527,-163,1,0,50,13,640,0,53298,1
2,31306,30436,31744,75305,18287,-4539,-265,-625,-9,-2,28,172,524,-166,1,0,50,13,680,0,53298,1
2,31303,30442,31737,75306,18297,-4549,-253,-611,-17,-3,25,165,525,-165,1,0,50,13,720,0,53298,1
2,31301,30439,31739,75307,18307,-4540,-254,-615,-22,-11,15,169,525,-161,1,0,50,13,760,0,53298,1
2,31309,30451,31743,75308,18316,-4546,-256,-621,-19,-29,10,170,526,-164,1,0,50,13,800,0,53298,1
2,31298,30313,31746,75309,18325,-4575,-189,-592,-260,-69,-25,171,529,-165,1,0,50,13,840,0,53298,1
2,31323,30405,31759,75310,18334,-4867,-877,644,-3533,-332,294,170,518,-166,1,0,50,13,880,0,53298,1
2,31750,30598,32163,75311,18344,-5289,-1279,-768,-3889,-887,-161,172,522,-158,1,0,50,13,920,0,53298,1
2,31853,33452,32226,75312,18354,-4939,44,-228,-3633,-1115,-983,185,523,-169,1,0,50,13,960,0,53298,1
1,31808,31988,32274,75313,0,-3904,120,-811,-538,-2108,-600,185,525,-163,1,0,50,14,0,1,53298,1
2,32049,31245,32380,75314,17680,-4738,-469,-692,-1402,-2029,-628,185,525,-153,1,0,50,14,40,1,53298,1
2,32150,30846,32462,75315,17694,-4244,282,-667,-1205,-1588,-951,189,527,-143,1,0,50,14,80,1,53298,1
2,32136,30879,32420,75316,17708,-4413,-31,-731,-676,-873,-525,190,528,-158,1,0,50,14,120,1,53298,1
2,32200,31088,32450,75317,17724,-4629,-590,-280,-30,-443,-306,191,529,-159,1,0,50,14,160,1,53298,1
2,32221,31079,32472,75318,17740,-4589,-108,-525,-371,-700,-431,194,516,-148,1,0,50,14,200,1,53298,1
2,32242,30869,32473,75319,17755,-4473,-283,-357,-480,-320,-314,191,521,-163,1,0,50,14,240,1,53298,1
2,32273,30831,32494,75320,17771,-4657,-413,-254,-426,-245,-1,203,521,-153,1,0,50,14,280,1,53298,1
2,32284,30842,32495,75321,17786,-4532,-217,-393,-233,-376,-195,204,524,-152,1,0,50,14,320,1,53298,1
2,32268,30829,32489,75322,17802,-4507,-199,-380,29,-96,-113,200,520,-152,1,0,50,14,360,1,53298,1
2,32275,30862,32494,75323,17816,-4642,-389,-280,79,26,18,201,521,-153,1,0,50,14,400,1,53298,1
2,32268,30880,32481,75324,17831,-4552,-252,-392,-139,-79,51,196,518,-158,1,0,50,14,440,1,53298,1
2,32273,30827,32501,75325,17847,-4557,-338,-310,81,84,-66,197,525,-159,1,0,50,14,480,1,53298,1
2,32268,30844,32492,75326,17862,-4610,-352,-301,121,75,-55,209,521,-145,1,0,50,14,520,1,53298,1
2,32279,30810,32495,75327,17877,-4570,-308,-365,10,-8,33,206,510,-158,1,0,50,14,560,1,53298,1
2,32278,30827,32492,75328,17892,-4590,-369,-315,93,42,0,197,519,-149,1,0,50,14,600,1,53298,1
2,32267,30820,32484,75329,17905,-4587,-322,-319,116,15,47,203,525,-155,1,0,50,14,640,1,53298,1
2,32263,30837,32480,75330,17919,-4579,-343,-355,14,-1,50,196,524,-154,1,0,50,14,680,1,53298,1
2,32274,30846,32487,75331,17933,-4581,-328,-348,-100,-9,30,204,532,-152,1,0,50,14,720,1,53298,1
2,32278,30840,32491,75332,17946,-4582,-334,-334,46,3,11,191,521,-153,1,0,50,14,760,1,53298,1
2,32274,30828,32493,75333,17959,-4583,-335,-320,40,-12,28,198,522,-152,1,0,50,14,800,1,53298,1
2,32270,30808,32483,75334,17974,-4588,-335,-350,-38,-7,34,199,525,-143,1,0,50,14,840,1,53298,1
2,32255,30802,32476,75335,17987,-4590,-348,-341,22,1,30,199,515,-157,1,0,50,14,880,1,53298,1
2,32260,30801,32475,75336,18001,-4590,-342,-331,-26,-18,50,205,509,-147,1,0,50,14,920,1,53298,1
2,32257,30800,32469,75337,18015,-4575,-331,-332,-66,-25,51,208,520,-148,1,0,50,14,960,1,53298,1
1,32255,30801,32469,75338,0,-4585,-340,-333,-9,-28,42,192,514,-152,1,0,50,15,0,0,53298,1
2,32253,30806,32470,75339,17223,-4601,-357,-318,-33,-10,36,203,525,-155,1,0,50,15,40,0,53298,1
2,32245,30803,32462,75340,17236,-4575,-314,-350,-41,-16,47,191,523,-149,1,0,50,15,80,0,53298,1
2,32250,30807,32471,75341,17249,-4588,-343,-349,28,-4,39,188,512,-150,1,0,50,15,120,0,53298,1
2,32251,30805,32467,75342,17262,-4592,-333,-318,-24,-5,50,209,523,-151,1,0,50,15,160,0,53298,1
2,32255,30812,32474,75343,17276,-4578,-314,-343,-56,-38,53,203,529,-157,1,0,50,15,200,0,53298,1
2,32253,30804,32475,75344,17290,-4584,-323,-336,-61,-20,23,197,515,-147,1,0,50,15,240,0,53298,1
2,32252,30795,32469,75345,17304,-4590,-361,-319,-5,-16,35,206,520,-144,1,0,50,15,280,0,53298,1
2,32262,30805,32477,75346,17317,-4587,-336,-326,-9,-22,60,206,510,-146,1,0,50,15,320,0,53298,1
2,32257,30812,32476,75347,17330,-4580,-329,-325,-50,-29,73,198,520,-148,1,0,50,15,360,0,53298,1
2,32251,30806,32473,75348,17344,-4578,-330,-341,-29,-27,69,204,518,-154,1,0,50,15,400,0,53298,1
2,32253,30800,32472,75349,17357,-4587,-344,-328,-11,-17,34,205,523,-153,1,0,50,15,440,0,53298,1
2,32247,30807,32470,75350,17370,-4584,-352,-328,9,-26,46,193,519,-151,1,0,50,15,480,0,53298,1
2,32246,30797,32467,75351,17384,-4580,-330,-346,-1,-27,58,198,514,-146,1,0,50,15,520,0,53298,1
2,32249,30801,32466,75352,17397,-4591,-334,-359,-67,-16,51,206,516,-152,1,0,50,15,560,0,53298,1
2,32259,30802,32475,75353,17410,-4585,-372,-305,2,-7,30,197,523,-145,1,0,50,15,600,0,53298,1
2,32250,30801,32474,75354,17423,-4575,-314,-346,-14,-39,79,206,520,-156,1,0,50,15,640,0,53298,1
2,32260,30803,32476,75355,17436,-4594,-334,-328,-54,-12,38,196,518,-154,1,0,50,15,680,0,53298,1
2,32252,30798,32460,75356,17449,-4579,-338,-337,-36,-23,53,196,520,-154,1,0,50,15,720,0,53298,1
2,32237,30794,32456,75357,17462,-4573,-337,-325,-42,-24,53,198,522,-150,1,0,50,15,760,0,53298,1
2,32240,30797,32465,75358,17475,-4577,-313,-336,-36,-27,61,211,523,-155,1,0,50,15,800,0,53298,1
2,32242,30794,32464,75359,17489,-4579,-303,-354,12,-10,52,201,515,-147,1,0,50,15,840,0,53298,1
2,32251,30800,32471,75360,17502,-4589,-353,-318,-49,-21,38,205,523,-147,1,0,50,15,880,0,53298,1
2,32241,30790,32470,75361,17516,-4576,-321,-355,-50,-46,66,201,521,-155,1,0,50,15,920,0,53298,1
2,32233,30792,32454,75362,17530,-4566,-296,-352,-2,44,-36,201,527,-151,1,0,50,15,960,0,53298,1
1,32234,30790,32459,75363,0,-4574,-299,-377,16,111,-70,200,520,-144,1,0,50,16,0,0,53298,1
2,32129,30770,32374,75364,16765,-4453,21,-818,181,414,-251,201,517,-157,1,0,50,16,40,0,53298,1
2,31875,30694,32244,75365,16776,-3499,946,-1435,1090,2247,-1078,206,520,-152,1,0,50,16,80,0,53298,1
2,31878,30851,32302,75366,16786,-4052,485,-776,2890,3092,1020,189,525,-161,1,0,50,16,120,0,53298,1
2,31778,31320,32110,75367,16794,-4373,-428,-757,5551,2076,2883,174,524,-154,1,0,50,16,160,0,53298,1
2,31733,31680,32260,75368,16803,-6378,-656,450,4830,868,2808,159,531,-159,1,0,50,16,200,0,53298,1
2,31729,30996,32236,75369,16811,-4852,-2319,1397,-98,-110,207,167,529,-161,1,0,50,16,240,0,53298,1
2,31415,30462,31903,75370,16820,-4297,445,-575,687,-1337,185,174,526,-156,1,0,50,16,280,0,53298,1
2,31498,30769,31926,75371,16827,-4258,927,-1601,-4259,1405,-483,173,525,-163,1,0,50,16,320,0,53298,1
2,31774,30821,32261,75372,16836,-4594,-1007,-475,-2245,440,-632,167,529,-159,1,0,50,16,360,0,53298,1
2,31763,30860,32260,75373,16845,-4712,-305,24,-2229,294,-474,187,529,-161,1,0,50,16,400,0,53298,1
2,31767,30812,32250,75374,16854,-4491,-197,-555,-981,269,-156,174,526,-158,1,0,50,16,440,0,53298,1
2,31766,30766,32255,75375,16863,-4376,-552,-819,402,-66,-26,173,525,-151,1,0,50,16,480,0,53298,1
2,31762,30734,32249,75376,16872,-4538,-192,-387,1125,31,278,171,517,-169,1,0,50,16,520,0,53298,1
2,31754,30784,32242,75377,16882,-4593,-223,-445,1185,85,544,173,519,-159,1,0,50,16,560,0,53298,1
2,31755,30893,32235,75378,16891,-4586,-240,-712,982,180,498,172,516,-166,1,0,50,16,600,0,53298,1
2,31749,31259,32226,75379,16901,-4544,-231,-662,925,207,279,173,529,-157,1,0,50,16,640,0,53298,1
2,31753,31602,32224,75380,16911,-4547,-251,-596,569,107,163,169,513,-165,1,0,50,16,680,0,53298,1
2,31750,31686,32228,75381,16920,-4536,-238,-612,215,66,116,173,517,-159,1,0,50,16,720,0,53298,1
2,31744,31934,32225,75382,16929,-4533,-242,-624,133,-24,86,174,518,-158,1,0,50,16,760,0,53298,1
2,31748,31959,32238,75383,16938,-4550,-254,-575,167,-64,85,175,531,-165,1,0,50,16,800,0,53298,1
2,31759,31616,32242,75384,16948,-4554,-247,-584,130,-13,64,178,524,-158,1,0,50,16,840,0,53298,1
2,31757,31489,32235,75385,16957,-4543,-227,-596,70,32,26,173,525,-165,1,0,50,16,880,0,53298,1
2,31759,31648,32235,75386,16965,-4535,-249,-607,21,39,14,170,524,-168,1,0,50,16,920,0,53298,1
2,31751,31701,32229,75387,16974,-4550,-260,-606,-3,10,33,169,519,-149,1,0,50,16,960,0,53298,1
1,31758,31691,32236,75388,0,-4541,-244,-604,49,-31,55,166,524,-164,1,0,50,17,0,0,53298,1
2,31744,31513,32215,75389,16304,-4541,-242,-585,89,-7,49,173,513,-157,1,0,50,17,40,0,53298,1
2,31741,31944,32223,75390,16313,-4551,-241,-603,18,19,25,169,535,-157,1,0,50,17,80,0,53298,1
2,31743,32055,32222,75391,16322,-4553,-245,-599,-28,12,27,165,521,-165,1,0,50,17,120,0,53298,1
2,31732,32463,32210,75392,16331,-4540,-252,-608,7,-20,31,167,527,-173,1,0,50,17,160,0,53298,1
2,31731,31625,32206,75393,16341,-4552,-239,-601,38,-34,52,165,521,-153,1,0,50,17,200,0,53298,1
2,31722,31657,32195,75394,16350,-4544,-245,-607,25,-27,42,166,522,-156,1,0,50,17,240,0,53298,1
2,31726,31760,32200,75395,16360,-4551,-249,-605,0,6,32,170,522,-170,1,0,50,17,280,0,53298,1
2,31729,32009,32203,75396,16370,-4551,-244,-604,8,18,25,161,521,-155,1,0,50,17,320,0,53298,1
2,31718,31811,32194,75397,16379,-4541,-231,-595,14,13,21,172,522,-156,1,0,50,17,360,0,53298,1
2,31722,31467,32200,75398,16388,-4554,-260,-606,21,-3,28,174,518,-160,1,0,50,17,400,0,53298,1
2,31710,31744,32198,75399,16398,-4531,-244,-601,17,-23,49,160,524,-164,1,0,50,17,440,0,53298,1
2,31677,31872,32155,75400,16407,-4531,-227,-606,26,-15,50,174,522,-162,1,0,50,17,480,0,53298,1
2,31652,31662,32138,75401,16416,-4537,-250,-606,36,-4,54,173,519,-161,1,0,50,17,520,0,53298,1
2,31571,32088,32020,75402,16425,-4547,-236,-600,34,6,43,164,534,-160,1,0,50,17,560,0,53298,1
2,31542,32239,32010,75403,16434,-4547,-241,-600,19,4,25,168,528,-150,1,0,50,17,600,0,53298,1
2,31545,31982,32017,75404,16444,-4536,-240,-603,0,-2,25,174,526,-166,1,0,50,17,640,0,53298,1
2,31526,31767,31995,75405,16453,-4532,-240,-598,11,-14,27,163,527,-159,1,0,50,17,680,0,53298,1
2,31501,31904,31972,75406,16462,-4543,-253,-601,19,-5,32,173,535,-161,1,0,50,17,720,0,53298,1
2,31504,31718,31973,75407,16470,-4530,-241,-607,38,-7,36,176,526,-158,1,0,50,17,760,0,53298,1
2,31492,31857,31955,75408,16479,-4535,-245,-595,26,-5,36,171,527,-157,1,0,50,17,800,0,53298,1
2,31499,31727,31969,75409,16488,-4542,-233,-607,24,7,34,165,529,-159,1,0,50,17,840,0,53298,1
2,31483,31237,31958,75410,16497,-4548,-249,-611,28,-1,24,168,530,-162,1,0,50,17,880,0,53298,1
2,31487,31369,31952,75411,16507,-4534,-248,-615,39,13,19,170,528,-162,1,0,50,17,920,0,53298,1
2,31488,31439,31955,75412,16516,-4543,-238,-596,30,31,-2,164,528,-166,1,0,50,17,960,0,53298,1
1,31474,31152,31962,75413,0,-4548,-250,-600,29,41,-13,165,527,-161,1,0,50,18,0,1,53298,1
2,31461,31067,31927,75414,15846,-4547,-244,-588,31,54,-30,166,518,-160,1,0,50,18,40,1,53298,1
2,31456,30842,31914,75415,15855,-4533,-229,-611,46,46,-17,167,527,-157,1,0,50,18,80,1,53298,1
2,31447,30951,31914,75416,15865,-4535,-247,-608,-4,29,-14,167,521,-159,1,0,50,18,120,1,53298,1
2,31440,30693,31895,75417,15873,-4548,-259,-614,-3,6,14,160,530,-170,1,0,50,18,160,1,53298,1
2,31436,30667,31900,75418,15883,-4543,-252,-608,-1,-13,27,171,517,-165,1,0,50,18,200,1,53298,1
2,31441,30655,31897,75419,15892,-4532,-245,-612,3,-20,22,165,523,-163,1,0,50,18,240,1,53298,1
2,31427,30688,31891,75420,15901,-4539,-236,-610,-18,5,26,170,528,-160,1,0,50,18,280,1,53298,1
2,31423,30674,31888,75421,15909,-4541,-251,-612,-13,1,23,164,526,-156,1,0,50,18,320,1,53298,1
2,31433,30607,31898,75422,15918,-4548,-246,-612,-9,-16,28,164,530,-150,1,0,50,18,360,1,53298,1
2,31417,30775,31880,75423,15928,-4541,-250,-613,-12,-26,28,170,516,-162,1,0,50,18,400,1,53298,1
2,31411,30544,31876,75424,15938,-4530,-238,-622,-22,-17,35,177,523,-167,1,0,50,18,440,1,53298,1
2,31392,30531,31856,75425,15948,-4539,-243,-617,-21,-12,21,169,519,-165,1,0,50,18,480,1,53298,1
2,31391,30530,31852,75426,15957,-4529,-243,-629,-21,-18,23,172,518,-162,1,0,50,18,520,1,53298,1
2,31405,30539,31873,75427,15967,-4555,-249,-613,-39,-29,17,170,528,-156,1,0,50,18,560,1,53298,1
2,31390,30457,31863,75428,15976,-4557,-228,-566,-140,-54,-17,157,525,-159,1,0,50,18,600,1,53298,1
2,31371,30369,31850,75429,15984,-4585,-251,-394,-805,-245,-10,166,524,-166,1,0,50,18,640,1,53298,1
2,31350,30402,31819,75430,15992,-4659,-622,69,-2276,-494,197,172,524,-158,1,0,50,18,680,1,53298,1
2,31333,30374,31841,75431,16002,-4822,-739,-746,-3641,-818,-8,173,519,-163,1,0,50,18,720,1,53298,1
2,31629,30540,32083,75432,16012,-4701,-325,-565,-3908,-574,-706,179,517,-161,1,0,50,18,760,1,53298,1
2,31433,30356,31878,75433,16022,-4860,-414,-151,-1648,-998,-423,186,524,-164,1,0,50,18,800,1,53298,1
2,31369,30584,31759,75434,16033,-4703,-141,-456,-1293,-867,-154,183,513,-161,1,0,50,18,840,1,53298,1
2,31547,32895,31897,75435,16045,-4011,-52,-617,-286,-1679,-262,186,528,-150,1,0,50,18,880,1,53298,1
2,31705,34174,32006,75436,16058,-4496,80,-554,-925,-1743,-670,186,518,-152,1,0,50,18,920,1,53298,1
2,32071,34413,32413,75437,16071,-4277,-39,-634,-671,-1380,-532,185,519,-145,1,0,50,18,960,1,53298,1
1,32029,34066,32413,75438,0,-4448,-81,-486,54,-902,-298,191,523,-155,1,0,50,19,0,0,53298,1
2,32050,32983,32387,75439,15390,-4545,-191,-507,46,-640,-138,194,516,-152,1,0,50,19,40,0,53298,1
2,32153,32945,32442,75440,15405,-4556,-186,-445,-134,-450,-166,194,524,-160,1,0,50,19,80,0,53298,1
2,32146,34214,32437,75441,15419,-4521,-192,-360,-207,-185,-88,192,518,-158,1,0,50,19,120,0,53298,1
2,32129,33440,32402,75442,15432,-4574,-298,-342,-198,-30,-78,196,512,-154,1,0,50,19,160,0,53298,1
2,32131,33576,32416,75443,15446,-4588,-305,-271,-145,-38,-24,191,519,-153,1,0,50,19,200,0,53298,1
2,32117,32941,32403,75444,15460,-4575,-290,-341,19,-28,32,208,514,-152,1,0,50,19,240,0,53298,1
2,32113,32801,32405,75445,15473,-4556,-259,-320,69,80,-29,195,515,-143,1,0,50,19,280,0,53298,1
2,32075,32735,32394,75446,15486,-4607,-314,-311,108,107,-29,199,521,-141,1,0,50,19,320,0,53298,1
2,31938,32317,32168,75447,15500,-4574,-303,-338,132,62,17,202,516,-162,1,0,50,19,360,0,53298,1
2,31833,32091,32108,75448,15513,-4583,-285,-362,46,40,25,194,516,-158,1,0,50,19,400,0,53298,1
2,31785,31907,32059,75449,15525,-4571,-297,-338,17,21,3,196,522,-154,1,0,50,19,440,0,53298,1
2,31743,32671,32010,75450,15538,-4575,-274,-338,47,-11,10,193,517,-155,1,0,50,19,480,0,53298,1
2,31716,32447,32003,75451,15550,-4582,-298,-334,-1,5,-8,204,514,-154,1,0,50,19,520,0,53298,1
2,31699,32417,31970,75452,15563,-4596,-329,-333,-2,-5,37,196,520,-146,1,0,50,19,560,0,53298,1
2,31658,31928,31919,75453,15575,-4571,-268,-341,53,-8,55,202,514,-156,1,0,50,19,600,0,53298,1
2,31648,31829,31917,75454,15587,-4573,-299,-341,57,33,27,196,514,-162,1,0,50,19,640,0,53298,1
2,31657,31784,31920,75455,15599,-4572,-264,-324,107,38,24,194,514,-146,1,0,50,19,680,0,53298,1
2,31647,31849,31919,75456,15612,-4593,-331,-331,72,43,-7,191,519,-153,1,0,50,19,720,0,53298,1
2,31640,31799,31908,75457,15625,-4593,-316,-335,-28,-7,16,191,513,-157,1,0,50,19,760,0,53298,1
2,31630,31823,31902,75458,15637,-4579,-307,-345,-22,-30,42,191,519,-149,1,0,50,19,800,0,53298,1
2,31623,31718,31892,75459,15649,-4577,-283,-346,-9,-12,41,188,520,-144,1,0,50,19,840,0,53298,1
2,31617,31711,31889,75460,15663,-4569,-290,-350,-13,-13,36,191,523,-147,1,0,50,19,880,0,53298,1
2,31608,31587,31872,75461,15676,-4594,-307,-317,25,-16,62,189,525,-153,1,0,50,19,920,0,53298,1
2,31602,31496,31871,75462,15688,-4569,-299,-344,-2,-15,46,194,518,-152,1,0,50,19,960,0,53298,1
1,31595,31523,31860,75463,0,-4582,-300,-346,-42,-1,18,186,522,-152,1,0,50,20,0,1,53298,1
2,31585,31513,31859,75464,14933,-4571,-293,-345,-4,-17,53,197,523,-155,1,0,50,20,40,1,53298,1
2,31585,31427,31856,75465,14944,-4581,-304,-336,-10,-13,37,193,509,-157,1,0,50,20,80,1,53298,1
2,31586,31368,31855,75466,14956,-4576,-299,-345,3,-11,26,201,511,-153,1,0,50,20,120,1,53298,1
2,31584,31347,31849,75467,14968,-4597,-301,-351,-17,-24,40,195,513,-149,1,0,50,20,160,1,53298,1
2,31581,31378,31846,75468,14980,-4576,-306,-354,-49,-18,37,193,517,-151,1,0,50,20,200,1,53298,1
2,31580,31228,31850,75469,14992,-4580,-293,-347,5,-2,21,194,520,-154,1,0,50,20,240,1,53298,1
2,31586,31267,31857,75470,15004,-4587,-297,-326,-2,-7,46,197,511,-151,1,0,50,20,280,1,53298,1
2,31587,31274,31855,75471,15017,-4570,-297,-363,-2,-14,41,201,519,-147,1,0,50,20,320,1,53298,1
2,31585,31284,31853,75472,15029,-4578,-303,-346,12,7,28,187,505,-149,1,0,50,20,360,1,53298,1
2,31587,31165,31854,75473,15042,-4580,-291,-366,-19,-23,32,192,512,-148,1,0,50,20,400,1,53298,1
2,31588,31098,31860,75474,15055,-4577,-309,-342,-10,-12,29,203,517,-153,1,0,50,20,440,1,53298,1
2,31583,31115,31860,75475,15068,-4574,-292,-339,0,-9,26,203,519,-155,1,0,50,20,480,1,53298,1
2,31583,31120,31857,75476,15082,-4587,-306,-348,-44,-24,44,193,517,-155,1,0,50,20,520,1,53298,1
2,31587,31129,31857,75477,15095,-4583,-295,-354,-37,-40,65,193,511,-159,1,0,50,20,560,1,53298,1
2,31586,31111,31855,75478,15108,-4584,-315,-332,20,-25,54,192,518,-154,1,0,50,20,600,1,53298,1
2,31580,31055,31852,75479,15122,-4572,-292,-359,-48,-42,73,200,516,-156,1,0,50,20,640,1,53298,1
2,31588,31062,31852,75480,15135,-4572,-258,-346,-40,-56,77,200,518,-160,1,0,50,20,680,1,53298,1
2,31587,31030,31854,75481,15149,-4582,-335,-320,-7,-8,36,199,511,-145,1,0,50,20,720,1,53298,1
2,31579,30975,31849,75482,15163,-4583,-287,-345,-61,-35,76,196,516,-150,1,0,50,20,760,1,53298,1
2,31588,30960,31862,75483,15177,-4559,-263,-359,-4,-45,67,194,526,-154,1,0,50,20,800,1,53298,1
2,31596,30985,31857,75484,15190,-4582,-309,-348,-43,-29,40,202,522,-154,1,0,50,20,840,1,53298,1
2,31593,31001,31864,75485,15204,-4565,-298,-364,-11,-22,41,202,520,-162,1,0,50,20,880,1,53298,1
2,31579,30975,31848,75486,15217,-4582,-300,-336,20,1,6,192,516,-158,1,0,50,20,920,1,53298,1
2,31573,30984,31848,75487,15231,-4554,-274,-352,-30,18,-15,196,518,-156,1,0,50,20,960,1,53298,1
1,31559,30880,31836,75488,0,-4562,-274,-394,51,85,-63,205,521,-147,1,0,50,21,0,1,53298,1
2,31448,30949,31791,75489,14476,-4422,24,-816,213,420,-260,197,509,-149,1,0,50,21,40,1,53298,1
2,31307,30804,31625,75490,14487,-3984,235,-778,876,1484,-615,185,517,-143,1,0,50,21,80,1,53298,1
2,31249,30493,31630,75491,14498,-4481,318,-687,1318,1806,445,192,514,-156,1,0,50,21,120,1,53298,1
2,31454,31599,31817,75492,14507,-4411,-243,-631,1692,1585,1266,179,521,-157,1,0,50,21,160,1,53298,1
2,31544,33254,32113,75493,14517,-4928,-478,-294,3912,580,1874,178,528,-154,1,0,50,21,200,1,53298,1
2,31760,34686,32190,75494,14527,-5294,-794,108,2620,16,1922,169,525,-165,1,0,50,21,240,1,53298,1
2,31774,34016,32267,75495,14537,-4775,-1445,417,1841,145,713,161,529,-155,1,0,50,21,280,1,53298,1
2,31750,33261,32230,75496,14547,-4479,147,-537,1110,-83,90,165,519,-159,1,0,50,21,320,1,53298,1
2,31756,33117,32239,75497,14557,-4507,-83,-713,524,850,26,163,527,-155,1,0,50,21,360,1,53298,1
2,31769,31920,32246,75498,14567,-4584,-303,-499,-10,708,-44,165,529,-155,1,0,50,21,400,1,53298,1
2,31764,32062,32230,75499,14578,-4564,-204,-531,-148,460,-47,168,514,-154,1,0,50,21,440,1,53298,1
2,31759,32894,32230,75500,14587,-4495,-322,-680,90,412,-60,164,522,-152,1,0,50,21,480,1,53298,1
2,31762,32811,32232,75501,14596,-4553,-278,-684,822,134,171,169,523,-149,1,0,50,21,520,1,53298,1
2,31756,32342,32220,75502,14606,-4559,-187,-540,1402,-222,357,159,523,-159,1,0,50,21,560,1,53298,1
2,31760,32208,32229,75503,14616,-4539,-183,-523,1171,-215,341,166,526,-160,1,0,50,21,600,1,53298,1
2,31750,32470,32207,75504,14626,-4556,-201,-550,612,-66,271,162,528,-158,1,0,50,21,640,1,53298,1
2,31743,32695,32202,75505,14636,-4543,-199,-558,106,8,164,167,529,-155,1,0,50,21,680,1,53298,1
2,31720,32504,32177,75506,14646,-4547,-215,-575,-43,76,69,166,524,-152,1,0,50,21,720,1,53298,1
2,31574,31909,32023,75507,14655,-4540,-210,-595,37,105,12,161,531,-159,1,0,50,21,760,1,53298,1
2,31552,31505,32016,75508,14666,-4547,-218,-585,118,68,2,158,520,-160,1,0,50,21,800,1,53298,1
2,31484,32001,31907,75509,14676,-4541,-207,-578,72,30,16,161,523,-165,1,0,50,21,840,1,53298,1
2,31456,31587,31906,75510,14686,-4542,-215,-603,-27,27,15,159,519,-157,1,0,50,21,880,1,53298,1
2,31424,33192,31857,75511,14696,-4540,-213,-572,-42,16,25,161,521,-157,1,0,50,21,920,1,53298,1
2,31421,33322,31893,75512,14706,-4538,-216,-593,-16,1,32,161,521,-155,1,0,50,21,960,1,53298,1
1,31381,33214,31827,75513,0,-4539,-214,-603,-15,-30,35,167,527,-171,1,0,50,22,0,1,53298,1
2,31286,32767,31696,75514,14018,-4552,-228,-580,-19,-28,43,166,520,-160,1,0,50,22,40,1,53298,1
2,31210,32635,31658,75515,14026,-4542,-220,-591,-23,-9,26,153,525,-147,1,0,50,22,80,1,53298,1
2,31165,31977,31607,75516,14035,-4530,-207,-594,-8,16,25,153,535,-151,1,0,50,22,120,1,53298,1
2,31134,31800,31558,75517,14044,-4544,-217,-585,-5,16,12,160,530,-164,1,0,50,22,160,1,53298,1
2,31082,31757,31517,75518,14053,-4534,-220,-587,-11,19,9,166,522,-164,1,0,50,22,200,1,53298,1
2,31060,31756,31493,75519,14062,-4542,-218,-601,-17,-4,22,159,529,-157,1,0,50,22,240,1,53298,1
2,31047,31683,31479,75520,14071,-4553,-222,-576,-24,-25,30,166,522,-144,1,0,50,22,280,1,53298,1
2,31035,31648,31470,75521,14080,-4544,-214,-584,-14,-28,35,161,517,-153,1,0,50,22,320,1,53298,1
2,31036,31684,31469,75522,14089,-4542,-202,-576,-10,-9,30,162,522,-168,1,0,50,22,360,1,53298,1
2,31028,31980,31456,75523,14098,-4549,-216,-582,-16,7,22,160,524,-164,1,0,50,22,400,1,53298,1
2,31025,31684,31461,75524,14107,-4539,-221,-599,-20,7,15,169,519,-167,1,0,50,22,440,1,53298,1
2,31024,31694,31454,75525,14116,-4554,-217,-587,-15,-3,11,167,527,-161,1,0,50,22,480,1,53298,1
2,31025,32183,31453,75526,14125,-4550,-227,-591,-3,-7,25,165,529,-167,1,0,50,22,520,1,53298,1
2,31026,31981,31453,75527,14133,-4555,-223,-589,-9,-6,26,164,526,-164,1,0,50,22,560,1,53298,1
2,31029,31778,31462,75528,14143,-4537,-205,-601,-26,-16,19,162,524,-158,1,0,50,22,600,1,53298,1
2,31032,31355,31462,75529,14153,-4549,-223,-590,-27,-20,24,161,525,-149,1,0,50,22,640,1,53298,1
2,31038,31388,31470,75530,14163,-4533,-196,-589,-7,-18,25,165,525,-149,1,0,50,22,680,1,53298,1
2,31037,31495,31465,75531,14172,-4552,-225,-588,0,-1,14,166,522,-166,1,0,50,22,720,1,53298,1
2,31038,31419,31468,75532,14182,-4540,-207,-587,-16,11,15,165,523,-163,1,0,50,22,760,1,53298,1
2,31035,31740,31466,75533,14191,-4539,-217,-598,-14,2,26,171,529,-153,1,0,50,22,800,1,53298,1
2,31036,31595,31474,75534,14200,-4549,-214,-598,-15,-6,26,160,516,-162,1,0,50,22,840,1,53298,1
2,31036,31665,31469,75535,14210,-4532,-208,-594,-3,-17,17,154,530,-152,1,0,50,22,880,1,53298,1
2,31036,32062,31469,75536,14220,-4541,-209,-598,-26,-17,11,167,523,-157,1,0,50,22,920,1,53298,1
2,31036,32357,31467,75537,14229,-4533,-196,-599,-22,-19,28,159,521,-155,1,0,50,22,960,1,53298,1
1,31033,32019,31464,75538,0,-4545,-216,-595,-9,1,24,164,532,-166,1,0,50,23,0,0,53298,1
2,31032,32088,31460,75539,13560,-4538,-209,-587,2,4,17,168,526,-158,1,0,50,23,40,0,53298,1
2,31029,32201,31458,75540,13571,-4546,-212,-603,-25,-7,18,157,521,-163,1,0,50,23,80,0,53298,1
2,31028,32013,31453,75541,13581,-4543,-218,-581,-14,-22,12,165,519,-165,1,0,50,23,120,0,53298,1
2,31025,31795,31457,75542,13589,-4535,-205,-590,-14,-19,16,165,527,-159,1,0,50,23,160,0,53298,1
2,31025,31623,31455,75543,13598,-4551,-217,-597,-10,-18,30,156,530,-156,1,0,50,23,200,0,53298,1
2,31022,31876,31454,75544,13608,-4530,-216,-578,-12,-9,28,168,528,-166,1,0,50,23,240,0,53298,1
2,31026,31572,31458,75545,13618,-4535,-210,-580,-1,-4,28,157,519,-155,1,0,50,23,280,0,53298,1
2,31024,31553,31454,75546,13628,-4547,-209,-599,-9,-5,24,165,513,-171,1,0,50,23,320,0,53298,1
2,31026,31757,31454,75547,13637,-4545,-217,-594,-16,-17,23,160,528,-160,1,0,50,23,360,0,53298,1
2,31018,31491,31452,75548,13646,-4533,-216,-596,-12,-27,27,162,530,-166,1,0,50,23,400,0,53298,1
2,31018,31749,31448,75549,13655,-4537,-209,-593,-13,-15,29,161,511,-163,1,0,50,23,440,0,53298,1
2,31016,31873,31447,75550,13665,-4540,-211,-590,-19,-2,17,156,522,-166,1,0,50,23,480,0,53298,1
2,31018,32084,31448,75551,13675,-4543,-203,-592,-30,-11,8,174,528,-160,1,0,50,23,520,0,53298,1
2,31020,32036,31451,75552,13684,-4555,-240,-609,-137,-13,-41,162,518,-152,1,0,50,23,560,0,53298,1
2,31024,32146,31452,75553,13693,-4534,-230,-620,-175,-26,-21,164,516,-162,1,0,50,23,600,0,53298,1
2,31021,32177,31454,75554,13702,-4543,-208,-568,-81,-49,6,156,524,-160,1,0,50,23,640,0,53298,1
2,31021,32138,31458,75555,13711,-4539,-215,-583,-109,-23,-23,159,513,-159,1,0,50,23,680,0,53298,1
2,31020,32046,31456,75556,13720,-4542,-210,-567,-204,-38,-36,163,527,-159,1,0,50,23,720,0,53298,1
2,31021,31634,31456,75557,13730,-4536,-206,-585,-321,-42,-67,166,534,-160,1,0,50,23,760,0,53298,1
2,31020,31758,31454,75558,13740,-4551,-211,-567,-400,-33,-107,165,523,-161,1,0,50,23,800,0,53298,1
2,31022,30936,31472,75559,13750,-4601,-265,-408,-942,-138,-41,167,523,-161,1,0,50,23,840,0,53298,1
2,31101,30176,31507,75560,13761,-4634,-604,-349,-2975,-335,14,163,531,-159,1,0,50,23,880,0,53298,1
2,31084,30056,31522,75561,13771,-4669,-494,-379,-3268,-299,-426,179,517,-153,1,0,50,23,920,0,53298,1
2,31173,30205,31595,75562,13781,-4822,-561,-346,-3460,-544,-633,176,518,-156,1,0,50,23,960,0,53298,1
1,31200,30133,31598,75563,0,-4585,-286,-230,-2236,-758,-690,175,521,-163,1,0,50,24,0,0,53298,1
2,31131,30001,31528,75564,13104,-4394,33,-814,-1351,-672,-295,181,515,-163,1,0,50,24,40,0,53298,1
2,31129,30595,31529,75565,13115,-4236,-31,-538,-462,-890,-258,191,515,-163,1,0,50,24,80,0,53298,1
2,31451,33461,32060,75566,13126,-4764,-411,-197,-595,-1244,-164,196,516,-162,1,0,50,24,120,0,53298,1
2,31667,33939,31995,75567,13138,-4430,-22,-666,-1171,-1414,-794,193,515,-169,1,0,50,24,160,0,53298,1
2,31625,34124,31934,75568,13151,-4402,-6,-602,11,-1218,-373,180,514,-152,1,0,50,24,200,0,53298,1
2,32027,34280,32273,75569,13165,-4659,-383,-404,77,-908,-98,185,513,-143,1,0,50,24,240,0,53298,1
2,32162,34662,32432,75570,13178,-4489,-114,-431,-233,-831,-250,199,517,-151,1,0,50,24,280,0,53298,1
2,32137,34658,32434,75571,13193,-4490,-140,-487,-148,-610,-181,199,521,-155,1,0,50,24,320,0,53298,1
2,32151,34890,32435,75572,13208,-4542,-215,-388,-47,-149,-57,190,520,-148,1,0,50,24,360,0,53298,1
2,32127,34224,32410,75573,13222,-4569,-233,-293,81,54,-48,196,522,-150,1,0,50,24,400,0,53298,1
2,32106,33772,32386,75574,13237,-4587,-305,-315,-17,19,-61,203,513,-153,1,0,50,24,440,0,53298,1
2,32027,33059,32334,75575,13252,-4556,-276,-309,-40,25,-37,186,510,-150,1,0,50,24,480,0,53298,1
2,32027,33048,32273,75576,13267,-4582,-321,-303,142,88,-48,207,513,-159,1,0,50,24,520,0,53298,1
2,31986,33040,32265,75577,13281,-4603,-330,-310,189,42,39,187,515,-149,1,0,50,24,560,0,53298,1
2,31963,32870,32247,75578,13296,-4553,-250,-349,116,6,77,183,527,-151,1,0,50,24,600,0,53298,1
2,31949,32898,32215,75579,13310,-4605,-332,-306,137,21,37,193,519,-151,1,0,50,24,640,0,53298,1
2,31954,32827,32225,75580,13323,-4580,-277,-330,25,-70,105,194,516,-156,1,0,50,24,680,0,53298,1
2,31964,32898,32229,75581,13337,-4561,-275,-328,-20,-113,124,197,525,-151,1,0,50,24,720,0,53298,1
2,31948,32989,32212,75582,13351,-4584,-282,-325,45,-104,113,192,524,-146,1,0,50,24,760,0,53298,1
2,31905,32888,32177,75583,13365,-4573,-267,-347,18,-59,86,185,517,-143,1,0,50,24,800,0,53298,1
2,31919,32962,32173,75584,13379,-4577,-298,-305,71,-6,44,186,516,-148,1,0,50,24,840,0,53298,1
2,31901,32734,32174,75585,13394,-4575,-268,-325,60,-36,72,198,522,-152,1,0,50,24,880,0,53298,1
2,31894,32668,32145,75586,13408,-4567,-244,-351,17,-41,57,191,523,-155,1,0,50,24,920,0,53298,1
2,31896,32689,32140,75587,13421,-4607,-335,-299,22,8,9,189,509,-151,1,0,50,24,960,0,53298,1
1,31887,32708,32141,75588,0,-4579,-262,-331,-13,-29,64,186,514,-156,1,0,50,25,0,0,53298,1
2,31843,32677,32098,75589,12648,-4563,-245,-353,26,-14,49,193,519,-161,1,0,50,25,40,0,53298,1
2,31832,32734,32100,75590,12662,-4588,-316,-304,-12,15,5,190,512,-152,1,0,50,25,80,0,53298,1
2,31851,32605,32112,75591,12675,-4567,-281,-342,46,-5,28,197,517,-161,1,0,50,25,120,0,53298,1
2,31840,32810,32095,75592,12688,-4583,-297,-321,58,6,16,189,521,-147,1,0,50,25,160,0,53298,1
2,31841,32979,32099,75593,12701,-4570,-269,-335,44,-7,56,198,510,-156,1,0,50,25,200,0,53298,1
2,31816,32651,32075,75594,12714,-4588,-286,-319,89,1,45,202,520,-156,1,0,50,25,240,0,53298,1
2,31821,32878,32096,75595,12727,-4579,-267,-339,-3,-28,55,190,520,-146,1,0,50,25,280,0,53298,1
2,31838,32666,32085,75596,12740,-4588,-295,-323,-24,-18,31,192,518,-146,1,0,50,25,320,0,53298,1
2,31833,32604,32094,75597,12754,-4574,-291,-322,-24,-29,49,192,520,-156,1,0,50,25,360,0,53298,1
2,31824,32503,32086,75598,12767,-4577,-282,-348,-82,-49,75,190,524,-150,1,0,50,25,400,0,53298,1
2,31837,32661,32095,75599,12780,-4585,-284,-322,0,-19,53,193,517,-151,1,0,50,25,440,0,53298,1
2,31840,32640,32099,75600,12793,-4580,-286,-322,5,-23,61,191,523,-157,1,0,50,25,480,0,53298,1
2,31835,32500,32088,75601,12806,-4578,-284,-320,-23,-17,50,201,519,-149,1,0,50,25,520,0,53298,1
2,31848,32702,32104,75602,12820,-4569,-262,-344,-7,-1,36,191,525,-149,1,0,50,25,560,0,53298,1
2,31825,32683,32076,75603,12833,-4572,-289,-329,1,-13,32,206,516,-150,1,0,50,25,600,0,53298,1
2,31825,32638,32086,75604,12845,-4591,-304,-309,-25,-24,49,201,519,-159,1,0,50,25,640,0,53298,1
2,31833,32585,32091,75605,12859,-4573,-267,-349,-32,-22,55,192,516,-154,1,0,50,25,680,0,53298,1
2,31817,32520,32071,75606,12872,-4593,-306,-322,-39,13,15,195,521,-153,1,0,50,25,720,0,53298,1
2,31825,32579,32085,75607,12885,-4550,-236,-339,-10,-9,26,193,513,-139,1,0,50,25,760,0,53298,1
2,31828,32879,32080,75608,12899,-4576,-260,-370,23,47,-14,189,521,-149,1,0,50,25,800,0,53298,1
2,31823,32679,32080,75609,12913,-4589,-283,-340,14,79,-58,190,518,-146,1,0,50,25,840,0,53298,1
2,31809,32577,32071,75610,12927,-4547,-216,-403,63,123,-74,191,515,-145,1,0,50,25,880,0,53298,1
2,31785,32845,32050,75611,12941,-4529,-298,-341,247,296,-226,194,516,-144,1,0,50,25,920,0,53298,1
2,31741,32962,32009,75612,12955,-4531,-206,-445,249,365,-227,199,515,-151,1,0,50,25,960,0,53298,1
1,31605,32403,31963,75613,0,-4213,179,-880,467,805,-348,203,521,-155,1,0,50,26,0,1,53298,1
2,31922,32863,32296,75614,12191,-3982,531,-1033,760,1706,36,188,518,-154,1,0,50,26,40,1,53298,1
2,31408,31735,31815,75615,12202,-4254,-56,-833,1252,2047,1350,175,519,-151,1,0,50,26,80,1,53298,1
2,31646,33435,32252,75616,12211,-4849,-461,-465,4031,1272,2110,163,531,-151,1,0,50,26,120,1,53298,1
2,31857,35317,32381,75617,12221,-5696,-842,355,3427,416,2071,163,527,-141,1,0,50,26,160,1,53298,1
2,31848,35014,32325,75618,12231,-4710,-1610,890,699,-158,211,168,516,-154,1,0,50,26,200,1,53298,1
2,31815,32483,32284,75619,12241,-4401,234,-728,409,-558,60,175,515,-151,1,0,50,26,240,1,53298,1
2,31811,33064,32285,75620,12251,-4405,59,-941,-648,920,-85,155,515,-153,1,0,50,26,280,1,53298,1
2,31823,33749,32294,75621,12261,-4657,-505,-374,20,466,123,176,522,-156,1,0,50,26,320,1,53298,1
2,31795,32659,32228,75622,12270,-4587,-105,-451,-221,348,-32,164,516,-156,1,0,50,26,360,1,53298,1
2,31635,31966,32104,75623,12280,-4480,-278,-679,-37,596,-180,163,525,-159,1,0,50,26,400,1,53298,1
2,31606,31850,32065,75624,12289,-4573,-225,-634,386,169,-36,168,518,-162,1,0,50,26,440,1,53298,1
2,31590,31649,32048,75625,12298,-4543,-198,-475,359,-237,57,169,519,-165,1,0,50,26,480,1,53298,1
2,31570,31680,32028,75626,12307,-4526,-226,-546,34,-91,67,175,519,-155,1,0,50,26,520,1,53298,1
2,31583,31642,32041,75627,12317,-4545,-211,-564,-5,-18,95,169,523,-167,1,0,50,26,560,1,53298,1
2,31500,31167,31940,75628,12326,-4542,-213,-528,68,-4,91,172,522,-158,1,0,50,26,600,1,53298,1
2,31289,30877,31741,75629,12336,-4540,-211,-570,58,65,59,156,528,-152,1,0,50,26,640,1,53298,1
2,31215,30580,31650,75630,12345,-4548,-220,-566,125,37,57,163,521,-161,1,0,50,26,680,1,53298,1
2,31175,30450,31620,75631,12355,-4545,-213,-550,137,14,37,177,515,-167,1,0,50,26,720,1,53298,1
2,31156,30347,31597,75632,12364,-4545,-210,-553,64,32,30,162,518,-154,1,0,50,26,760,1,53298,1
2,31150,30310,31585,75633,12373,-4540,-207,-563,66,36,38,164,516,-156,1,0,50,26,800,1,53298,1
2,31141,30261,31580,75634,12382,-4540,-228,-579,89,45,43,168,518,-160,1,0,50,26,840,1,53298,1
2,31140,30199,31573,75635,12391,-4532,-208,-572,79,20,58,169,523,-165,1,0,50,26,880,1,53298,1
2,31134,30238,31577,75636,12399,-4549,-224,-562,40,-29,49,169,517,-165,1,0,50,26,920,1,53298,1
2,31130,30260,31569,75637,12409,-4553,-215,-562,27,-29,44,157,525,-155,1,0,50,26,960,1,53298,1
1,31130,30269,31568,75638,0,-4541,-211,-576,11,-23,33,164,524,-158,1,0,50,27,0,1,53298,1
2,31129,30274,31567,75639,11734,-4543,-192,-556,15,20,28,160,522,-156,1,0,50,27,40,1,53298,1
2,31119,30304,31557,75640,11744,-4559,-233,-577,10,36,19,168,524,-162,1,0,50,27,80,1,53298,1
2,31128,30298,31554,75641,11753,-4552,-232,-592,-11,12,15,164,514,-148,1,0,50,27,120,1,53298,1
2,31113,30398,31545,75642,11763,-4542,-213,-572,-14,-22,22,164,520,-164,1,0,50,27,160,1,53298,1
2,31113,30312,31551,75643,11773,-4537,-214,-570,-19,-35,22,161,521,-163,1,0,50,27,200,1,53298,1
2,31110,30378,31545,75644,11782,-4549,-221,-560,-9,-24,27,157,531,-161,1,0,50,27,240,1,53298,1
2,31109,30343,31548,75645,11792,-4550,-218,-564,-16,2,29,167,523,-161,1,0,50,27,280,1,53298,1
2,31112,30346,31546,75646,11802,-4545,-217,-586,-9,9,21,166,528,-166,1,0,50,27,320,1,53298,1
2,31113,30315,31548,75647,11812,-4537,-204,-569,-5,3,22,161,523,-163,1,0,50,27,360,1,53298,1
2,31102,30349,31537,75648,11822,-4542,-214,-575,-17,-8,23,169,523,-155,1,0,50,27,400,1,53298,1
2,31101,30307,31539,75649,11832,-4531,-212,-569,-9,-19,20,162,520,-156,1,0,50,27,440,1,53298,1
2,31095,30334,31534,75650,11842,-4527,-206,-567,-14,-27,29,162,530,-156,1,0,50,27,480,1,53298,1
2,31098,30303,31536,75651,11853,-4544,-224,-584,0,-10,30,170,512,-168,1,0,50,27,520,1,53298,1
2,31101,30326,31535,75652,11863,-4561,-215,-567,-16,-8,14,163,521,-159,1,0,50,27,560,1,53298,1
2,31097,30343,31535,75653,11873,-4550,-217,-581,-2,-5,12,157,523,-157,1,0,50,27,600,1,53298,1
2,31102,30390,31537,75654,11883,-4543,-210,-578,-21,-14,20,171,527,-159,1,0,50,27,640,1,53298,1
2,31102,30299,31540,75655,11893,-4539,-212,-567,-13,-18,22,166,520,-164,1,0,50,27,680,1,53298,1
2,31097,30257,31532,75656,11902,-4567,-220,-561,-24,-25,26,158,522,-164,1,0,50,27,720,1,53298,1
2,31096,30261,31536,75657,11912,-4542,-206,-576,-36,-13,24,163,521,-163,1,0,50,27,760,1,53298,1
2,31095,30270,31536,75658,11921,-4541,-204,-563,-32,-19,21,171,527,-161,1,0,50,27,800,1,53298,1
2,31095,30203,31539,75659,11931,-4558,-224,-570,-21,-21,16,173,533,-167,1,0,50,27,840,1,53298,1
2,31100,30208,31543,75660,11939,-4538,-206,-551,-87,-44,12,167,527,-157,1,0,50,27,880,1,53298,1
2,31075,30294,31542,75661,11949,-4546,-202,-574,-239,-86,51,171,525,-155,1,0,50,27,920,1,53298,1
2,31123,30323,31554,75662,11959,-4722,-790,204,-2163,-141,413,168,522,-158,1,0,50,27,960,1,53298,1
1,31181,30301,31612,75663,0,-4713,-415,-568,-2939,-377,-175,169,521,-163,1,0,50,28,0,0,53298,1
2,31759,30960,32132,75664,11278,-4794,-504,-555,-2885,-443,-605,181,523,-163,1,0,50,28,40,0,53298,1
2,31759,30684,32131,75665,11289,-5147,-397,-214,-1544,-774,-504,178,518,-162,1,0,50,28,80,0,53298,1
2,31262,30539,31678,75666,11301,-4298,1,-569,-1004,-865,-388,186,514,-162,1,0,50,28,120,0,53298,1
2,31191,32852,31544,75667,11312,-4098,-30,-564,39,-1270,-200,179,519,-169,1,0,50,28,160,0,53298,1
2,31590,33150,32090,75668,11325,-4378,-17,-586,-489,-1251,-504,183,529,-151,1,0,50,28,200,0,53298,1
2,31946,34160,32265,75669,11338,-4452,-182,-532,-385,-1205,-517,185,515,-159,1,0,50,28,240,0,53298,1
2,32049,34794,32379,75670,11353,-4441,-43,-580,-394,-1123,-402,184,514,-154,1,0,50,28,280,0,53298,1
2,32099,34126,32381,75671,11368,-4548,-170,-460,-59,-796,-166,180,526,-158,1,0,50,28,320,0,53298,1
2,32075,34755,32375,75672,11383,-4470,-61,-590,-158,-467,-157,189,517,-143,1,0,50,28,360,0,53298,1
2,32088,34806,32372,75673,11397,-4512,-181,-314,155,86,-143,188,520,-152,1,0,50,28,400,0,53298,1
2,31895,34444,32201,75674,11413,-4651,-364,-330,78,111,-103,190,522,-150,1,0,50,28,440,0,53298,1
2,31756,34509,32040,75675,11428,-4541,-217,-340,-220,22,-23,193,513,-157,1,0,50,28,480,0,53298,1
2,31721,34035,31985,75676,11443,-4568,-269,-380,68,102,-67,189,515,-145,1,0,50,28,520,0,53298,1
2,31694,33927,31970,75677,11458,-4590,-267,-374,141,154,-96,196,516,-156,1,0,50,28,560,0,53298,1
2,31674,33754,31956,75678,11473,-4605,-328,-353,-15,93,-42,195,521,-157,1,0,50,28,600,0,53298,1
2,31682,33044,31960,75679,11488,-4561,-243,-410,3,34,-2,186,518,-146,1,0,50,28,640,0,53298,1
2,31681,33043,31957,75680,11502,-4585,-264,-369,97,79,-41,192,510,-154,1,0,50,28,680,0,53298,1
2,31680,33147,31953,75681,11517,-4586,-311,-356,15,65,-39,190,524,-160,1,0,50,28,720,0,53298,1
2,31678,32984,31964,75682,11530,-4573,-269,-391,13,31,-18,188,518,-150,1,0,50,28,760,0,53298,1
2,31668,32785,31944,75683,11544,-4580,-282,-367,72,51,-22,189,517,-145,1,0,50,28,800,0,53298,1
2,31649,32529,31930,75684,11558,-4590,-322,-356,28,46,7,189,519,-153,1,0,50,28,840,0,53298,1
2,31640,31923,31916,75685,11573,-4578,-275,-366,13,24,19,185,515,-145,1,0,50,28,880,0,53298,1
2,31636,31846,31919,75686,11587,-4570,-276,-392,60,23,0,187,515,-153,1,0,50,28,920,0,53298,1
2,31639,31983,31920,75687,11600,-4577,-277,-393,26,38,-6,189,521,-155,1,0,50,28,960,0,53298,1
1,31635,31767,31914,75688,0,-4581,-308,-368,0,20,3,189,523,-155,1,0,50,29,0,1,53298,1
2,31639,31907,31922,75689,10824,-4572,-275,-392,-16,-5,25,188,522,-154,1,0,50,29,40,1,53298,1
2,31640,32089,31920,75690,10837,-4577,-266,-375,15,-8,29,189,525,-145,1,0,50,29,80,1,53298,1
2,31636,32529,31919,75691,10851,-4566,-293,-369,-4,8,18,188,520,-146,1,0,50,29,120,1,53298,1
2,31628,32492,31914,75692,10864,-4584,-279,-390,-46,3,31,190,518,-158,1,0,50,29,160,1,53298,1
2,31632,33237,31914,75693,10877,-4578,-289,-367,10,8,13,192,524,-152,1,0,50,29,200,1,53298,1
2,31630,32071,31916,75694,10890,-4577,-296,-377,-1,12,21,188,520,-150,1,0,50,29,240,1,53298,1
2,31633,32120,31915,75695,10903,-4574,-268,-380,-2,1,23,199,525,-147,1,0,50,29,280,1,53298,1
2,31627,32144,31911,75696,10917,-4570,-282,-375,3,10,22,191,517,-159,1,0,50,29,320,1,53298,1
2,31629,31897,31914,75697,10929,-4584,-295,-372,-4,6,24,200,518,-154,1,0,50,29,360,1,53298,1
2,31636,31688,31919,75698,10942,-4571,-265,-380,-26,-21,25,187,509,-153,1,0,50,29,400,1,53298,1
2,31627,31519,31912,75699,10955,-4574,-286,-403,-8,6,18,191,515,-161,1,0,50,29,440,1,53298,1
2,31628,31485,31915,75700,10969,-4578,-301,-385,-5,8,28,194,514,-156,1,0,50,29,480,1,53298,1
2,31629,31438,31907,75701,10982,-4589,-291,-382,0,-11,28,192,510,-160,1,0,50,29,520,1,53298,1
2,31620,31522,31909,75702,10995,-4579,-292,-379,-15,-7,33,182,516,-156,1,0,50,29,560,1,53298,1
2,31623,31464,31910,75703,11008,-4596,-291,-384,-16,-10,39,192,508,-148,1,0,50,29,600,1,53298,1
2,31625,31356,31917,75704,11021,-4564,-292,-401,2,-7,20,192,514,-158,1,0,50,29,640,1,53298,1
2,31629,31479,31912,75705,11033,-4588,-300,-381,-44,-26,43,194,522,-154,1,0,50,29,680,1,53298,1
2,31625,31478,31907,75706,11046,-4581,-285,-376,-31,-42,52,185,519,-143,1,0,50,29,720,1,53298,1
2,31623,31404,31906,75707,11060,-4591,-295,-370,-35,-49,68,192,516,-158,1,0,50,29,760,1,53298,1
2,31630,31328,31911,75708,11073,-4579,-291,-391,-100,-67,86,186,514,-160,1,0,50,29,800,1,53298,1
2,31630,31344,31915,75709,11086,-4565,-269,-371,-34,-57,78,192,508,-156,1,0,50,29,840,1,53298,1
2,31637,31358,31920,75710,11100,-4595,-301,-372,-63,-65,86,187,519,-145,1,0,50,29,880,1,53298,1
2,31636,31292,31926,75711,11114,-4565,-286,-379,-72,-82,82,180,518,-156,1,0,50,29,920,1,53298,1
2,31625,31294,31910,75712,11128,-4583,-289,-361,-32,-75,91,194,518,-152,1,0,50,29,960,1,53298,1
1,31625,31311,31910,75713,0,-4562,-263,-373,-69,-88,105,190,508,-146,1,0,50,30,0,1,53298,1
2,31630,31263,31912,75714,10368,-4584,-287,-366,-51,-97,105,194,520,-150,1,0,50,30,40,1,53298,1
2,31634,31271,31915,75715,10381,-4566,-261,-391,-81,-66,83,194,514,-164,1,0,50,30,80,1,53298,1
2,31637,31270,31919,75716,10395,-4578,-265,-369,-25,-39,51,195,515,-151,1,0,50,30,120,1,53298,1
2,31632,31219,31915,75717,10409,-4579,-273,-371,-16,-26,44,190,518,-148,1,0,50,30,160,1,53298,1
2,31636,31153,31925,75718,10422,-4564,-291,-367,-25,-18,28,191,519,-155,1,0,50,30,200,1,53298,1
