,sensorStatus,cap1,cap2,cap3,counter,microseconds_since_last_tick,accX,accY,accZ,gyroX,gyroY,gyroZ,magnetX,magnetY,magnetZ,day,hour,min,sec,msec,sync,battery_fuel,crc_good
0,2,31257,30403,31983,38989,11456,-3997,-379,-1993,10,-5,-2,164,450,-288,1,0,26,1,40,0,53298,1
1,2,31258,30407,31984,38990,11456,-3990,-365,-1997,-11,4,10,168,448,-276,1,0,26,1,80,0,53298,1
2,2,31255,30409,31977,38991,11456,-3970,-357,-2002,-22,-16,21,166,456,-276,1,0,26,1,120,0,53298,1
3,2,31257,30416,31982,38992,11457,-3993,-365,-1997,-27,-29,17,163,457,-287,1,0,26,1,160,0,53298,1
4,2,31254,30413,31981,38993,11457,-3990,-364,-1999,-11,-22,23,158,444,-280,1,0,26,1,200,0,53298,1
5,2,31256,30408,31981,38994,11458,-3992,-368,-1984,1,-15,-4,169,447,-287,1,0,26,1,240,0,53298,1
6,2,31254,30396,31979,38995,11457,-3985,-362,-2016,-4,-14,4,167,449,-277,1,0,26,1,280,0,53298,1
7,2,31256,30407,31980,38996,11458,-3997,-375,-2002,3,-23,16,167,447,-287,1,0,26,1,320,0,53298,1
8,2,31255,30421,31978,38997,11458,-3991,-372,-1994,-15,-27,16,163,447,-295,1,0,26,1,360,0,53298,1
9,2,31250,30397,31980,38998,11459,-3997,-380,-1994,-13,-19,10,170,452,-288,1,0,26,1,400,0,53298,1
10,2,31254,30403,31982,38999,11459,-3993,-379,-1994,-1,-21,14,159,455,-289,1,0,26,1,440,0,53298,1
11,2,31254,30411,31980,39000,11461,-3996,-373,-1984,-23,-26,20,158,462,-280,1,0,26,1,480,0,53298,1
12,2,31254,30418,31978,39001,11462,-3994,-360,-1994,-2,-26,10,169,447,-287,1,0,26,1,520,0,53298,1
13,2,31255,30435,31980,39002,11462,-3978,-354,-1999,-15,-15,8,170,450,-276,1,0,26,1,560,0,53298,1
14,2,31258,30421,31979,39003,11462,-3991,-372,-1997,-20,-12,12,170,452,-286,1,0,26,1,600,0,53298,1
15,2,31255,30425,31982,39004,11464,-3991,-356,-1989,-6,-35,15,172,456,-296,1,0,26,1,640,0,53298,1
16,2,31259,30446,31981,39005,11466,-3994,-380,-1995,3,-27,12,169,453,-277,1,0,26,1,680,0,53298,1
17,2,31258,30443,31980,39006,11466,-3997,-371,-1993,-2,-14,-5,163,451,-281,1,0,26,1,720,0,53298,1
18,2,31259,30450,31980,39007,11466,-3990,-367,-2002,-5,-7,7,167,449,-285,1,0,26,1,760,0,53298,1
19,2,31257,30438,31977,39008,11466,-3981,-360,-1992,-15,-24,11,167,449,-281,1,0,26,1,800,0,53298,1
20,2,31250,30435,31980,39009,11467,-3989,-373,-1979,-23,-29,19,162,452,-292,1,0,26,1,840,0,53298,1
21,2,31258,30415,31978,39010,11468,-3993,-369,-2009,-18,-34,16,170,458,-278,1,0,26,1,880,0,53298,1
22,2,31254,30433,31979,39011,11467,-3997,-369,-1981,23,-20,3,165,445,-289,1,0,26,1,920,0,53298,1
23,2,31257,30428,31982,39012,11467,-3980,-358,-1995,11,-9,10,168,456,-286,1,0,26,1,960,0,53298,1
24,1,31257,30425,31979,39013,0,-3994,-370,-1999,-12,0,12,159,453,-285,1,0,26,2,0,1,53298,1
25,2,31256,30418,31982,39014,10939,-3991,-363,-1990,3,-12,7,164,448,-286,1,0,26,2,40,1,53298,1
26,2,31254,30418,31980,39015,10940,-3981,-368,-1988,9,-26,16,163,447,-285,1,0,26,2,80,1,53298,1
27,2,31255,30420,31984,39016,10940,-3995,-385,-1992,14,-4,-5,163,453,-285,1,0,26,2,120,1,53298,1
28,2,31255,30434,31979,39017,10940,-3967,-370,-1994,42,24,-9,166,452,-286,1,0,26,2,160,1,53298,1
29,2,31254,30443,31983,39018,10940,-3975,-355,-2000,118,58,-25,163,449,-287,1,0,26,2,200,1,53298,1
30,2,31256,30450,31983,39019,10940,-3981,-346,-1976,204,95,-28,157,449,-283,1,0,26,2,240,1,53298,1
31,2,31257,30436,31981,39020,10940,-3995,-381,-2009,287,110,-60,174,456,-286,1,0,26,2,280,1,53298,1
32,2,31252,30423,31981,39021,10941,-3999,-399,-2015,274,66,-119,168,456,-282,1,0,26,2,320,1,53298,1
33,2,31255,30426,31982,39022,10940,-3963,-433,-2027,97,24,-123,166,458,-282,1,0,26,2,360,1,53298,1
34,2,31250,30410,31983,39023,10940,-3952,-378,-2149,-90,-30,-42,168,458,-280,1,0,26,2,400,1,53298,1
35,2,31243,30401,31976,39024,10940,-3899,-182,-2622,-220,-79,-126,167,453,-281,1,0,26,2,440,1,53298,1
36,2,31239,30430,31987,39025,10939,-3485,-189,-3104,-136,505,-440,173,453,-289,1,0,26,2,480,1,53298,1
37,2,31218,30405,31961,39026,10940,-2907,-707,-3942,179,4421,-207,163,453,-305,1,0,26,2,520,1,53298,1
38,2,31230,30390,31940,39027,10940,-4462,-404,-3418,2706,10886,261,164,446,-324,1,0,26,2,560,1,53298,1
39,2,31225,30405,31928,39028,10940,-4879,-430,-3850,-547,11643,1681,167,451,-333,1,0,26,2,600,1,53298,1
40,2,31217,30404,31913,39029,10940,-3841,202,-3035,-295,10103,1121,163,447,-353,1,0,26,2,640,1,53298,1
41,2,31228,30198,31898,39030,10939,-3517,-125,-2159,-1852,10956,2502,158,438,-358,1,0,26,2,680,1,53298,1
42,2,31226,30136,31890,39031,10939,-3691,-950,-1697,-2019,10940,3008,151,431,-377,1,0,26,2,720,1,53298,1
43,2,31237,30106,31897,39032,10939,-3612,-640,-1379,1261,8732,1182,158,434,-384,1,0,26,2,760,1,53298,1
44,2,31266,30178,31896,39033,10939,-3204,-706,-1162,2504,4961,-115,152,432,-376,1,0,26,2,800,1,53298,1
45,2,31355,30190,31899,39034,10939,-2845,-850,-1874,1095,1230,-1538,151,429,-389,1,0,26,2,840,1,53298,1
46,2,31506,30205,31900,39035,10939,-2768,-740,-2711,536,-1252,-3283,165,433,-389,1,0,26,2,880,1,53298,1
47,2,31730,30182,31904,39036,10938,-2973,-892,-3176,1130,-2214,-4120,177,441,-387,1,0,26,2,920,1,53298,1
48,2,31837,30188,31927,39037,10937,-2475,-919,-4089,2383,-1821,-4210,166,434,-376,1,0,26,2,960,1,53298,1
49,1,31759,30165,31930,39038,0,-3235,-328,-3403,3951,-921,-2072,179,441,-375,1,0,26,3,0,0,53298,1
50,2,31756,30177,31942,39039,10422,-3195,-1657,-2838,4905,-1656,-4495,197,427,-377,1,0,26,3,40,0,53298,1
51,2,31847,29908,31949,39040,10421,-3333,-1809,-2668,1495,-2056,-5900,200,436,-368,1,0,26,3,80,0,53298,1
52,2,32021,31615,31918,39041,10421,-3460,-1589,-2722,1997,-3094,-8015,209,437,-363,1,0,26,3,120,0,53298,1
53,2,32337,31905,31927,39042,10421,-3348,-1627,-2829,2509,-3945,-8505,228,440,-360,1,0,26,3,160,0,53298,1
54,2,32378,30050,31958,39043,10421,-3451,-916,-3271,3172,-3521,-8502,246,448,-358,1,0,26,3,200,0,53298,1
55,2,32231,30266,31973,39044,10422,-3180,-419,-3406,3390,-3044,-6791,256,444,-354,1,0,26,3,240,0,53298,1
56,2,32106,30536,31997,39045,10422,-3214,-677,-3398,833,-1619,-5295,259,447,-349,1,0,26,3,280,0,53298,1
57,2,32049,30261,31983,39046,10423,-3052,-804,-3282,597,-761,-4206,264,444,-354,1,0,26,3,320,0,53298,1
58,2,32008,29875,31961,39047,10423,-2902,-563,-3369,1182,-15,-2488,262,436,-362,1,0,26,3,360,0,53298,1
59,2,32002,30003,31959,39048,10423,-2879,-427,-2955,2179,794,-67,250,438,-358,1,0,26,3,400,0,53298,1
60,2,32021,29974,31952,39049,10423,-2965,-660,-3207,1261,1572,2266,254,438,-358,1,0,26,3,440,0,53298,1
61,2,32048,30018,31948,39050,10423,-3326,-582,-3046,257,2443,4105,253,441,-359,1,0,26,3,480,0,53298,1
62,2,32023,29972,31946,39051,10423,-3654,-1019,-3060,-1834,2385,6164,234,440,-366,1,0,26,3,520,0,53298,1
63,2,31948,30020,31954,39052,10424,-4203,-580,-2455,-1012,2071,7391,229,441,-365,1,0,26,3,560,0,53298,1
64,2,31825,30042,31949,39053,10424,-3607,-1400,-3057,-3456,786,9090,213,439,-369,1,0,26,3,600,0,53298,1
65,2,31785,30025,31941,39054,10425,-3250,-1600,-3427,-4522,1859,8257,205,437,-369,1,0,26,3,640,0,53298,1
66,2,31793,29881,31925,39055,10425,-3329,-1536,-3233,-2814,3164,6952,192,442,-374,1,0,26,3,680,0,53298,1
67,2,31922,30251,31928,39056,10426,-3243,-1383,-3029,-990,2807,6658,183,431,-385,1,0,26,3,720,0,53298,1
68,2,32150,30390,31920,39057,10427,-3092,-1268,-2934,-1144,1697,6453,163,441,-385,1,0,26,3,760,0,53298,1
69,2,32414,30389,31912,39058,10427,-3048,-743,-2590,-2874,911,5672,158,434,-374,1,0,26,3,800,0,53298,1
70,2,32469,30544,31902,39059,10429,-2971,-1198,-2752,-3851,397,5157,158,430,-374,1,0,26,3,840,0,53298,1
71,2,32406,30482,31896,39060,10430,-2965,-1222,-2833,-2843,-50,3722,155,433,-373,1,0,26,3,880,0,53298,1
72,2,32298,30348,31894,39061,10431,-3075,-801,-2655,55,-987,2319,150,430,-368,1,0,26,3,920,0,53298,1
73,2,32265,30093,31895,39062,10432,-2920,-1303,-3078,-658,-1692,969,154,436,-376,1,0,26,3,960,0,53298,1
74,1,32285,30160,31902,39063,0,-2919,-980,-3025,280,-1439,-1170,155,429,-373,1,0,26,4,0,0,53298,1
75,2,32247,30276,31912,39064,9905,-3024,-1102,-3305,908,-1088,-2302,152,432,-370,1,0,26,4,40,0,53298,1
76,2,32158,30306,31923,39065,9906,-3174,-1041,-3375,2477,-789,-3328,163,431,-365,1,0,26,4,80,0,53298,1
77,2,32026,30287,31923,39066,9906,-3231,-704,-3428,2932,-230,-4436,171,439,-369,1,0,26,4,120,0,53298,1
78,2,31940,30277,31919,39067,9908,-3078,-542,-3527,1841,246,-4500,176,436,-376,1,0,26,4,160,0,53298,1
79,2,31862,30206,31920,39068,9909,-3175,16,-3324,185,1003,-2916,177,433,-391,1,0,26,4,200,0,53298,1
80,2,31768,30212,31917,39069,9910,-3329,-741,-3206,-1445,1637,-1565,183,427,-377,1,0,26,4,240,0,53298,1
81,2,31707,30202,31927,39070,9912,-3273,-928,-2941,475,1798,-2266,180,438,-388,1,0,26,4,280,0,53298,1
82,2,31670,30205,31926,39071,9913,-3193,-1121,-2718,1499,1362,-3293,189,427,-387,1,0,26,4,320,0,53298,1
83,2,31645,30163,31931,39072,9915,-3168,-1409,-2704,1572,505,-4088,194,426,-386,1,0,26,4,360,0,53298,1
84,2,31644,30147,31929,39073,9916,-3151,-1503,-2702,2197,-545,-5468,211,435,-385,1,0,26,4,400,0,53298,1
85,2,31710,29989,31920,39074,9917,-2976,-1597,-2753,3400,-1368,-7646,223,445,-365,1,0,26,4,440,0,53298,1
86,2,31834,30371,31917,39075,9919,-2825,-1457,-2952,1471,-2056,-7239,234,434,-374,1,0,26,4,480,0,53298,1
87,2,31865,30440,31916,39076,9921,-3264,-1063,-3298,1487,-1118,-6303,239,433,-375,1,0,26,4,520,0,53298,1
88,2,31828,29933,31890,39077,9922,-3054,-1054,-2837,3327,-1610,-4867,246,432,-370,1,0,26,4,560,0,53298,1
89,2,31835,30436,31909,39078,9923,-3385,-1517,-2984,1205,-1218,-4365,251,441,-361,1,0,26,4,600,0,53298,1
90,2,31792,30319,31889,39079,9925,-3483,-1351,-2770,1379,-1950,-4834,264,430,-366,1,0,26,4,640,0,53298,1
91,2,31801,29917,31907,39080,9926,-3228,-1201,-3022,632,-2933,-4441,253,431,-359,1,0,26,4,680,0,53298,1
92,2,31813,30269,31924,39081,9927,-2966,-1251,-3248,289,-2743,-3130,265,439,-361,1,0,26,4,720,0,53298,1
93,2,31826,29916,31915,39082,9928,-3016,-1011,-3331,1109,-1605,-1626,279,445,-365,1,0,26,4,760,0,53298,1
94,2,31862,29957,31926,39083,9929,-3140,-985,-3472,1481,-398,-97,268,436,-356,1,0,26,4,800,0,53298,1
95,2,31873,30466,31937,39084,9931,-3322,-1091,-3082,468,445,1465,265,439,-359,1,0,26,4,840,0,53298,1
96,2,31844,30098,31930,39085,9932,-3070,-1263,-3417,-410,947,2542,263,435,-365,1,0,26,4,880,0,53298,1
97,2,31835,30176,31917,39086,9934,-2852,-1031,-3751,-472,2110,3422,251,439,-359,1,0,26,4,920,0,53298,1
98,2,31850,30260,31910,39087,9934,-2993,-978,-3909,-1223,3788,4819,244,430,-374,1,0,26,4,960,0,53298,1
99,1,31875,30422,31920,39088,0,-3341,-1299,-3498,-525,5099,6209,239,439,-371,1,0,26,5,0,1,53298,1
100,2,31746,30657,31948,39089,9389,-4637,80,-1876,700,3990,8069,226,432,-374,1,0,26,5,40,1,53298,1
101,2,31611,30660,31949,39090,9390,-3574,-1612,-2859,-2124,1933,10355,203,431,-391,1,0,26,5,80,1,53298,1
102,2,31505,30637,31939,39091,9390,-3220,-1406,-3208,-3644,4083,8253,195,427,-387,1,0,26,5,120,1,53298,1
103,2,31433,30612,31918,39092,9392,-3309,-1464,-3395,-5895,4508,7131,178,420,-400,1,0,26,5,160,1,53298,1
104,2,31359,30461,31908,39093,9394,-2938,-1761,-3573,-4652,3434,6790,170,424,-398,1,0,26,5,200,1,53298,1
105,2,31313,30625,31905,39094,9394,-2488,-1806,-3383,-1645,3523,6103,167,421,-405,1,0,26,5,240,1,53298,1
106,2,31283,30625,31905,39095,9395,-2596,-1169,-2876,-1154,3746,5001,162,416,-408,1,0,26,5,280,1,53298,1
107,2,31280,30308,31886,39096,9396,-2821,16,-2178,-3836,1228,5250,151,421,-397,1,0,26,5,320,1,53298,1
108,2,31303,30429,31874,39097,9396,-2635,-1020,-2756,-6819,-811,3794,139,423,-395,1,0,26,5,360,1,53298,1
109,2,31325,30595,31873,39098,9396,-2648,-990,-2907,-4744,-926,1455,145,419,-403,1,0,26,5,400,1,53298,1
110,2,31346,30524,31872,39099,9397,-2672,-689,-3432,-557,-1094,489,133,417,-397,1,0,26,5,440,1,53298,1
111,2,31343,30553,31882,39100,9397,-2627,-749,-3686,2199,-741,-187,145,419,-401,1,0,26,5,480,1,53298,1
112,2,31346,30595,31893,39101,9397,-2669,-476,-3610,1321,511,-858,151,417,-405,1,0,26,5,520,1,53298,1
113,2,31351,30542,31893,39102,9398,-2727,-673,-3433,485,702,-971,156,420,-402,1,0,26,5,560,1,53298,1
114,2,31371,30563,31904,39103,9398,-2961,-957,-3116,1296,208,-1693,161,417,-409,1,0,26,5,600,1,53298,1
115,2,31447,30546,31908,39104,9398,-2910,-1185,-2622,2863,-356,-3523,166,424,-404,1,0,26,5,640,1,53298,1
116,2,31524,30508,31913,39105,9399,-2759,-719,-2706,3086,-1529,-5180,163,423,-393,1,0,26,5,680,1,53298,1
117,2,31566,30476,31902,39106,9400,-2975,-1576,-2901,1492,-2734,-5436,181,423,-395,1,0,26,5,720,1,53298,1
118,2,31554,30465,31894,39107,9401,-2962,-1294,-3742,2303,-2906,-7629,200,422,-394,1,0,26,5,760,1,53298,1
119,2,31561,30427,31884,39108,9401,-3235,-1139,-3771,3690,-3038,-9001,209,435,-391,1,0,26,5,800,1,53298,1
120,2,31630,30445,31877,39109,9401,-3019,-2367,-3222,3108,-3345,-10014,228,424,-382,1,0,26,5,840,1,53298,1
121,2,31831,30407,31887,39110,9401,-3052,-2141,-2807,2244,-3161,-10637,241,435,-371,1,0,26,5,880,1,53298,1
122,2,31925,30299,31898,39111,9400,-3429,-414,-3046,4905,-2228,-9988,245,437,-379,1,0,26,5,920,1,53298,1
123,2,31914,30046,31892,39112,9400,-3211,-541,-2670,6785,-3251,-6560,264,428,-362,1,0,26,5,960,1,53298,1
124,1,31895,29889,31900,39113,0,-3431,-1036,-3104,1775,-3191,-6134,270,434,-366,1,0,26,6,0,1,53298,1
125,2,31843,30772,31874,39114,8873,-3202,-786,-3036,-1459,-3229,-5480,283,431,-363,1,0,26,6,40,1,53298,1
126,2,31807,29876,31877,39115,8874,-3058,-818,-3086,-1454,-3582,-3593,282,434,-360,1,0,26,6,80,1,53298,1
127,2,31789,30120,31887,39116,8875,-2909,-1059,-3406,1079,-3226,-1157,281,433,-353,1,0,26,6,120,1,53298,1
128,2,31796,30255,31896,39117,8876,-2856,-941,-3691,1753,-1399,852,281,433,-351,1,0,26,6,160,1,53298,1
129,2,31800,30241,31896,39118,8877,-3404,-1423,-3537,432,225,2407,276,436,-354,1,0,26,6,200,1,53298,1
130,2,31768,30238,31897,39119,8878,-3485,-1669,-3826,107,1275,3302,270,440,-358,1,0,26,6,240,1,53298,1
131,2,31690,30195,31895,39120,8879,-3085,-1507,-3482,610,2471,3539,263,441,-353,1,0,26,6,280,1,53298,1
132,2,31644,30249,31889,39121,8880,-2852,-1362,-3013,397,3382,4110,257,437,-369,1,0,26,6,320,1,53298,1
133,2,31623,30387,31880,39122,8880,-2831,-1494,-2903,-648,4307,5006,250,438,-370,1,0,26,6,360,1,53298,1
134,2,31595,30404,31875,39123,8881,-3040,-1447,-2969,-812,4128,6065,238,436,-382,1,0,26,6,400,1,53298,1
135,2,31568,30405,31877,39124,8881,-3461,-1267,-2926,-1679,3838,7068,224,438,-380,1,0,26,6,440,1,53298,1
136,2,31542,30397,31872,39125,8882,-3521,-1176,-3007,-2528,2909,8061,215,437,-383,1,0,26,6,480,1,53298,1
137,2,31526,30377,31870,39126,8882,-3287,-1318,-3361,-4706,2427,8299,198,436,-388,1,0,26,6,520,1,53298,1
138,2,31547,30407,31888,39127,8882,-3116,-1987,-3836,-6424,2953,7500,182,430,-394,1,0,26,6,560,1,53298,1
139,2,31601,30476,31888,39128,8881,-3108,-1010,-3439,-2154,3851,6349,176,426,-394,1,0,26,6,600,1,53298,1
140,2,31562,30553,31890,39129,8881,-3043,-935,-3527,131,4082,6295,161,421,-403,1,0,26,6,640,1,53298,1
141,2,31461,30652,31892,39130,8881,-3230,129,-2434,-828,3109,6546,163,421,-409,1,0,26,6,680,1,53298,1
142,2,31393,30656,31875,39131,8883,-2784,-785,-2774,-5106,1564,6121,158,416,-406,1,0,26,6,720,1,53298,1
143,2,31376,30112,31850,39132,8883,-2553,-923,-2858,-6694,1109,4235,138,416,-398,1,0,26,6,760,1,53298,1
144,2,31365,30387,31845,39133,8884,-2557,-1274,-3268,-5180,196,3508,137,413,-395,1,0,26,6,800,1,53298,1
145,2,31339,30621,31855,39134,8885,-2609,-1547,-3099,-1010,-778,2592,132,412,-404,1,0,26,6,840,1,53298,1
146,2,31328,30623,31875,39135,8885,-2667,-1042,-3148,930,-1251,788,130,424,-396,1,0,26,6,880,1,53298,1
147,2,31335,30522,31875,39136,8886,-2617,-573,-3323,562,-1390,-1126,141,419,-401,1,0,26,6,920,1,53298,1
148,2,31334,30459,31875,39137,8888,-2707,-516,-3476,336,-782,-1852,147,423,-391,1,0,26,6,960,1,53298,1
149,1,31329,30409,31879,39138,0,-2815,-609,-3578,1214,-304,-2745,147,421,-405,1,0,26,7,0,0,53298,1
150,2,31335,30365,31893,39139,8357,-2968,-811,-3314,2440,-397,-4059,164,426,-398,1,0,26,7,40,0,53298,1
151,2,31349,30339,31894,39140,8359,-2998,-899,-3276,2891,-1130,-5347,175,427,-397,1,0,26,7,80,0,53298,1
152,2,31362,30308,31904,39141,8361,-2770,-1096,-2945,3447,-2033,-6844,184,436,-398,1,0,26,7,120,0,53298,1
153,2,31380,30269,31907,39142,8363,-2992,-1018,-2661,2688,-2082,-7120,193,427,-395,1,0,26,7,160,0,53298,1
154,2,31399,30126,31912,39143,8365,-3248,-1074,-2884,2736,-3183,-7046,200,434,-392,1,0,26,7,200,0,53298,1
155,2,31424,30278,31920,39144,8368,-3110,-1331,-2780,5193,-4092,-8568,215,429,-377,1,0,26,7,240,0,53298,1
156,2,31462,30272,31925,39145,8371,-3142,-1211,-2973,3986,-4124,-8419,224,432,-366,1,0,26,7,280,0,53298,1
157,2,31525,30292,31914,39146,8372,-3243,-1345,-3010,2360,-4233,-7527,243,443,-363,1,0,26,7,320,0,53298,1
158,2,31636,30256,31901,39147,8373,-3274,-1454,-3214,2106,-4396,-7180,250,432,-352,1,0,26,7,360,0,53298,1
159,2,31699,30188,31892,39148,8374,-3151,-1968,-3093,544,-3567,-6727,256,434,-364,1,0,26,7,400,0,53298,1
160,2,31678,29993,31895,39149,8377,-3662,-797,-3583,2706,-1349,-5984,272,438,-356,1,0,26,7,440,0,53298,1
161,2,31625,30393,31877,39150,8379,-3339,-1263,-3164,3196,-2704,-4058,269,427,-353,1,0,26,7,480,0,53298,1
162,2,31646,29941,31887,39151,8380,-3160,-1269,-3123,1158,-2134,-3255,274,438,-352,1,0,26,7,520,0,53298,1
163,2,31654,29952,31898,39152,8381,-3098,-1084,-3099,-1049,-1335,-2075,278,436,-346,1,0,26,7,560,0,53298,1
164,2,31658,29900,31899,39153,8383,-3073,-1208,-3063,-304,-1007,-740,279,439,-351,1,0,26,7,600,0,53298,1
165,2,31646,30139,31899,39154,8384,-3199,-1345,-2912,338,-417,723,273,437,-343,1,0,26,7,640,0,53298,1
166,2,31622,31449,31874,39155,8386,-3192,-1501,-2932,-404,-2,1523,273,437,-341,1,0,26,7,680,0,53298,1
167,2,31601,31627,31864,39156,8388,-3114,-1525,-3220,-723,350,2236,259,439,-345,1,0,26,7,720,0,53298,1
168,2,31587,31792,31861,39157,8389,-3071,-1620,-3332,-653,1244,2806,262,434,-348,1,0,26,7,760,0,53298,1
169,2,31593,31929,31860,39158,8390,-3142,-1510,-3253,-89,2177,3545,259,429,-365,1,0,26,7,800,0,53298,1
170,2,31623,31205,31868,39159,8392,-3258,-1299,-3157,-164,3007,5012,244,442,-360,1,0,26,7,840,0,53298,1
171,2,31639,30170,31902,39160,8394,-3308,-1401,-3319,-321,3566,5917,236,432,-360,1,0,26,7,880,0,53298,1
172,2,31536,30030,31936,39161,8394,-3882,-546,-2407,-602,2560,7092,234,446,-368,1,0,26,7,920,0,53298,1
173,2,31445,30150,31933,39162,8395,-3400,-840,-2530,-1527,1774,8041,214,442,-378,1,0,26,7,960,0,53298,1
174,1,31386,30154,31926,39163,0,-3093,-1335,-3129,-2341,2980,7483,208,434,-382,1,0,26,8,0,1,53298,1
175,2,31368,30020,31920,39164,7842,-3359,-1278,-3090,-2653,3095,7149,196,432,-380,1,0,26,8,40,1,53298,1
176,2,31376,30168,31917,39165,7843,-3552,-1176,-2633,-2181,1944,7456,175,431,-377,1,0,26,8,80,1,53298,1
177,2,31376,30444,31918,39166,7845,-3353,-1479,-3061,-3614,135,7942,167,437,-381,1,0,26,8,120,1,53298,1
178,2,31390,29950,31889,39167,7846,-3195,-719,-2748,-2970,-500,6720,165,435,-371,1,0,26,8,160,1,53298,1
179,2,31429,30259,31890,39168,7847,-2950,-1072,-3325,-4813,-326,6262,143,431,-379,1,0,26,8,200,1,53298,1
180,2,31466,30513,31884,39169,7849,-2996,-1113,-3434,-4647,166,4765,147,427,-377,1,0,26,8,240,1,53298,1
181,2,31499,30583,31881,39170,7851,-2946,-807,-3263,-1501,224,4195,140,428,-376,1,0,26,8,280,1,53298,1
182,2,31474,30397,31885,39171,7852,-2926,-1498,-3474,-1882,950,3298,141,423,-379,1,0,26,8,320,1,53298,1
183,2,31444,30486,31886,39172,7854,-2928,-1052,-2881,927,2021,545,138,424,-388,1,0,26,8,360,1,53298,1
184,2,31416,30367,31890,39173,7854,-2852,-1015,-2996,925,1902,-1100,144,412,-380,1,0,26,8,400,1,53298,1
185,2,31358,30158,31894,39174,7855,-2789,-724,-3125,1588,1438,-2230,147,423,-391,1,0,26,8,440,1,53298,1
186,2,31315,29846,31883,39175,7856,-3046,-649,-2982,2540,1087,-3210,155,425,-393,1,0,26,8,480,1,53298,1
187,2,31304,29815,31865,39176,7856,-3108,-950,-3232,1818,378,-4417,152,424,-388,1,0,26,8,520,1,53298,1
188,2,31322,29815,31854,39177,7857,-2960,-1214,-3248,1809,202,-6048,176,424,-392,1,0,26,8,560,1,53298,1
189,2,31376,29896,31856,39178,7858,-2887,-1433,-2964,1724,304,-7496,184,430,-390,1,0,26,8,600,1,53298,1
190,2,31476,30033,31869,39179,7859,-3000,-462,-2382,2244,-467,-7580,201,431,-391,1,0,26,8,640,1,53298,1
191,2,31507,30078,31860,39180,7860,-3182,-457,-3207,-514,-2569,-4243,197,437,-393,1,0,26,8,680,1,53298,1
192,2,31520,30391,31861,39181,7860,-2885,-1290,-2976,3185,-1746,-7358,211,433,-379,1,0,26,8,720,1,53298,1
193,2,31565,30145,31826,39182,7861,-3448,-595,-2606,3351,-1029,-6404,221,437,-373,1,0,26,8,760,1,53298,1
194,2,31594,29829,31820,39183,7863,-3052,-2215,-3082,1085,-2218,-6801,226,442,-370,1,0,26,8,800,1,53298,1
195,2,31619,29952,31782,39184,7864,-3060,-1153,-2895,2213,-2848,-6924,239,435,-375,1,0,26,8,840,1,53298,1
196,2,31678,30410,31804,39185,7867,-2852,-1272,-3178,448,-3703,-5417,252,432,-372,1,0,26,8,880,1,53298,1
197,2,31687,30312,31806,39186,7870,-3248,-1393,-3634,1563,-1558,-4979,255,441,-373,1,0,26,8,920,1,53298,1
198,2,31710,30081,31784,39187,7872,-3455,-1017,-3254,3970,-1375,-3638,261,435,-365,1,0,26,8,960,1,53298,1
199,1,31729,30578,31812,39188,7326,-3309,-1253,-3020,3148,-1266,-2781,260,438,-360,1,0,26,9,0,0,53298,1
200,2,31720,30440,31824,39189,7328,-3366,-1177,-2810,1484,-1217,-1995,266,434,-364,1,0,26,9,40,0,53298,1
201,2,31721,30677,31828,39190,7330,-3191,-1230,-3037,61,-1746,-997,276,434,-370,1,0,26,9,80,0,53298,1
202,2,31721,30682,31829,39191,7332,-2985,-1311,-3279,-559,-1418,-13,259,441,-349,1,0,26,9,120,0,53298,1
203,2,31725,30565,31823,39192,7334,-3026,-1038,-3513,-257,-143,1022,267,435,-359,1,0,26,9,160,0,53298,1
204,2,31720,30686,31823,39193,7335,-3075,-1046,-3438,-797,780,2279,246,446,-356,1,0,26,9,200,0,53298,1
205,2,31701,30683,31815,39194,7337,-3122,-1507,-3547,-1919,1653,3351,249,449,-365,1,0,26,9,240,0,53298,1
206,2,31688,30683,31812,39195,7339,-3192,-1530,-3267,-1714,2361,3737,251,441,-365,1,0,26,9,280,0,53298,1
207,2,31679,30682,31811,39196,7340,-3318,-1153,-3183,-248,2918,4160,241,439,-373,1,0,26,9,320,0,53298,1
208,2,31692,30682,31815,39197,7342,-3302,-804,-2824,-28,2942,5280,237,445,-371,1,0,26,9,360,0,53298,1
209,2,31690,30681,31811,39198,7344,-3556,-714,-3062,-2070,3086,7052,218,436,-382,1,0,26,9,400,0,53298,1
210,2,31650,30678,31810,39199,7347,-3454,-985,-3138,-5376,1802,7868,202,440,-376,1,0,26,9,440,0,53298,1
211,2,31596,30675,31817,39200,7350,-3183,-1265,-3546,-6344,2386,7825,187,431,-379,1,0,26,9,480,0,53298,1
212,2,31540,30671,31818,39201,7352,-2946,-1529,-3864,-4232,3643,7406,185,435,-391,1,0,26,9,520,0,53298,1
213,2,31522,30668,31818,39202,7355,-3005,-1295,-3466,-1147,4202,6862,176,418,-398,1,0,26,9,560,0,53298,1
214,2,31508,30461,31815,39203,7358,-2823,-1374,-3374,270,4435,5830,156,414,-394,1,0,26,9,600,0,53298,1
215,2,31500,30667,31800,39204,7359,-3105,198,-2337,-3269,2531,5285,144,420,-392,1,0,26,9,640,0,53298,1
216,2,31507,30674,31785,39205,7362,-2688,-811,-2524,-7720,258,4863,141,419,-403,1,0,26,9,680,0,53298,1
217,2,31513,30670,31776,39206,7364,-2479,-1189,-2916,-7244,181,3370,138,416,-398,1,0,26,9,720,0,53298,1
218,2,31492,30660,31778,39207,7365,-2475,-1031,-3178,-1316,1206,1791,132,416,-400,1,0,26,9,760,0,53298,1
219,2,31454,30663,31792,39208,7366,-2528,-917,-3397,2435,703,931,147,415,-403,1,0,26,9,800,0,53298,1
220,2,31435,30667,31794,39209,7367,-2759,-355,-3149,1726,460,-460,147,417,-403,1,0,26,9,840,0,53298,1
221,2,31425,30662,31801,39210,7369,-2878,-501,-3306,-169,-782,-1219,142,426,-394,1,0,26,9,880,0,53298,1
222,2,31414,30645,31812,39211,7370,-2767,-531,-3221,353,-890,-2672,150,420,-394,1,0,26,9,920,0,53298,1
223,2,31410,30641,31822,39212,7370,-2907,-499,-3223,1958,-550,-3566,158,420,-404,1,0,26,9,960,0,53298,1
224,1,31432,30622,31823,39213,6812,-2855,-1130,-3205,4138,-539,-4722,168,418,-408,1,0,26,10,0,0,53298,1
225,2,31473,30599,31822,39214,6813,-2746,-842,-3164,5292,-693,-6114,175,421,-401,1,0,26,10,40,0,53298,1
226,2,31526,30568,31827,39215,6815,-2740,-929,-2901,3200,-1650,-6178,195,419,-399,1,0,26,10,80,0,53298,1
227,2,31579,30603,31829,39216,6817,-3026,-403,-3222,1828,-2669,-5266,202,430,-390,1,0,26,10,120,0,53298,1
228,2,31639,30511,31826,39217,6818,-2996,-1283,-3046,3195,-2328,-5592,202,424,-388,1,0,26,10,160,0,53298,1
229,2,31694,30530,31819,39218,6820,-3161,-1289,-2697,4246,-2272,-6235,218,430,-380,1,0,26,10,200,0,53298,1
230,2,31748,30665,31828,39219,6822,-3247,-1633,-2972,3496,-2935,-6983,229,437,-379,1,0,26,10,240,0,53298,1
231,2,31802,30389,31828,39220,6824,-3105,-1266,-3128,3954,-3468,-6398,239,431,-385,1,0,26,10,280,0,53298,1
232,2,31803,30663,31851,39221,6826,-3136,-1494,-3513,4422,-3098,-5010,244,438,-376,1,0,26,10,320,0,53298,1
233,2,31788,31356,31821,39222,6828,-3134,-610,-3468,5864,-2540,-3150,248,440,-370,1,0,26,10,360,0,53298,1
234,2,31780,30109,31835,39223,6831,-3247,-1134,-3234,2125,-2536,-2297,253,439,-359,1,0,26,10,400,0,53298,1
235,2,31796,30158,31846,39224,6833,-3283,-1325,-2975,-625,-2590,-2122,259,437,-351,1,0,26,10,440,0,53298,1
236,2,31835,30040,31852,39225,6837,-3176,-1306,-3383,-1143,-2463,-1906,251,437,-355,1,0,26,10,480,0,53298,1
237,2,31851,30270,31862,39226,6839,-2968,-1359,-3824,-775,-1532,-825,253,441,-361,1,0,26,10,520,0,53298,1
238,2,31844,29890,31863,39227,6841,-2857,-1143,-3917,-407,578,455,255,441,-357,1,0,26,10,560,0,53298,1
239,2,31807,30155,31862,39228,6845,-2982,-1172,-3554,-1772,1883,1998,243,433,-363,1,0,26,10,600,0,53298,1
240,2,31770,30375,31841,39229,6847,-3082,-1057,-3391,-2328,2598,2634,247,431,-371,1,0,26,10,640,0,53298,1
241,2,31723,29890,31849,39230,6850,-3021,-1404,-3459,-2928,2726,3057,242,438,-370,1,0,26,10,680,0,53298,1
242,2,31685,29918,31853,39231,6853,-3134,-1115,-3215,-3411,3056,3773,233,429,-385,1,0,26,10,720,0,53298,1
243,2,31668,30045,31849,39232,6856,-3288,-1284,-3287,-2513,3244,4708,223,435,-387,1,0,26,10,760,0,53298,1
244,2,31686,29907,31839,39233,6858,-3284,-1109,-2661,-701,3255,5113,212,434,-366,1,0,26,10,800,0,53298,1
245,2,31700,29891,31847,39234,6861,-3167,-1259,-3419,-659,3798,5854,205,435,-387,1,0,26,10,840,0,53298,1
246,2,31688,29878,31845,39235,6863,-3278,-498,-2993,-619,3852,6106,196,436,-392,1,0,26,10,880,0,53298,1
247,2,31674,29885,31846,39236,6864,-2849,-914,-3251,-1272,3398,6464,183,427,-403,1,0,26,10,920,0,53298,1
248,2,31674,30270,31850,39237,6864,-2789,-951,-3629,-2927,3219,6293,179,423,-407,1,0,26,10,960,0,53298,1
249,1,31693,30565,31858,39238,6298,-2822,-1201,-3606,-3306,3225,6016,168,418,-404,1,0,26,11,0,1,53298,1
250,2,31674,30162,31826,39239,6300,-2819,-1389,-3312,-2218,2896,5618,159,413,-415,1,0,26,11,40,1,53298,1
251,2,31670,30579,31844,39240,6302,-2824,-533,-2810,-852,2472,4734,155,409,-417,1,0,26,11,80,1,53298,1
252,2,31630,30417,31829,39241,6303,-2665,-723,-2778,-2869,805,4283,152,408,-408,1,0,26,11,120,1,53298,1
253,2,31612,30522,31821,39242,6304,-2364,-1115,-2917,-5258,-157,2737,140,414,-414,1,0,26,11,160,1,53298,1
254,2,31589,30120,31819,39243,6305,-2347,-1327,-3267,-3792,-369,903,151,409,-407,1,0,26,11,200,1,53298,1
255,2,31560,30351,31827,39244,6307,-2369,-1292,-3440,369,-661,-505,145,409,-415,1,0,26,11,240,1,53298,1
256,2,31526,30184,31835,39245,6310,-2453,-1036,-3575,1662,-683,-1926,156,416,-412,1,0,26,11,280,1,53298,1
257,2,31490,30082,31845,39246,6312,-2624,-597,-3719,2748,-105,-2759,159,417,-413,1,0,26,11,320,1,53298,1
258,2,31454,29949,31845,39247,6315,-2810,-357,-3491,4921,464,-2803,164,416,-412,1,0,26,11,360,1,53298,1
259,2,31450,29933,31840,39248,6317,-2663,-520,-3618,3336,345,-3182,168,416,-416,1,0,26,11,400,1,53298,1
260,2,31454,29977,31838,39249,6319,-2544,-697,-3753,300,815,-3781,171,415,-415,1,0,26,11,440,1,53298,1
261,2,31466,30069,31839,39250,6320,-2626,-774,-3486,929,1007,-3447,183,417,-413,1,0,26,11,480,1,53298,1
262,2,31492,30067,31840,39251,6321,-2688,-727,-3227,2533,376,-2809,182,414,-408,1,0,26,11,520,1,53298,1
263,2,31535,30004,31833,39252,6323,-2749,-773,-2988,2368,-125,-2710,192,416,-416,1,0,26,11,560,1,53298,1
264,2,31580,30265,31837,39253,6325,-2845,-1184,-2926,1868,-340,-3364,199,419,-417,1,0,26,11,600,1,53298,1
265,2,31620,30378,31835,39254,6326,-2788,-1407,-2756,2545,-1376,-4604,212,414,-422,1,0,26,11,640,1,53298,1
266,2,31695,30301,31835,39255,6328,-2626,-1688,-2615,3420,-3023,-5660,213,417,-403,1,0,26,11,680,1,53298,1
267,2,31780,30497,31828,39256,6330,-2710,-1623,-2670,2682,-4878,-6516,225,423,-389,1,0,26,11,720,1,53298,1
268,2,31789,30037,31846,39257,6333,-2628,-1851,-3493,1981,-5138,-7221,239,423,-391,1,0,26,11,760,1,53298,1
269,2,31773,29897,31850,39258,6335,-3049,127,-3597,5759,-3867,-4813,241,431,-393,1,0,26,11,800,1,53298,1
270,2,31756,29885,31843,39259,6337,-3249,-1017,-3864,3220,-3952,-2801,252,418,-390,1,0,26,11,840,1,53298,1
271,2,31782,30055,31864,39260,6339,-3449,-1494,-3383,-827,-3656,-2627,260,428,-382,1,0,26,11,880,1,53298,1
272,2,32302,30203,32378,39261,6341,-3178,-1814,-3078,-2967,-4116,-3624,248,436,-382,1,0,26,11,920,1,53298,1
273,2,32286,30034,32369,39262,6341,-2965,-1703,-3259,-1813,-4070,-4162,260,438,-368,1,0,26,11,960,1,53298,1
274,1,32274,30081,32373,39263,5783,-2820,-1456,-3456,670,-3469,-3508,253,433,-369,1,0,26,12,0,0,53298,1
275,2,32250,30126,32369,39264,5785,-2837,-1178,-3618,1184,-2434,-2257,264,442,-358,1,0,26,12,40,0,53298,1
276,2,32219,30079,32363,39265,5787,-2901,-1128,-3919,-60,-1053,-794,270,438,-368,1,0,26,12,80,0,53298,1
277,2,32211,30104,32368,39266,5789,-3113,-977,-3524,-541,617,747,270,434,-370,1,0,26,12,120,0,53298,1
278,2,32185,30115,32368,39267,5790,-3235,-1014,-3618,-112,1862,2204,257,435,-359,1,0,26,12,160,0,53298,1
279,2,32130,30155,32364,39268,5792,-2995,-1154,-3746,119,3019,2821,263,437,-375,1,0,26,12,200,0,53298,1
280,2,32139,30159,32373,39269,5794,-2964,-1003,-3089,-400,3798,3633,243,437,-387,1,0,26,12,240,0,53298,1
281,2,32148,30190,32375,39270,5796,-3160,-1526,-3152,-1500,4627,5095,239,423,-393,1,0,26,12,280,0,53298,1
282,2,32143,30293,32383,39271,5798,-3241,-1376,-3001,391,4586,5502,234,432,-394,1,0,26,12,320,0,53298,1
283,2,32149,30178,32389,39272,5800,-2967,-1483,-2862,-267,3811,5496,222,432,-390,1,0,26,12,360,0,53298,1
284,2,32103,30280,32396,39273,5801,-3260,-706,-2660,-1120,4243,5566,219,417,-403,1,0,26,12,400,0,53298,1
285,2,32039,30354,32379,39274,5803,-2851,-1030,-3048,-2477,1380,6694,198,416,-404,1,0,26,12,440,0,53298,1
286,2,31982,30224,32367,39275,5805,-2598,-1688,-3317,-3543,2582,4974,205,417,-409,1,0,26,12,480,0,53298,1
287,2,31963,30344,32374,39276,5808,-2759,-976,-3408,-3154,2239,5101,188,416,-410,1,0,26,12,520,0,53298,1
288,2,31980,30767,32373,39277,5809,-2938,-1135,-3321,-2345,1775,5918,181,417,-403,1,0,26,12,560,0,53298,1
289,2,31972,30139,32374,39278,5811,-2865,-1166,-3164,-794,659,5756,158,420,-404,1,0,26,12,600,0,53298,1
290,2,32025,30570,32360,39279,5812,-2986,-316,-2955,-3148,-805,5483,170,416,-412,1,0,26,12,640,0,53298,1
291,2,32062,30691,32319,39280,5814,-2715,-1069,-3174,-5492,-1108,4844,150,414,-402,1,0,26,12,680,0,53298,1
292,2,32102,30658,32334,39281,5815,-2548,-1024,-3648,-4548,-288,3036,151,411,-407,1,0,26,12,720,0,53298,1
293,2,32169,30534,32322,39282,5816,-2420,-667,-3860,-1735,-176,2818,143,413,-413,1,0,26,12,760,0,53298,1
294,2,32198,30625,32336,39283,5817,-2632,-1160,-3863,-427,141,2728,146,410,-412,1,0,26,12,800,0,53298,1
295,2,32123,30705,32346,39284,5819,-2716,-1163,-3154,114,652,1286,142,416,-402,1,0,26,12,840,0,53298,1
296,2,32021,30556,32345,39285,5821,-2573,-1208,-3186,-524,649,-570,143,415,-395,1,0,26,12,880,0,53298,1
297,2,31934,30630,32363,39286,5822,-2465,-848,-3269,1316,625,-2024,150,418,-408,1,0,26,12,920,0,53298,1
298,2,31861,30473,32358,39287,5822,-2816,-356,-3056,3875,311,-2324,147,411,-405,1,0,26,12,960,0,53298,1
299,1,31863,30659,32352,39288,5270,-2767,-1049,-3293,4307,-313,-3022,154,414,-406,1,0,26,13,0,1,53298,1
300,2,31876,30857,32347,39289,5271,-2717,-1495,-3047,2099,-692,-5550,171,425,-403,1,0,26,13,40,1,53298,1
301,2,31922,30385,32353,39290,5272,-2890,-1403,-2727,776,-1606,-7226,188,420,-402,1,0,26,13,80,1,53298,1
302,2,31979,30416,32354,39291,5273,-2868,-1362,-2607,2495,-3146,-7428,194,430,-394,1,0,26,13,120,1,53298,1
303,2,32025,30860,32347,39292,5274,-2884,-108,-3571,3052,-4334,-6457,202,428,-388,1,0,26,13,160,1,53298,1
304,2,32037,30890,32342,39293,5275,-3279,-356,-4393,2050,-3075,-5124,214,430,-392,1,0,26,13,200,1,53298,1
305,2,32075,30895,32346,39294,5276,-3014,-1957,-3040,1901,-2221,-5375,221,435,-383,1,0,26,13,240,1,53298,1
306,2,32163,30899,32345,39295,5278,-3251,-2036,-3178,-643,-1424,-6565,237,431,-401,1,0,26,13,280,1,53298,1
307,2,32244,30897,32355,39296,5279,-2903,-1279,-3012,3223,-1630,-7606,246,424,-390,1,0,26,13,320,1,53298,1
308,2,32344,30891,32362,39297,5281,-2843,-614,-3141,6073,-706,-5985,256,430,-382,1,0,26,13,360,1,53298,1
309,2,32411,30894,32363,39298,5283,-2762,-1265,-3560,5132,297,-4274,258,436,-386,1,0,26,13,400,1,53298,1
310,2,32396,30903,32369,39299,5286,-3240,-807,-3155,4301,327,-2823,259,419,-373,1,0,26,13,440,1,53298,1
311,2,32315,30908,32370,39300,5288,-3072,-1110,-3396,478,-1551,-1448,266,436,-372,1,0,26,13,480,1,53298,1
312,2,32269,30900,32371,39301,5290,-2765,-1541,-3306,-3003,-1969,-400,263,437,-381,1,0,26,13,520,1,53298,1
313,2,32234,30656,32361,39302,5293,-2931,-1861,-2964,-2849,-885,-600,257,433,-379,1,0,26,13,560,1,53298,1
314,2,32176,30758,32346,39303,5296,-3106,-1837,-2837,-959,-828,-707,256,428,-378,1,0,26,13,600,1,53298,1
315,2,32183,34791,32329,39304,5299,-3002,-1739,-2891,-222,-1542,-526,261,431,-377,1,0,26,13,640,1,53298,1
316,2,32167,34595,32322,39305,5303,-2902,-1698,-3094,-187,-1386,-551,258,430,-360,1,0,26,13,680,1,53298,1
317,2,32129,31303,32310,39306,5306,-2927,-1544,-3409,253,-1080,-293,264,434,-376,1,0,26,13,720,1,53298,1
318,2,32126,31539,32306,39307,5309,-2905,-1445,-3596,-10,-585,280,262,432,-370,1,0,26,13,760,1,53298,1
319,2,32112,30763,32317,39308,5311,-2977,-1457,-3323,-1027,20,1024,264,430,-372,1,0,26,13,800,1,53298,1
320,2,32094,31010,32308,39309,5313,-3005,-1206,-3312,-1446,274,1789,255,423,-373,1,0,26,13,840,1,53298,1
321,2,32057,31079,32324,39310,5315,-2989,-1379,-3786,-2070,951,2494,246,428,-376,1,0,26,13,880,1,53298,1
322,2,32080,30687,32327,39311,5316,-2743,-1024,-3127,-459,1605,3324,238,434,-376,1,0,26,13,920,1,53298,1
323,2,32131,30645,32336,39312,5316,-3121,-924,-3755,-1423,3149,4756,227,431,-387,1,0,26,13,960,1,53298,1
324,1,32247,30341,32403,39313,4756,-3302,-1574,-3424,-1303,4234,5531,226,434,-388,1,0,26,14,0,1,53298,1
325,2,32204,30884,32420,39314,4758,-4162,783,-1375,815,978,7585,211,435,-383,1,0,26,14,40,1,53298,1
326,2,32171,30892,32431,39315,4759,-3086,-1022,-2859,-1961,-412,7701,195,437,-389,1,0,26,14,80,1,53298,1
327,2,32230,30885,32445,39316,4761,-2434,-1400,-3570,-6863,1535,8080,175,433,-391,1,0,26,14,120,1,53298,1
328,2,32393,30887,32469,39317,4764,-3342,-1249,-3588,-6565,3844,7514,167,421,-401,1,0,26,14,160,1,53298,1
329,2,32196,30697,32030,39318,4765,-3781,-857,-2869,-338,2291,8096,171,429,-397,1,0,26,14,200,1,53298,1
330,2,32200,30699,32068,39319,4766,-2903,-927,-3325,-491,706,8106,153,417,-393,1,0,26,14,240,1,53298,1
331,2,32371,30788,32434,39320,4769,-3030,37,-2787,-1473,1031,6774,146,412,-390,1,0,26,14,280,1,53298,1
332,2,32375,30767,32448,39321,4771,-2852,-355,-2904,-9301,-365,5123,127,409,-393,1,0,26,14,320,1,53298,1
333,2,32411,30897,32445,39322,4773,-2618,-1627,-3727,-9096,-1098,4748,120,416,-386,1,0,26,14,360,1,53298,1
334,2,32384,30896,32444,39323,4774,-2518,-1606,-3761,-1713,-434,3296,130,416,-396,1,0,26,14,400,1,53298,1
335,2,32332,30895,32435,39324,4775,-2643,-1156,-3614,2770,679,994,115,413,-387,1,0,26,14,440,1,53298,1
336,2,32235,30897,32433,39325,4776,-2740,-546,-3431,1531,1145,-1574,125,415,-389,1,0,26,14,480,1,53298,1
337,2,32127,30496,32427,39326,4777,-2689,-393,-3408,742,1363,-2680,129,419,-397,1,0,26,14,520,1,53298,1
338,2,32011,30355,32426,39327,4779,-2856,-84,-3313,2758,1594,-3008,143,417,-397,1,0,26,14,560,1,53298,1
339,2,31955,30847,32411,39328,4780,-2922,-541,-3317,3336,1570,-3305,150,422,-406,1,0,26,14,600,1,53298,1
340,2,31918,30831,32397,39329,4781,-2898,-603,-3804,1701,1031,-4423,159,411,-417,1,0,26,14,640,1,53298,1
341,2,31949,30877,32392,39330,4783,-2667,-965,-3301,1662,1083,-5550,160,420,-406,1,0,26,14,680,1,53298,1
342,2,31994,30517,32392,39331,4786,-2547,-331,-2764,1299,617,-4919,168,426,-422,1,0,26,14,720,1,53298,1
343,2,32017,30647,32400,39332,4788,-2566,-770,-3501,-315,-164,-3076,170,420,-416,1,0,26,14,760,1,53298,1
344,2,32033,30753,32409,39333,4791,-2966,-699,-2798,3707,464,-4601,180,420,-418,1,0,26,14,800,1,53298,1
345,2,32057,30870,32410,39334,4792,-3064,-1046,-2826,3950,-150,-5639,194,426,-414,1,0,26,14,840,1,53298,1
346,2,32129,30820,32396,39335,4795,-2959,-1332,-3193,4231,-1370,-7051,212,422,-398,1,0,26,14,880,1,53298,1
347,2,32352,30812,32393,39336,4797,-2745,-1967,-2885,5271,-2390,-8434,228,426,-396,1,0,26,14,920,1,53298,1
348,2,32671,30815,32411,39337,4797,-2995,-2704,-3168,1348,-3336,-9010,240,414,-406,1,0,26,14,960,1,53298,1
349,1,32690,30665,32410,39338,4242,-3239,-743,-3243,4992,-3304,-9248,258,432,-388,1,0,26,15,0,1,53298,1
350,2,32260,30742,32114,39339,4245,-2703,-365,-3373,5723,-4554,-6714,261,423,-385,1,0,26,15,40,1,53298,1
351,2,32145,30734,32060,39340,4248,-2835,-1330,-3250,66,-3043,-5733,266,430,-378,1,0,26,15,80,1,53298,1
352,2,32151,30741,32074,39341,4251,-3155,-1430,-3087,-2239,-2597,-5865,270,428,-386,1,0,26,15,120,1,53298,1
353,2,32133,30666,32096,39342,4254,-3135,-1306,-3224,-1475,-3638,-5098,282,422,-364,1,0,26,15,160,1,53298,1
354,2,32127,30578,32094,39343,4257,-3022,-1260,-3356,1523,-3566,-3220,283,425,-371,1,0,26,15,200,1,53298,1
355,2,32165,30650,32120,39344,4260,-2959,-1301,-3580,2190,-2874,-1677,278,432,-366,1,0,26,15,240,1,53298,1
356,2,32183,30519,32120,39345,4262,-2870,-884,-3746,1125,-1167,-321,279,439,-359,1,0,26,15,280,1,53298,1
357,2,32161,30570,32115,39346,4265,-3078,-1014,-3426,1098,781,1213,275,435,-361,1,0,26,15,320,1,53298,1
358,2,32101,30311,32105,39347,4268,-3067,-1153,-3252,980,1181,2644,278,426,-374,1,0,26,15,360,1,53298,1
359,2,32057,30722,32094,39348,4271,-2761,-1479,-3361,-1336,1555,3696,264,418,-370,1,0,26,15,400,1,53298,1
360,2,32028,30670,32100,39349,4273,-2810,-1649,-3450,-2049,2401,4406,255,431,-373,1,0,26,15,440,1,53298,1
361,2,32040,30755,32137,39350,4276,-2936,-1728,-3380,-1100,3261,4894,253,429,-383,1,0,26,15,480,1,53298,1
362,2,32075,30788,32190,39351,4278,-3097,-1562,-3042,58,3685,5273,249,429,-381,1,0,26,15,520,1,53298,1
363,2,32033,30776,32171,39352,4281,-3239,-1473,-3076,-232,3742,5614,229,435,-383,1,0,26,15,560,1,53298,1
364,2,31994,30791,32180,39353,4283,-3180,-1484,-3196,-1115,3411,5607,223,429,-393,1,0,26,15,600,1,53298,1
365,2,32078,30820,32291,39354,4285,-3032,-1287,-3341,-1414,3118,5228,226,428,-400,1,0,26,15,640,1,53298,1
366,2,32033,30866,32341,39355,4287,-2994,-1139,-3092,-1421,2654,4992,216,432,-402,1,0,26,15,680,1,53298,1
367,2,31990,30875,32345,39356,4288,-2920,-927,-3129,-2365,1817,6014,200,426,-408,1,0,26,15,720,1,53298,1
368,2,31950,30859,32344,39357,4290,-2810,-1122,-3332,-2434,1823,6324,186,422,-402,1,0,26,15,760,1,53298,1
369,2,31949,30865,32339,39358,4292,-2912,-944,-3313,-1829,1739,5915,187,417,-409,1,0,26,15,800,1,53298,1
370,2,31979,30847,32338,39359,4293,-2900,-850,-3344,-2315,1065,5823,168,422,-412,1,0,26,15,840,1,53298,1
371,2,31997,30015,32331,39360,4295,-2967,-770,-3469,-3500,851,6062,167,409,-407,1,0,26,15,880,1,53298,1
372,2,31971,30865,32311,39361,4296,-3037,-564,-3364,-4235,464,6732,150,418,-408,1,0,26,15,920,1,53298,1
373,2,31925,30837,32300,39362,4296,-2744,-1275,-3531,-5298,263,6358,138,420,-400,1,0,26,15,960,1,53298,1
374,1,31914,30841,32290,39363,3729,-2528,-624,-3287,-2771,405,4661,135,419,-409,1,0,26,16,0,0,53298,1
375,2,31915,30848,32276,39364,3731,-2501,-526,-3327,-1562,574,4021,135,419,-411,1,0,26,16,40,0,53298,1
376,2,31934,30859,32273,39365,3733,-2459,-1046,-3528,-1825,420,3682,123,401,-405,1,0,26,16,80,0,53298,1
377,2,31961,30800,32276,39366,3735,-2559,-820,-3230,-1803,464,2429,128,410,-408,1,0,26,16,120,0,53298,1
378,2,31996,30858,32278,39367,3737,-2610,-763,-3134,-237,139,1287,133,411,-407,1,0,26,16,160,0,53298,1
379,2,31999,30709,32285,39368,3739,-2447,-788,-3272,280,-137,-422,126,410,-400,1,0,26,16,200,0,53298,1
380,2,31964,30840,32301,39369,3741,-2495,-456,-3496,322,58,-1757,138,404,-406,1,0,26,16,240,0,53298,1
381,2,31900,30760,32296,39370,3743,-2626,-824,-3499,1271,-256,-2452,136,410,-406,1,0,26,16,280,0,53298,1
382,2,31872,30533,32305,39371,3744,-2643,-810,-3568,1379,-405,-3977,151,407,-411,1,0,26,16,320,0,53298,1
383,2,31870,30629,32295,39372,3745,-2567,-696,-3287,1167,-443,-5168,162,402,-412,1,0,26,16,360,0,53298,1
384,2,31912,30485,32294,39373,3747,-2612,-394,-3392,2937,-367,-5559,160,416,-410,1,0,26,16,400,0,53298,1
385,2,31973,30459,32302,39374,3750,-2778,-655,-3192,3639,-444,-5239,173,421,-419,1,0,26,16,440,0,53298,1
386,2,32021,30569,32304,39375,3752,-2907,-369,-3067,2333,-865,-4973,167,425,-413,1,0,26,16,480,0,53298,1
387,2,32011,30709,32311,39376,3754,-3048,-216,-3575,1492,-1067,-3768,187,425,-405,1,0,26,16,520,0,53298,1
388,2,32019,30776,32313,39377,3756,-3018,-710,-3169,3960,-1245,-4163,193,421,-399,1,0,26,16,560,0,53298,1
389,2,32058,30810,32316,39378,3758,-2702,-2055,-2946,2524,-1171,-4907,200,430,-402,1,0,26,16,600,0,53298,1
390,2,32109,30865,32313,39379,3759,-3081,-1303,-3331,2213,-1490,-6973,209,423,-397,1,0,26,16,640,0,53298,1
391,2,32213,30812,32317,39380,3762,-2800,-1534,-3064,3163,-2338,-8011,225,427,-397,1,0,26,16,680,0,53298,1
392,2,32344,30358,32311,39381,3764,-2895,-1523,-3014,1797,-2277,-7452,234,428,-398,1,0,26,16,720,0,53298,1
393,2,32382,30838,32324,39382,3766,-2960,-1297,-3441,3316,-1570,-6841,246,420,-392,1,0,26,16,760,0,53298,1
394,2,32395,30803,32320,39383,3769,-2811,-1037,-3054,3928,-2574,-5599,252,434,-374,1,0,26,16,800,0,53298,1
395,2,32331,30435,32304,39384,3772,-3060,-1407,-3222,511,-3200,-4293,258,424,-386,1,0,26,16,840,0,53298,1
396,2,32241,30860,32301,39385,3774,-3156,-1081,-3448,921,-3251,-4203,261,423,-371,1,0,26,16,880,0,53298,1
397,2,32145,30858,32301,39386,3777,-3082,-730,-3518,-586,-3768,-3555,272,424,-382,1,0,26,16,920,0,53298,1
398,2,32093,30855,32300,39387,3777,-2909,-1185,-3202,-3296,-3514,-1984,257,429,-367,1,0,26,16,960,0,53298,1
399,1,32076,30855,32295,39388,3217,-2915,-1217,-3409,-2928,-2387,-698,260,428,-372,1,0,26,17,0,1,53298,1
400,2,32086,30857,32297,39389,3219,-2751,-1124,-3546,91,-915,595,256,436,-368,1,0,26,17,40,1,53298,1
401,2,32105,30429,32298,39390,3221,-2872,-1080,-3566,1446,980,2151,254,442,-366,1,0,26,17,80,1,53298,1
402,2,32141,30647,32299,39391,3224,-3032,-1255,-3575,1515,2446,3504,254,436,-374,1,0,26,17,120,1,53298,1
403,2,32214,30854,32304,39392,3227,-3089,-1234,-3399,1469,3254,4244,241,427,-373,1,0,26,17,160,1,53298,1
404,2,32283,30854,32314,39393,3230,-3040,-1299,-3152,717,3290,4968,241,425,-389,1,0,26,17,200,1,53298,1
405,2,32296,30850,32321,39394,3233,-3181,-1155,-2976,-251,3369,5880,218,434,-392,1,0,26,17,240,1,53298,1
406,2,32223,30847,32309,39395,3236,-3183,-1077,-2855,-1481,1924,6768,219,443,-397,1,0,26,17,280,1,53298,1
407,2,32156,30858,32293,39396,3239,-3160,-1263,-3199,-2682,2074,6236,206,434,-390,1,0,26,17,320,1,53298,1
408,2,32090,30846,32282,39397,3243,-2939,-1248,-3473,-4195,1194,6017,203,423,-393,1,0,26,17,360,1,53298,1
409,2,32101,30855,32277,39398,3245,-2946,-1890,-3385,-3917,1756,5807,180,430,-394,1,0,26,17,400,1,53298,1
410,2,32181,30586,32283,39399,3247,-2926,-1879,-3504,-611,2041,5200,187,425,-403,1,0,26,17,440,1,53298,1
411,2,32493,30553,32306,39400,3250,-2856,-1235,-3413,1981,1846,4630,182,422,-396,1,0,26,17,480,1,53298,1
412,2,32371,30635,31952,39401,3252,-3562,289,-2499,-4,1000,4862,164,426,-392,1,0,26,17,520,1,53298,1
413,2,32382,30591,31993,39402,3254,-2802,-628,-3236,-4649,-364,5742,166,420,-408,1,0,26,17,560,1,53298,1
414,2,32552,30750,32295,39403,3255,-2928,-448,-3293,-2492,705,4570,150,422,-404,1,0,26,17,600,1,53298,1
415,2,32433,30504,32273,39404,3258,-2903,-525,-3283,-4637,498,4085,149,417,-399,1,0,26,17,640,1,53298,1
416,2,32251,30770,32276,39405,3259,-2750,-1293,-3694,-4001,521,3983,144,414,-398,1,0,26,17,680,1,53298,1
417,2,32127,30827,32276,39406,3261,-2545,-1293,-3576,-829,894,2917,144,420,-404,1,0,26,17,720,1,53298,1
418,2,32048,30818,32289,39407,3262,-2582,-1218,-3307,265,1653,1637,143,415,-409,1,0,26,17,760,1,53298,1
419,2,31985,30748,32296,39408,3264,-2542,-1129,-3166,448,1441,241,140,408,-404,1,0,26,17,800,1,53298,1
420,2,31940,30718,32291,39409,3266,-2535,-761,-3185,894,1000,-1534,147,421,-411,1,0,26,17,840,1,53298,1
421,2,31900,30721,32294,39410,3268,-2730,-782,-3296,1618,714,-2923,151,409,-409,1,0,26,17,880,1,53298,1
422,2,31880,30765,32288,39411,3271,-2758,-849,-3468,1717,350,-3978,150,420,-408,1,0,26,17,920,1,53298,1
423,2,31885,30765,32297,39412,3271,-2688,-894,-3327,1257,32,-4672,157,425,-411,1,0,26,17,960,1,53298,1
424,1,31908,30787,32301,39413,2704,-2681,-893,-3135,1682,-233,-4858,173,415,-411,1,0,26,18,0,0,53298,1
425,2,31912,30820,32301,39414,2707,-2853,-848,-3146,1255,-966,-5176,179,425,-409,1,0,26,18,40,0,53298,1
426,2,31924,30827,32292,39415,2709,-3032,-761,-3313,2500,-1391,-6603,182,422,-398,1,0,26,18,80,0,53298,1
427,2,31973,30831,32274,39416,2711,-2675,-1268,-2963,3085,-1944,-7775,208,424,-402,1,0,26,18,120,0,53298,1
428,2,32001,30810,32262,39417,2713,-2920,-1184,-3359,1079,-1165,-7501,215,429,-403,1,0,26,18,160,0,53298,1
429,2,32034,30824,32266,39418,2715,-2803,-1040,-3304,1768,-1570,-5771,226,424,-396,1,0,26,18,200,0,53298,1
430,2,32090,30793,32270,39419,2717,-2876,-940,-3101,2869,-2369,-4430,230,432,-388,1,0,26,18,240,0,53298,1
431,2,32124,30829,32274,39420,2719,-2979,-1016,-3140,2833,-2213,-3848,238,426,-390,1,0,26,18,280,0,53298,1
432,2,32150,30803,32271,39421,2721,-2908,-1185,-3425,602,-1854,-3722,254,418,-394,1,0,26,18,320,0,53298,1
433,2,32124,30780,32268,39422,2724,-3248,-923,-3365,825,-535,-2495,241,429,-383,1,0,26,18,360,0,53298,1
434,2,32106,30839,32273,39423,2726,-3016,-943,-3071,1277,-1868,-2116,247,423,-389,1,0,26,18,400,0,53298,1
435,2,32080,30831,32274,39424,2729,-2865,-1300,-3174,-506,-2513,-1748,254,428,-388,1,0,26,18,440,0,53298,1
436,2,32047,30021,32264,39425,2731,-2767,-1388,-3283,-1085,-2067,-1016,252,432,-384,1,0,26,18,480,0,53298,1
437,2,32043,30041,32245,39426,2734,-2780,-1228,-3486,-522,-1987,105,249,439,-377,1,0,26,18,520,0,53298,1
438,2,32047,30714,32290,39427,2737,-2785,-1227,-3590,525,-1210,790,249,435,-369,1,0,26,18,560,0,53298,1
439,2,32035,30693,32284,39428,2740,-2925,-1312,-3679,482,-133,1158,246,436,-374,1,0,26,18,600,0,53298,1
440,2,32014,30766,32284,39429,2743,-3026,-1227,-3490,-7,372,1883,239,425,-381,1,0,26,18,640,0,53298,1
441,2,31997,30612,32281,39430,2745,-2845,-1372,-3425,-812,766,2541,239,431,-379,1,0,26,18,680,0,53298,1
442,2,31991,30279,32278,39431,2748,-2731,-1173,-3589,-477,1520,3108,245,433,-387,1,0,26,18,720,0,53298,1
443,2,31995,30077,32265,39432,2750,-2873,-1129,-3597,-249,2514,3790,226,436,-386,1,0,26,18,760,0,53298,1
444,2,32038,30001,32272,39433,2752,-3071,-1051,-3236,-443,2715,5158,236,428,-398,1,0,26,18,800,0,53298,1
445,2,32055,29950,32275,39434,2754,-3108,-1179,-3557,-1914,3461,5163,222,428,-394,1,0,26,18,840,0,53298,1
446,2,32050,30056,32297,39435,2756,-3105,-1388,-2779,-951,3992,5896,216,418,-406,1,0,26,18,880,0,53298,1
447,2,32005,30349,32311,39436,2758,-2975,-435,-3695,792,3097,6406,203,421,-413,1,0,26,18,920,0,53298,1
448,2,31925,29934,32296,39437,2758,-3243,-268,-3145,-1086,2531,7442,188,416,-410,1,0,26,18,960,0,53298,1
449,1,31880,30803,32306,39438,2192,-2706,-1505,-3914,-4438,4424,6018,191,415,-419,1,0,26,19,0,1,53298,1
450,2,31849,30843,32316,39439,2194,-2885,-1286,-3257,-3132,2410,6454,175,415,-419,1,0,26,19,40,1,53298,1
451,2,31847,30356,32298,39440,2196,-3892,152,-1826,-2911,-1131,6653,161,413,-413,1,0,26,19,80,1,53298,1
452,2,31855,29935,32311,39441,2198,-2539,-2005,-3230,-3359,334,3691,152,412,-412,1,0,26,19,120,1,53298,1
453,2,31903,30470,32308,39442,2200,-2323,-970,-2984,-3710,230,3074,147,405,-411,1,0,26,19,160,1,53298,1
454,2,31947,30138,32306,39443,2202,-2423,-325,-3487,-4426,-1278,3581,146,410,-408,1,0,26,19,200,1,53298,1
455,2,31950,30625,32320,39444,2205,-2688,-771,-3633,-1428,-1267,3390,141,413,-419,1,0,26,19,240,1,53298,1
456,2,31882,30294,32305,39445,2208,-2597,-568,-3552,-392,-438,2079,136,414,-408,1,0,26,19,280,1,53298,1
457,2,31901,30819,32319,39446,2210,-2696,-776,-3194,-1729,-829,405,130,408,-404,1,0,26,19,320,1,53298,1
458,2,31906,30752,32328,39447,2212,-2530,-1041,-3318,-925,-711,-1091,137,411,-409,1,0,26,19,360,1,53298,1
459,2,31905,30796,32331,39448,2214,-2285,-506,-3633,72,-78,-1528,140,412,-414,1,0,26,19,400,1,53298,1
460,2,31886,30775,32335,39449,2216,-2479,-347,-3674,1298,168,-1969,139,409,-405,1,0,26,19,440,1,53298,1
461,2,31850,30071,32311,39450,2218,-2713,-370,-3677,2529,-59,-2581,138,406,-416,1,0,26,19,480,1,53298,1
462,2,31904,30718,32328,39451,2221,-2766,-545,-3477,1628,-335,-3368,151,415,-415,1,0,26,19,520,1,53298,1
463,2,31952,30809,32325,39452,2223,-2837,-1029,-3405,960,-241,-4784,152,412,-414,1,0,26,19,560,1,53298,1
464,2,32001,30768,32331,39453,2226,-2648,-1334,-3794,465,-289,-3836,157,415,-409,1,0,26,19,600,1,53298,1
465,2,32016,30751,32326,39454,2229,-2599,641,-3325,-324,578,-3506,160,426,-416,1,0,26,19,640,1,53298,1
466,2,32005,30780,32320,39455,2232,-2756,-1340,-3270,-921,430,-5566,170,408,-416,1,0,26,19,680,1,53298,1
467,2,32008,30815,32322,39456,2235,-2871,-1067,-3135,2186,-713,-7817,184,414,-412,1,0,26,19,720,1,53298,1
468,2,32046,30831,32312,39457,2237,-2703,-1145,-2799,4798,-1446,-8710,191,417,-407,1,0,26,19,760,1,53298,1
469,2,32170,30851,32328,39458,2240,-2698,-1541,-2876,5720,-2174,-8372,210,420,-408,1,0,26,19,800,1,53298,1
470,2,32465,30828,32325,39459,2244,-3063,-1218,-2778,4839,-3659,-7841,223,425,-401,1,0,26,19,840,1,53298,1
471,2,32603,30725,32323,39460,2247,-3038,-1048,-3127,3104,-1829,-6033,237,429,-403,1,0,26,19,880,1,53298,1
472,2,32167,30346,31969,39461,2251,-3099,313,-4100,3400,-1153,-3554,247,433,-403,1,0,26,19,920,1,53298,1
473,2,31993,30290,31965,39462,2251,-2948,-865,-3647,1546,-622,-3264,247,431,-397,1,0,26,19,960,1,53298,1
474,1,31942,30477,31955,39463,1680,-3177,-1544,-3283,-1855,-1646,-3891,250,424,-400,1,0,26,20,0,1,53298,1
475,2,31924,30530,31966,39464,1684,-2926,-1722,-3027,793,-3005,-3785,249,421,-397,1,0,26,20,40,1,53298,1
476,2,31893,31673,31923,39465,1689,-2667,-1613,-2913,2338,-2962,-3003,262,422,-394,1,0,26,20,80,1,53298,1
477,2,31873,33064,31915,39466,1693,-2592,-1220,-3276,2149,-2347,-2266,268,428,-380,1,0,26,20,120,1,53298,1
478,2,31893,29976,31950,39467,1697,-2531,-998,-3675,1239,-1058,-744,268,428,-382,1,0,26,20,160,1,53298,1
479,2,31889,29914,31961,39468,1701,-2735,-699,-3853,410,-45,925,270,430,-386,1,0,26,20,200,1,53298,1
480,2,31866,30108,31942,39469,1705,-2978,-1231,-3417,148,345,1780,264,420,-376,1,0,26,20,240,1,53298,1
481,2,31843,30112,31942,39470,1710,-2933,-1505,-3342,-566,568,1898,261,433,-389,1,0,26,20,280,1,53298,1
482,2,31825,29977,31948,39471,1715,-2755,-1568,-3481,-1047,1190,2564,257,427,-385,1,0,26,20,320,1,53298,1
483,2,31837,29944,31948,39472,1719,-2673,-1372,-3565,-109,2167,3351,248,430,-384,1,0,26,20,360,1,53298,1
484,2,31855,29898,31938,39473,1724,-2799,-1221,-3418,543,2927,4278,251,431,-397,1,0,26,20,400,1,53298,1
485,2,31883,29882,31928,39474,1728,-2904,-1012,-3686,-337,3818,5462,239,423,-397,1,0,26,20,440,1,53298,1
486,2,31911,29914,31934,39475,1733,-2849,-869,-4020,-1461,4369,6602,225,417,-399,1,0,26,20,480,1,53298,1
487,2,31773,29953,31938,39476,1737,-3875,-186,-3048,-5395,1644,8656,216,426,-400,1,0,26,20,520,1,53298,1
488,2,31621,29857,31924,39477,1740,-3216,-2067,-3657,-4783,3872,6799,205,427,-409,1,0,26,20,560,1,53298,1
489,2,31503,29863,31901,39478,1743,-2519,-1906,-3766,-4576,4333,5483,186,420,-414,1,0,26,20,600,1,53298,1
490,2,31455,29832,31911,39479,1746,-3018,-686,-2946,-4849,1630,6919,172,414,-404,1,0,26,20,640,1,53298,1
491,2,31463,30181,31916,39480,1750,-2521,-1365,-2621,-3296,1190,6887,171,407,-411,1,0,26,20,680,1,53298,1
492,2,31474,30321,31916,39481,1754,-2603,-716,-2657,-5426,14,6309,153,411,-415,1,0,26,20,720,1,53298,1
493,2,31505,30490,31918,39482,1757,-2571,-1004,-3091,-6885,-1593,5177,146,408,-410,1,0,26,20,760,1,53298,1
494,2,31548,30335,31918,39483,1761,-2878,-429,-3077,-6590,-2336,4381,146,422,-410,1,0,26,20,800,1,53298,1
495,2,31538,30619,31918,39484,1764,-2406,-629,-3825,-3562,-1715,3211,131,405,-393,1,0,26,20,840,1,53298,1
496,2,31539,30550,31921,39485,1768,-2906,52,-3492,-1159,-1904,3544,132,416,-392,1,0,26,20,880,1,53298,1
497,2,31523,29894,31908,39486,1772,-2887,254,-3181,-1643,-1150,3076,127,419,-401,1,0,26,20,920,1,53298,1
498,2,31507,29926,31899,39487,1772,-2595,-479,-3567,-2022,-249,1640,121,409,-391,1,0,26,20,960,1,53298,1
499,1,31534,30181,31924,39488,1168,-2601,-412,-3504,1059,-439,742,111,411,-387,1,0,26,21,0,0,53298,1
500,2,31534,30073,31925,39489,1172,-2400,-710,-3662,2556,254,-753,115,413,-393,1,0,26,21,40,0,53298,1
501,2,31530,30000,31922,39490,1175,-2380,-400,-3611,1377,605,-1611,122,412,-398,1,0,26,21,80,0,53298,1
502,2,31543,30526,31932,39491,1178,-2590,-400,-3430,1528,370,-2393,135,419,-405,1,0,26,21,120,0,53298,1
503,2,31557,30419,31924,39492,1181,-2745,-537,-3063,2043,17,-3877,127,409,-401,1,0,26,21,160,0,53298,1
504,2,31619,29861,31903,39493,1185,-2731,-1049,-2874,1674,-420,-5914,139,421,-397,1,0,26,21,200,0,53298,1
505,2,31794,29893,31892,39494,1189,-2652,-1014,-2776,1888,-1400,-6981,150,412,-400,1,0,26,21,240,0,53298,1
506,2,31824,29929,31885,39495,1192,-2789,-48,-3093,2855,-2246,-7008,157,417,-391,1,0,26,21,280,0,53298,1
507,2,31793,30379,31855,39496,1194,-2941,-1013,-3320,6266,-2153,-9238,173,421,-391,1,0,26,21,320,0,53298,1
508,2,31838,30804,31832,39497,1198,-3211,-1557,-4245,4898,-1960,-11260,181,435,-391,1,0,26,21,360,0,53298,1
509,2,31944,29921,31880,39498,1201,-2997,-1726,-4440,8073,502,-11451,213,425,-399,1,0,26,21,400,0,53298,1
510,2,32100,29927,31890,39499,1204,-3355,319,-3906,7510,632,-7609,233,433,-397,1,0,26,21,440,0,53298,1
511,2,32221,29905,31889,39500,1207,-2864,-923,-3439,7576,1989,-5521,244,422,-396,1,0,26,21,480,0,53298,1
512,2,32321,30188,31906,39501,1210,-3298,-997,-2956,6591,1132,-5115,256,420,-396,1,0,26,21,520,0,53298,1
513,2,32340,30282,31894,39502,1214,-3199,-808,-2602,2768,92,-4952,260,424,-396,1,0,26,21,560,0,53298,1
514,2,32312,29951,31913,39503,1217,-3000,-874,-2779,-212,-1184,-4051,269,413,-403,1,0,26,21,600,0,53298,1
515,2,32179,30139,31896,39504,1220,-2826,-894,-3168,-676,-2509,-2114,267,421,-397,1,0,26,21,640,0,53298,1
516,2,32080,29961,31907,39505,1223,-2533,-767,-3265,-1424,-2116,-203,266,422,-394,1,0,26,21,680,0,53298,1
517,2,32009,30178,31895,39506,1226,-2429,-1096,-3374,-1248,-1342,1013,262,420,-394,1,0,26,21,720,0,53298,1
518,2,32001,31369,31950,39507,1230,-2706,-1372,-3496,-1209,-1188,1724,260,426,-388,1,0,26,21,760,0,53298,1
519,2,32064,30062,32060,39508,1234,-2825,-1458,-3430,-1588,-922,2414,263,425,-389,1,0,26,21,800,0,53298,1
520,2,32047,29893,32091,39509,1238,-2779,-1287,-3848,-2262,-476,3421,256,432,-392,1,0,26,21,840,0,53298,1
521,2,31980,30001,32077,39510,1242,-2643,-1231,-3868,-1969,958,4257,240,426,-382,1,0,26,21,880,0,53298,1
522,2,31974,29874,32064,39511,1245,-2665,-1467,-3722,-507,2468,4768,245,435,-401,1,0,26,21,920,0,53298,1
523,2,31970,29880,32050,39512,1245,-2905,-1362,-3106,559,2572,5653,228,414,-388,1,0,26,21,960,0,53298,1
524,1,32061,29946,32052,39513,658,-2924,-1107,-3554,-1444,3209,6377,231,425,-393,1,0,26,22,0,1,53298,1
525,2,32148,30102,32078,39514,660,-3322,-421,-2796,-2089,1889,6433,211,431,-399,1,0,26,22,40,1,53298,1
526,2,32023,30041,32085,39515,662,-3423,-1006,-3207,-4145,-171,6670,207,423,-403,1,0,26,22,80,1,53298,1
527,2,32104,30049,32257,39516,664,-2914,-577,-3634,-4247,1245,6272,190,426,-404,1,0,26,22,120,1,53298,1
528,2,32066,30303,32248,39517,667,-2609,-950,-3761,-4844,2041,7081,180,422,-408,1,0,26,22,160,1,53298,1
529,2,32112,30845,32261,39518,669,-3138,-1413,-3535,-4774,1355,8017,166,418,-404,1,0,26,22,200,1,53298,1
530,2,32225,30792,32263,39519,671,-3184,-1420,-3375,-1612,820,7017,154,420,-412,1,0,26,22,240,1,53298,1
531,2,32446,30862,32304,39520,672,-2802,80,-2318,-442,218,6318,153,415,-409,1,0,26,22,280,1,53298,1
532,2,32650,30845,32306,39521,674,-2766,-649,-2534,-1575,-525,5551,135,409,-409,1,0,26,22,320,1,53298,1
533,2,32966,30870,32301,39522,676,-2797,-1049,-3402,-2905,-762,3558,139,415,-407,1,0,26,22,360,1,53298,1
534,2,33511,30840,32297,39523,678,-2492,-797,-3487,-2961,-947,1728,130,408,-402,1,0,26,22,400,1,53298,1
535,2,33670,30869,32297,39524,681,-2496,-1209,-3650,-569,-1290,1171,130,418,-394,1,0,26,22,440,1,53298,1
536,2,33561,30853,32304,39525,683,-2508,-1031,-3606,1202,-1032,31,126,418,-402,1,0,26,22,480,1,53298,1
537,2,33332,30821,32304,39526,684,-2335,-685,-3599,539,-60,-1793,129,407,-409,1,0,26,22,520,1,53298,1
538,2,33035,30699,32264,39527,686,-2696,-582,-3562,649,499,-2911,136,414,-408,1,0,26,22,560,1,53298,1
539,2,32793,30795,32315,39528,688,-2613,-592,-3569,1721,646,-3301,144,414,-402,1,0,26,22,600,1,53298,1
540,2,32402,30856,32313,39529,690,-2886,-746,-3319,3327,741,-4100,144,422,-394,1,0,26,22,640,1,53298,1
541,2,32251,30865,32317,39530,693,-3049,-918,-3112,3663,319,-5220,160,412,-404,1,0,26,22,680,1,53298,1
542,2,32026,30739,32053,39531,695,-2567,242,-2828,2409,-891,-4786,162,420,-408,1,0,26,22,720,1,53298,1
543,2,31885,30712,31993,39532,697,-3040,-416,-3475,-242,-530,-4819,167,419,-405,1,0,26,22,760,1,53298,1
544,2,31807,30710,31963,39533,699,-2569,-515,-3190,3116,-460,-5435,187,421,-407,1,0,26,22,800,1,53298,1
545,2,31803,30684,31962,39534,701,-3185,-1316,-3578,293,-1239,-4977,192,428,-404,1,0,26,22,840,1,53298,1
546,2,31852,30725,31995,39535,703,-2929,-1140,-3498,473,-927,-4830,186,422,-396,1,0,26,22,880,1,53298,1
547,2,31904,30735,32009,39536,705,-2891,-2055,-3176,3059,204,-5841,195,431,-401,1,0,26,22,920,1,53298,1
548,2,31980,30693,32024,39537,705,-2664,-1672,-2995,5692,656,-7788,219,431,-403,1,0,26,22,960,1,53298,1
549,1,32049,30731,32009,39538,147,-2619,-1510,-3310,5481,444,-7898,231,421,-405,1,0,26,23,0,0,53298,1
550,1,32046,30633,32016,39539,149,-2910,-877,-3094,7468,239,-5891,238,428,-406,1,0,26,23,40,0,53298,1
551,1,32002,30738,31995,39540,152,-2962,-1387,-2640,4470,-1721,-5803,257,419,-399,1,0,26,23,80,0,53298,1
552,1,31977,30695,31989,39541,154,-2923,-1740,-2747,10,-3468,-5657,264,422,-396,1,0,26,23,120,0,53298,1
553,1,31970,30645,31998,39542,157,-2953,-1515,-2821,-1490,-4824,-5771,268,420,-394,1,0,26,23,160,0,53298,1
554,1,31953,30746,31999,39543,159,-2831,-1320,-3458,1079,-4890,-4539,275,435,-379,1,0,26,23,200,0,53298,1
555,1,31920,30392,31994,39544,161,-2831,-908,-3791,3063,-3674,-2497,276,424,-370,1,0,26,23,240,0,53298,1
556,1,31941,30057,32019,39545,163,-2980,-984,-4035,1882,-1932,-572,277,439,-371,1,0,26,23,280,0,53298,1
557,1,31957,30195,32020,39546,166,-3190,-818,-3518,414,-517,1361,284,428,-378,1,0,26,23,320,0,53298,1
558,1,31967,30303,32059,39547,169,-3036,-1338,-3382,-1618,-228,3003,269,437,-377,1,0,26,23,360,0,53298,1
559,1,31935,30157,32037,39548,172,-2840,-1642,-3452,-3075,511,3301,269,423,-381,1,0,26,23,400,0,53298,1
560,1,31925,30414,32046,39549,176,-2630,-1506,-3791,-2739,1536,3376,267,429,-375,1,0,26,23,440,0,53298,1
561,1,31916,30494,32043,39550,179,-2661,-1428,-3749,-2053,2628,4176,251,429,-377,1,0,26,23,480,0,53298,1
562,1,31898,30486,32031,39551,181,-2823,-1076,-3402,-368,3044,5037,248,428,-388,1,0,26,23,520,0,53298,1
563,1,31889,30512,32015,39552,184,-2997,-1223,-3879,-2498,3912,6820,240,420,-400,1,0,26,23,560,0,53298,1
564,1,31969,30535,32002,39553,187,-3378,-1532,-2983,-2817,4879,7614,231,425,-399,1,0,26,23,600,0,53298,1
565,1,32011,30538,31997,39554,190,-3414,-524,-2773,-5234,1923,9989,201,433,-393,1,0,26,23,640,0,53298,1
566,1,31902,30022,31965,39555,192,-2864,-1296,-3515,-5419,1552,7758,198,426,-400,1,0,26,23,680,0,53298,1
567,1,31852,30297,31956,39556,193,-2849,-1330,-3740,-4658,3780,5719,179,419,-405,1,0,26,23,720,0,53298,1
568,1,31901,30189,31953,39557,195,-3080,-1057,-2918,-2460,4068,6286,172,416,-404,1,0,26,23,760,0,53298,1
569,1,32013,30484,31949,39558,196,-2848,-227,-2169,581,-195,8796,165,419,-413,1,0,26,23,800,0,53298,1
570,1,32100,30560,31955,39559,197,-2370,-1515,-2211,38,-802,6667,165,417,-415,1,0,26,23,840,0,53298,1
571,1,32641,30454,31987,39560,198,-2663,-1391,-3053,-5216,-948,3944,154,412,-412,1,0,26,23,880,0,53298,1
572,1,34365,30587,31979,39561,199,-2655,-1000,-3573,-4100,-357,1363,140,414,-398,1,0,26,23,920,0,53298,1
573,1,35250,30751,32310,39562,198,-2256,-1098,-4121,-18,-998,599,147,413,-401,1,0,26,23,960,0,53298,1
574,1,34962,30226,32281,39563,0,-2445,-1019,-3887,-1197,-1066,230,138,414,-410,1,0,26,24,0,1,53298,1
575,2,34284,30489,32298,39564,39637,-2766,-1166,-3732,-511,-686,-479,144,406,-404,1,0,26,24,40,1,53298,1
576,2,33553,30410,32295,39565,39637,-2635,-1053,-3627,2427,-212,-1989,144,408,-402,1,0,26,24,80,1,53298,1
577,2,32671,30859,32301,39566,39638,-2874,-1007,-3546,3721,230,-3013,151,419,-405,1,0,26,24,120,1,53298,1
578,2,32033,30614,31954,39567,39640,-2873,-570,-3199,4509,429,-4012,161,419,-399,1,0,26,24,160,1,53298,1
579,2,31884,30697,31924,39568,39642,-2873,-325,-3172,2058,-8,-4276,170,416,-404,1,0,26,24,200,1,53298,1
580,2,32169,30829,32314,39569,39645,-2810,-314,-3395,-990,560,-5295,179,419,-413,1,0,26,24,240,1,53298,1
581,2,32069,30877,32297,39570,39646,-2951,-746,-3110,809,106,-5134,185,419,-405,1,0,26,24,280,1,53298,1
582,2,32013,30822,32286,39571,39648,-3074,-1292,-3050,1970,-816,-5120,187,421,-401,1,0,26,24,320,1,53298,1
583,2,32004,30491,32273,39572,39650,-2837,-1904,-3189,1997,-1321,-6164,199,417,-413,1,0,26,24,360,1,53298,1
584,2,32043,30743,32284,39573,39652,-2885,-1413,-2953,2646,-1238,-7158,203,427,-411,1,0,26,24,400,1,53298,1
585,2,32157,30790,32273,39574,39655,-2713,-1687,-3122,1244,-1550,-8022,214,426,-406,1,0,26,24,440,1,53298,1
586,2,32230,30713,32272,39575,39657,-3070,-1036,-3291,2371,-1265,-7903,236,422,-400,1,0,26,24,480,1,53298,1
587,2,32298,30794,32293,39576,39659,-2918,-959,-3319,3836,-1881,-6136,237,429,-393,1,0,26,24,520,1,53298,1
588,2,32308,30110,32279,39577,39662,-2991,-1292,-3015,2209,-1885,-5357,251,417,-393,1,0,26,24,560,1,53298,1
589,2,32312,30118,32299,39578,39666,-3132,-1575,-2998,358,-2646,-4902,259,425,-399,1,0,26,24,600,1,53298,1
590,2,32283,30019,32306,39579,39670,-3000,-1227,-3059,1477,-3276,-4777,268,434,-392,1,0,26,24,640,1,53298,1
591,2,32287,30708,32322,39580,39673,-2895,-1012,-3465,2547,-3363,-3521,273,429,-373,1,0,26,24,680,1,53298,1
592,2,32282,30626,32325,39581,39677,-2789,-814,-3619,2376,-2625,-2120,277,427,-373,1,0,26,24,720,1,53298,1
593,2,32250,30042,32317,39582,39680,-2851,-866,-3813,732,-1518,-330,275,431,-377,1,0,26,24,760,1,53298,1
594,2,32230,29964,32315,39583,39684,-2989,-962,-3537,-56,-331,1163,260,424,-366,1,0,26,24,800,1,53298,1
595,2,32239,30507,32331,39584,39687,-2954,-1225,-3434,-1017,217,2970,268,430,-378,1,0,26,24,840,1,53298,1
596,2,32205,30001,32320,39585,39691,-2678,-1700,-3670,-2059,968,3630,260,424,-374,1,0,26,24,880,1,53298,1
597,2,32180,29946,32314,39586,39694,-2696,-1431,-3790,-1424,2304,3870,258,438,-374,1,0,26,24,920,1,53298,1
598,2,32162,29971,32308,39587,39696,-2935,-1118,-3492,-95,3347,4769,254,428,-378,1,0,26,24,960,1,53298,1
599,1,32205,30031,32313,39588,0,-3155,-998,-3987,242,4437,6201,249,431,-393,1,0,26,25,0,0,53298,1
600,2,32238,30145,32291,39589,39129,-3349,-1007,-3660,-408,4979,6931,233,429,-401,1,0,26,25,40,0,53298,1
601,2,32195,30185,32312,39590,39131,-4082,226,-2501,-1716,2560,8523,212,426,-388,1,0,26,25,80,0,53298,1
602,2,32040,30855,32301,39591,39133,-3159,-1380,-3663,-4108,2723,8584,210,424,-408,1,0,26,25,120,0,53298,1
603,2,31905,30866,32313,39592,39134,-2864,-967,-2467,-3371,3189,8523,187,421,-405,1,0,26,25,160,0,53298,1
604,2,31846,30871,32312,39593,39135,-2948,-1763,-2729,-6914,3462,10117,173,411,-421,1,0,26,25,200,0,53298,1
605,2,31851,30871,32304,39594,39137,-2894,-1596,-3215,-4264,1861,8617,164,418,-414,1,0,26,25,240,0,53298,1
606,2,31900,30812,32307,39595,39139,-2423,-1628,-3033,-2262,244,7238,159,415,-413,1,0,26,25,280,0,53298,1
607,2,32208,30867,32303,39596,39141,-2832,-1070,-3093,-4279,-230,5432,143,413,-411,1,0,26,25,320,0,53298,1
608,2,32580,30157,32304,39597,39143,-2820,-835,-3197,-2801,-902,4457,139,417,-411,1,0,26,25,360,0,53298,1
609,2,32879,30869,32320,39598,39144,-2524,-492,-3127,-2023,-2126,2771,137,407,-405,1,0,26,25,400,0,53298,1
610,2,32833,30675,32315,39599,39146,-2489,-754,-3131,-3292,-1905,851,126,404,-402,1,0,26,25,440,0,53298,1
611,2,32655,30827,32306,39600,39148,-2545,-933,-3342,-2383,-2021,-504,131,407,-395,1,0,26,25,480,0,53298,1
612,2,32427,30819,32306,39601,39150,-2589,-701,-3639,296,-2003,-1679,131,409,-399,1,0,26,25,520,0,53298,1
613,2,32300,30851,32301,39602,39152,-2750,-716,-3747,1379,-1625,-2707,126,420,-394,1,0,26,25,560,0,53298,1
614,2,32221,30852,32310,39603,39155,-2861,-628,-3708,780,-774,-3858,142,418,-406,1,0,26,25,600,0,53298,1
615,2,32098,30853,32314,39604,39157,-3011,-413,-3540,2139,-6,-3737,151,419,-401,1,0,26,25,640,0,53298,1
616,2,31995,30855,32322,39605,39160,-2979,-990,-3426,4680,906,-4626,155,415,-405,1,0,26,25,680,0,53298,1
617,2,31932,30865,32323,39606,39162,-2912,-1148,-3096,5692,1583,-6607,165,423,-395,1,0,26,25,720,0,53298,1
618,2,31905,30867,32320,39607,39164,-3015,-511,-2615,4106,754,-7330,178,424,-394,1,0,26,25,760,0,53298,1
619,2,31908,30872,32330,39608,39166,-3109,-2324,-3133,2147,-510,-7997,187,417,-393,1,0,26,25,800,0,53298,1
620,2,31901,30873,32329,39609,39169,-3059,-1420,-2694,5763,-1573,-10501,205,423,-395,1,0,26,25,840,0,53298,1
621,2,31928,30863,32322,39610,39171,-3033,-1249,-2738,4905,-3508,-10545,217,431,-395,1,0,26,25,880,0,53298,1
622,2,31982,30852,32310,39611,39173,-3019,-1952,-3139,914,-4199,-10434,236,428,-392,1,0,26,25,920,0,53298,1
623,2,32081,30862,32310,39612,39175,-3371,-1694,-2980,1048,-4190,-10575,243,425,-377,1,0,26,25,960,0,53298,1
624,1,32158,30522,32311,39613,0,-3450,-581,-3268,2872,-3556,-8798,267,427,-375,1,0,26,26,0,0,53298,1
625,2,32215,30600,32329,39614,38618,-3105,-1144,-3362,3091,-3130,-5646,273,429,-369,1,0,26,26,40,0,53298,1
626,2,32242,30745,32339,39615,38621,-3183,-628,-3403,4730,-1821,-4558,284,420,-370,1,0,26,26,80,0,53298,1
627,2,32210,30440,32349,39616,38624,-3117,-562,-3669,1761,-1771,-2563,283,433,-361,1,0,26,26,120,0,53298,1
628,2,32171,30583,32351,39617,38628,-2841,-692,-3600,-882,-1398,-128,285,429,-369,1,0,26,26,160,0,53298,1
629,2,32143,30707,32359,39618,38632,-2848,-1134,-3512,-1236,-276,1537,286,434,-362,1,0,26,26,200,0,53298,1
630,2,32114,30165,32317,39619,38636,-2976,-1210,-3239,-980,746,2669,285,431,-375,1,0,26,26,240,0,53298,1
631,2,32074,30246,32335,39620,38640,-2797,-1765,-3333,-2331,1212,3909,283,433,-379,1,0,26,26,280,0,53298,1
632,2,32032,30495,32322,39621,38642,-2825,-1823,-3456,-1895,2046,4747,271,435,-369,1,0,26,26,320,0,53298,1
633,2,32012,30493,32320,39622,38644,-2897,-1879,-3496,-615,2957,5374,266,432,-376,1,0,26,26,360,0,53298,1
634,2,32013,30485,32310,39623,38647,-3094,-1715,-3479,191,3609,5376,255,437,-385,1,0,26,26,400,0,53298,1
635,2,32030,30333,32303,39624,38648,-3170,-1509,-3176,-425,3540,5676,237,431,-379,1,0,26,26,440,0,53298,1
636,2,32071,30628,32311,39625,38650,-3279,-1346,-3283,-872,3636,5957,231,433,-395,1,0,26,26,480,0,53298,1
637,2,32111,30550,32330,39626,38651,-3037,-1059,-3337,-865,3767,7158,231,427,-389,1,0,26,26,520,0,53298,1
638,2,32077,30540,32347,39627,38652,-3494,208,-2354,-1137,1930,8065,219,427,-393,1,0,26,26,560,0,53298,1
639,2,31993,30654,32327,39628,38654,-2825,-925,-3588,-2641,2530,7563,199,421,-397,1,0,26,26,600,0,53298,1
640,2,31970,30375,32322,39629,38656,-3225,-807,-3154,-5946,2865,7346,191,419,-407,1,0,26,26,640,0,53298,1
641,2,32010,30827,32324,39630,38658,-3425,-1177,-2822,-7909,1028,8793,170,418,-402,1,0,26,26,680,0,53298,1
642,2,32055,30865,32317,39631,38660,-3426,-761,-3081,-4874,-1083,8838,157,415,-409,1,0,26,26,720,0,53298,1
643,2,31995,30868,32313,39632,38663,-2715,-1733,-3322,-3434,-1266,7808,144,410,-402,1,0,26,26,760,0,53298,1
644,2,31950,30824,32301,39633,38665,-2585,-1631,-3201,-2823,342,4920,137,423,-399,1,0,26,26,800,0,53298,1
645,2,31957,30740,32296,39634,38667,-2367,-1148,-3699,-1533,135,2951,135,415,-403,1,0,26,26,840,0,53298,1
646,2,31953,30659,32292,39635,38669,-2338,-820,-3687,1156,-199,1783,131,421,-399,1,0,26,26,880,0,53298,1
647,2,31929,30821,32294,39636,38672,-2571,-938,-3422,-712,-75,1016,127,411,-401,1,0,26,26,920,0,53298,1
648,2,31914,30840,32296,39637,38673,-2808,-645,-3096,-1752,445,-271,132,416,-396,1,0,26,26,960,0,53298,1
649,1,31893,30852,32302,39638,0,-2768,-848,-3088,-1246,49,-1463,131,415,-399,1,0,26,27,0,1,53298,1
650,2,31857,30845,32291,39639,38108,-2735,-650,-3110,379,152,-2687,135,409,-399,1,0,26,27,40,1,53298,1
651,2,31824,30790,32310,39640,38109,-3123,-370,-3201,2386,420,-3411,136,416,-396,1,0,26,27,80,1,53298,1
652,2,31804,30726,32323,39641,38111,-2906,-748,-3492,4771,14,-4587,148,416,-404,1,0,26,27,120,1,53298,1
653,2,31800,30852,32322,39642,38113,-2691,-1030,-3494,4761,-268,-6035,156,422,-402,1,0,26,27,160,1,53298,1
654,2,31831,30825,32322,39643,38115,-2712,-1016,-3367,2660,-42,-7127,178,412,-402,1,0,26,27,200,1,53298,1
655,2,31895,30813,32321,39644,38117,-2592,-565,-3397,1663,-299,-6621,182,416,-414,1,0,26,27,240,1,53298,1
656,2,31911,30823,32327,39645,38119,-2942,-376,-3472,662,21,-4398,181,425,-401,1,0,26,27,280,1,53298,1
657,2,31919,30851,32335,39646,38121,-3173,-1169,-2903,2848,45,-4324,191,421,-397,1,0,26,27,320,1,53298,1
658,2,31925,30869,32338,39647,38124,-3447,-1775,-2595,3189,-822,-5317,197,427,-405,1,0,26,27,360,1,53298,1
659,2,31962,30853,32339,39648,38127,-3119,-1843,-2161,3473,-3124,-7686,218,418,-402,1,0,26,27,400,1,53298,1
660,2,32065,30735,32339,39649,38130,-3040,-2049,-2698,-86,-4757,-9251,224,432,-392,1,0,26,27,440,1,53298,1
661,2,32236,30855,32343,39650,38132,-2919,-1444,-3698,226,-4705,-9463,243,429,-389,1,0,26,27,480,1,53298,1
662,2,32297,30139,32364,39651,38135,-2646,325,-3916,4091,-3972,-6700,254,430,-388,1,0,26,27,520,1,53298,1
663,2,32225,30552,32333,39652,38138,-2663,-492,-4105,1683,-2492,-3930,255,429,-377,1,0,26,27,560,1,53298,1
664,2,32168,30666,32322,39653,38142,-2825,-1247,-3121,-1315,-1161,-2396,263,425,-377,1,0,26,27,600,1,53298,1
665,2,32129,30813,32327,39654,38145,-3467,-1368,-2946,-2630,-1069,-1666,255,437,-373,1,0,26,27,640,1,53298,1
666,2,32113,30750,32332,39655,38149,-3240,-1482,-3025,-472,-1427,-1016,268,436,-380,1,0,26,27,680,1,53298,1
667,2,32100,30636,32334,39656,38153,-3083,-1439,-3275,869,-1114,-60,266,428,-376,1,0,26,27,720,1,53298,1
668,2,32087,30545,32335,39657,38157,-2955,-1228,-3418,783,-163,330,267,433,-375,1,0,26,27,760,1,53298,1
669,2,32096,30429,32347,39658,38160,-2888,-1095,-3622,212,876,1245,264,438,-370,1,0,26,27,800,1,53298,1
670,2,32045,31195,32278,39659,38164,-2902,-1002,-3462,189,1503,2291,258,434,-370,1,0,26,27,840,1,53298,1
671,2,32054,29958,32309,39660,38167,-2629,-921,-3608,109,2035,3532,257,431,-383,1,0,26,27,880,1,53298,1
672,2,32067,29990,32315,39661,38170,-2708,-740,-3957,-943,3444,5226,248,432,-382,1,0,26,27,920,1,53298,1
673,2,32086,29953,32300,39662,38173,-3067,-1150,-3418,-1659,5032,6277,232,436,-386,1,0,26,27,960,1,53298,1
674,1,32130,30813,32310,39663,0,-3498,-1575,-2210,32,4898,6947,228,426,-394,1,0,26,28,0,1,53298,1
675,2,32159,30807,32320,39664,37598,-3348,-513,-2724,1342,3464,8137,212,438,-386,1,0,26,28,40,1,53298,1
676,2,32202,30791,32324,39665,37600,-3479,-1253,-3014,-2682,1798,8158,203,433,-403,1,0,26,28,80,1,53298,1
677,2,32280,30583,32325,39666,37602,-3073,-1101,-3614,-5591,888,6971,195,429,-401,1,0,26,28,120,1,53298,1
678,2,32427,30569,32320,39667,37604,-2940,-763,-3824,-5783,941,6320,182,424,-412,1,0,26,28,160,1,53298,1
679,2,32687,30627,32313,39668,37608,-2845,-1156,-4121,-3964,1717,7023,169,415,-403,1,0,26,28,200,1,53298,1
680,2,32759,30460,32310,39669,37611,-2889,-1209,-3519,-384,2752,6932,160,426,-406,1,0,26,28,240,1,53298,1
681,2,32684,30678,32301,39670,37615,-2841,-659,-3050,-680,2265,6510,151,411,-405,1,0,26,28,280,1,53298,1
682,2,32422,30838,32304,39671,37618,-2482,-984,-3137,-3598,1344,5853,138,412,-408,1,0,26,28,320,1,53298,1
683,2,32315,30624,32288,39672,37621,-2255,-1254,-3403,-4862,1475,3856,127,401,-405,1,0,26,28,360,1,53298,1
684,2,32216,30583,32279,39673,37624,-2363,-1041,-3586,-2894,1870,2189,123,395,-409,1,0,26,28,400,1,53298,1
685,2,32072,30834,32282,39674,37627,-2422,-567,-3697,-297,1689,1336,130,400,-416,1,0,26,28,440,1,53298,1
686,2,31956,30708,32273,39675,37630,-2456,-355,-3275,657,1607,818,135,407,-419,1,0,26,28,480,1,53298,1
687,2,31868,30677,32275,39676,37633,-2584,-258,-2965,-596,1163,238,127,403,-429,1,0,26,28,520,1,53298,1
688,2,31830,30740,32273,39677,37636,-2433,-492,-2816,-884,306,-570,130,400,-416,1,0,26,28,560,1,53298,1
689,2,31824,30799,32278,39678,37639,-2498,-372,-3023,-59,-445,-1736,123,397,-415,1,0,26,28,600,1,53298,1
690,2,31796,30830,32282,39679,37643,-2657,-528,-3300,2119,-1061,-2609,136,396,-418,1,0,26,28,640,1,53298,1
691,2,31780,30819,32280,39680,37646,-2558,-664,-3496,3205,-1913,-3796,140,408,-420,1,0,26,28,680,1,53298,1
692,2,31790,30785,32266,39681,37650,-2422,-1091,-3687,2615,-2052,-5323,152,412,-416,1,0,26,28,720,1,53298,1
693,2,31843,30722,32262,39682,37653,-2400,-1080,-3400,459,-1562,-6250,167,417,-415,1,0,26,28,760,1,53298,1
694,2,31918,30772,32257,39683,37656,-2597,-1039,-3557,467,-1429,-6569,172,412,-402,1,0,26,28,800,1,53298,1
695,2,32005,30815,32242,39684,37660,-2578,-815,-3306,3167,-1327,-6725,180,416,-416,1,0,26,28,840,1,53298,1
696,2,32125,30640,32240,39685,37662,-3050,-678,-4067,3120,176,-6039,194,418,-412,1,0,26,28,880,1,53298,1
697,2,32170,30722,32242,39686,37666,-3089,-1013,-3616,5638,632,-5768,190,426,-410,1,0,26,28,920,1,53298,1
698,2,32249,30451,32241,39687,37669,-3019,-1795,-3362,3081,68,-6883,209,413,-411,1,0,26,28,960,1,53298,1
699,1,32315,30765,32241,39688,0,-2867,-1611,-3252,3623,643,-8450,224,412,-414,1,0,26,29,0,0,53298,1
700,2,32369,30623,32253,39689,37089,-2748,-155,-3090,7245,-448,-6393,238,416,-418,1,0,26,29,40,0,53298,1
701,2,32395,30278,32265,39690,37093,-2710,-861,-2850,4435,-1568,-4945,239,423,-409,1,0,26,29,80,0,53298,1
702,2,32389,30548,32268,39691,37096,-2894,-1182,-2882,-194,-2209,-4313,244,418,-412,1,0,26,29,120,0,53298,1
703,2,32400,30289,32270,39692,37099,-2836,-1598,-2697,-2917,-3681,-4110,259,425,-401,1,0,26,29,160,0,53298,1
704,2,32199,30649,32112,39693,37102,-2815,-1461,-3349,-1202,-4442,-3542,263,419,-401,1,0,26,29,200,0,53298,1
705,2,31979,30065,31852,39694,37105,-2623,-1236,-3693,1627,-4386,-2569,259,419,-391,1,0,26,29,240,0,53298,1
706,2,31927,30664,31861,39695,37109,-2792,-1089,-3733,1500,-3298,-1352,264,424,-384,1,0,26,29,280,0,53298,1
707,2,31892,30595,31832,39696,37113,-2873,-1389,-3578,489,-2396,-585,267,419,-381,1,0,26,29,320,0,53298,1
708,2,31877,29883,31830,39697,37117,-2973,-1805,-3173,337,-1976,-109,264,432,-384,1,0,26,29,360,0,53298,1
709,2,31855,30170,31842,39698,37121,-3059,-1741,-3120,324,-2403,-453,264,428,-382,1,0,26,29,400,0,53298,1
710,2,31818,30023,31844,39699,37125,-2916,-1572,-3391,-772,-2759,-397,265,427,-377,1,0,26,29,440,0,53298,1
711,2,31790,30198,31849,39700,37128,-2735,-1364,-3857,-1241,-1989,106,265,427,-377,1,0,26,29,480,0,53298,1
712,2,31760,30319,31855,39701,37131,-2770,-1126,-4081,-1363,-393,1446,261,429,-375,1,0,26,29,520,0,53298,1
713,2,31752,29928,31840,39702,37134,-2727,-1484,-3966,-1321,1628,2711,258,432,-374,1,0,26,29,560,0,53298,1
714,2,31750,30031,31852,39703,37138,-2889,-1195,-3498,6,3825,3551,249,417,-371,1,0,26,29,600,0,53298,1
715,2,31755,30064,31847,39704,37143,-3125,-973,-3358,1119,4366,4553,245,433,-395,1,0,26,29,640,0,53298,1
716,2,31759,30035,31847,39705,37146,-2875,-818,-3502,877,4978,5237,233,421,-389,1,0,26,29,680,0,53298,1
717,2,31770,29895,31834,39706,37148,-3048,-677,-3497,-471,5610,6364,227,429,-393,1,0,26,29,720,0,53298,1
718,2,31785,29931,31825,39707,37151,-3146,-676,-3496,-1641,5711,6555,227,425,-403,1,0,26,29,760,0,53298,1
719,2,31798,30120,31817,39708,37153,-4234,-237,-1180,-2964,3778,6950,219,419,-419,1,0,26,29,800,0,53298,1
720,2,31741,30259,31813,39709,37156,-2852,-1356,-2758,-5980,-1597,10175,192,412,-406,1,0,26,29,840,0,53298,1
721,2,31719,30462,31800,39710,37158,-2701,-1645,-3572,-6501,-60,7100,181,419,-403,1,0,26,29,880,0,53298,1
722,2,31735,30503,31809,39711,37159,-2993,-641,-3504,-5500,-835,6996,167,429,-401,1,0,26,29,920,0,53298,1
723,2,31855,29934,31820,39712,37161,-3284,-604,-3447,-2960,-1634,8281,155,415,-399,1,0,26,29,960,0,53298,1
724,1,32045,30455,31838,39713,0,-3169,287,-3473,-3301,-2816,9508,151,419,-399,1,0,26,30,0,1,53298,1
725,2,32394,30556,31828,39714,36580,-3071,-337,-3575,-10542,-3978,9574,123,415,-391,1,0,26,30,40,1,53298,1
726,2,32807,29861,31810,39715,36582,-2863,-822,-3332,-15158,-4017,7630,107,407,-373,1,0,26,30,80,1,53298,1
727,2,32607,29950,31809,39716,36585,-2590,-1120,-3262,-8773,-3649,5606,96,414,-362,1,0,26,30,120,1,53298,1
728,2,32435,30083,32282,39717,36587,-2444,-916,-3356,-1104,-3002,3035,87,415,-355,1,0,26,30,160,1,53298,1
729,2,32268,30001,32290,39718,36588,-2519,-652,-3056,1449,-916,322,96,406,-362,1,0,26,30,200,1,53298,1
730,2,32210,30416,32267,39719,36590,-2710,-352,-3435,1335,408,-2092,100,416,-358,1,0,26,30,240,1,53298,1
731,2,32266,29953,32305,39720,36591,-2687,228,-3834,2250,438,-2829,101,415,-367,1,0,26,30,280,1,53298,1
732,2,32242,30194,32336,39721,36593,-3040,-45,-3618,2754,1825,-4147,97,415,-355,1,0,26,30,320,1,53298,1
733,2,32138,30252,32336,39722,36595,-3200,-97,-3386,3107,2820,-5123,115,413,-375,1,0,26,30,360,1,53298,1
734,2,32122,29982,32327,39723,36597,-3092,-456,-2559,2820,2525,-6208,120,418,-382,1,0,26,30,400,1,53298,1
735,2,32226,30397,32332,39724,36599,-3107,-679,-1828,2567,855,-7495,129,425,-383,1,0,26,30,440,1,53298,1
736,2,32468,30044,32337,39725,36602,-2894,-619,-2001,1703,-2295,-8675,142,424,-380,1,0,26,30,480,1,53298,1
737,2,32654,30018,32358,39726,36604,-3163,514,-3071,3066,-1769,-9206,162,430,-384,1,0,26,30,520,1,53298,1
738,2,32618,29958,32358,39727,36606,-3379,-218,-3144,3522,-2422,-6816,173,439,-387,1,0,26,30,560,1,53298,1
739,2,32432,31150,32320,39728,36609,-3862,-567,-3191,3166,-1466,-7397,180,440,-380,1,0,26,30,600,1,53298,1
740,2,32338,30213,32329,39729,36611,-3696,-1048,-3354,1736,-2089,-7790,207,429,-367,1,0,26,30,640,1,53298,1
741,2,32292,30016,32349,39730,36614,-3046,-1174,-3882,1198,-2282,-7947,206,430,-366,1,0,26,30,680,1,53298,1
742,2,32317,30216,32383,39731,36617,-3162,-915,-3459,2979,-1021,-7879,222,446,-366,1,0,26,30,720,1,53298,1
743,2,32349,30345,32380,39732,36620,-3121,-1584,-3257,1290,-1087,-7900,229,433,-367,1,0,26,30,760,1,53298,1
744,2,32356,30097,32397,39733,36623,-3010,-1189,-3070,846,-744,-7809,248,448,-370,1,0,26,30,800,1,53298,1
745,2,32356,30204,32380,39734,36626,-3148,-1037,-2769,882,-1018,-6855,247,435,-361,1,0,26,30,840,1,53298,1
746,2,32313,30079,32368,39735,36630,-3283,-447,-3053,1126,-1303,-5846,266,436,-362,1,0,26,30,880,1,53298,1
747,2,32318,30067,32366,39736,36632,-3148,-439,-3191,5,-1032,-3310,270,432,-350,1,0,26,30,920,1,53298,1
748,2,32293,30718,32384,39737,36635,-3171,-350,-3176,270,-94,-1020,262,436,-360,1,0,26,30,960,1,53298,1
749,1,32254,30742,32379,39738,0,-3039,-494,-3090,2095,698,983,260,438,-352,1,0,26,31,0,1,53298,1
750,2,32265,30385,32384,39739,36071,-3182,-389,-2836,3335,1550,3207,253,441,-357,1,0,26,31,40,1,53298,1
751,2,32241,30135,32379,39740,36074,-2948,-1078,-3514,2257,1818,4447,254,430,-348,1,0,26,31,80,1,53298,1
752,2,32192,30112,32379,39741,36078,-3111,-425,-3587,2863,3429,6058,247,445,-357,1,0,26,31,120,1,53298,1
753,2,32168,30041,32369,39742,36081,-3050,-933,-3912,1740,4915,7476,231,439,-369,1,0,26,31,160,1,53298,1
754,2,32140,29972,32343,39743,36084,-3409,-1411,-3645,812,6197,7767,233,437,-387,1,0,26,31,200,1,53298,1
755,2,32108,30044,32311,39744,36087,-3644,-1651,-2934,-556,5489,7093,215,437,-389,1,0,26,31,240,1,53298,1
756,2,32141,30733,32341,39745,36090,-3516,-1544,-3117,-1671,4474,6685,210,426,-392,1,0,26,31,280,1,53298,1
757,2,32110,30601,32357,39746,36093,-3220,-990,-2726,75,2809,5831,214,424,-400,1,0,26,31,320,1,53298,1
758,2,32084,30805,32374,39747,36095,-2372,-602,-3362,-188,2233,7045,187,429,-405,1,0,26,31,360,1,53298,1
759,2,32160,30830,32387,39748,36097,-3112,-653,-3765,-1621,4217,6748,178,428,-410,1,0,26,31,400,1,53298,1
760,2,32306,30779,32381,39749,36100,-3327,-787,-3302,-2875,3515,7292,176,416,-410,1,0,26,31,440,1,53298,1
761,2,32332,30310,32405,39750,36102,-2890,-246,-2806,-3885,129,8691,157,415,-411,1,0,26,31,480,1,53298,1
762,2,32286,30768,32385,39751,36104,-2691,-1111,-3392,-6858,562,7609,146,416,-408,1,0,26,31,520,1,53298,1
763,2,32203,30050,32366,39752,36105,-2658,-1124,-3319,-5991,1825,5155,126,406,-408,1,0,26,31,560,1,53298,1
764,2,32049,30421,32355,39753,36106,-2579,-1095,-3506,-4390,762,3913,128,402,-412,1,0,26,31,600,1,53298,1
765,2,31927,30713,32352,39754,36107,-2245,-1349,-3369,-667,-316,3323,120,404,-408,1,0,26,31,640,1,53298,1
766,2,31859,30809,32357,39755,36108,-2400,-893,-3232,750,193,1400,125,399,-409,1,0,26,31,680,1,53298,1
767,2,31816,30702,32352,39756,36109,-2405,-631,-3258,290,967,-1066,129,401,-409,1,0,26,31,720,1,53298,1
768,2,31804,30899,32364,39757,36111,-2506,-472,-3189,990,677,-2531,128,408,-414,1,0,26,31,760,1,53298,1
769,2,31806,30727,32360,39758,36112,-2617,-251,-3350,687,65,-2667,133,401,-413,1,0,26,31,800,1,53298,1
770,2,31806,30780,32371,39759,36113,-2907,-138,-3273,1223,-358,-2644,138,412,-416,1,0,26,31,840,1,53298,1
771,2,31820,30884,32374,39760,36114,-2766,-759,-3380,2925,-861,-3772,145,417,-411,1,0,26,31,880,1,53298,1
772,2,31823,30885,32377,39761,36116,-2709,-1425,-3251,3088,-1193,-5785,147,411,-413,1,0,26,31,920,1,53298,1
773,2,31842,30870,32386,39762,36117,-2562,-1062,-2600,5152,-1030,-8485,160,418,-404,1,0,26,31,960,1,53298,1
774,1,31936,30804,32386,39763,0,-2615,-465,-2763,3589,-1713,-8183,183,417,-415,1,0,26,32,0,1,53298,1
775,2,32020,30877,32362,39764,35562,-2819,-472,-3676,477,-1801,-6222,186,420,-410,1,0,26,32,40,1,53298,1
776,2,32084,30447,32339,39765,35564,-3181,-1370,-3185,4485,-1156,-7902,200,420,-402,1,0,26,32,80,1,53298,1
777,2,32143,30305,32332,39766,35567,-3457,-1326,-2885,3759,-2528,-8390,219,437,-405,1,0,26,32,120,1,53298,1
778,2,32200,30436,32313,39767,35570,-3226,-1634,-3333,1116,-4882,-8786,227,427,-401,1,0,26,32,160,1,53298,1
779,2,32270,30545,32331,39768,35573,-3024,-1504,-3544,661,-5078,-8598,225,433,-387,1,0,26,32,200,1,53298,1
780,2,32298,30906,32329,39769,35575,-3471,117,-4019,6137,-1632,-7447,254,426,-384,1,0,26,32,240,1,53298,1
781,2,32312,30522,32334,39770,35578,-2786,-1604,-3805,6255,-917,-3442,253,425,-385,1,0,26,32,280,1,53298,1
782,2,32341,30711,32350,39771,35581,-3269,-1166,-3045,5943,262,-3156,268,422,-382,1,0,26,32,320,1,53298,1
783,2,32353,30708,32372,39772,35584,-3127,-971,-3028,1912,-1050,-2210,277,431,-371,1,0,26,32,360,1,53298,1
784,2,32351,30762,32396,39773,35588,-2770,-1004,-3168,-2221,-1337,-597,265,429,-387,1,0,26,32,400,1,53298,1
785,2,31872,30654,31921,39774,35592,-2678,-1326,-3205,-2990,-912,578,266,428,-380,1,0,26,32,440,1,53298,1
786,2,31835,30112,31855,39775,35597,-2891,-1433,-3208,-1706,-395,1189,258,428,-380,1,0,26,32,480,1,53298,1
787,2,31818,30278,31867,39776,35602,-2925,-1454,-3368,-1181,-210,1535,267,433,-377,1,0,26,32,520,1,53298,1
788,2,31802,30204,31860,39777,35608,-2870,-1481,-3493,-1942,-333,2138,257,431,-379,1,0,26,32,560,1,53298,1
789,2,31806,30009,31870,39778,35614,-2859,-1449,-3521,-2212,-93,2461,255,431,-381,1,0,26,32,600,1,53298,1
790,2,31822,30045,31910,39779,35620,-2797,-1258,-3558,-1201,535,2503,244,434,-386,1,0,26,32,640,1,53298,1
791,2,31808,30070,31904,39780,35624,-2885,-1175,-3358,-231,1430,3363,249,435,-389,1,0,26,32,680,1,53298,1
792,2,31766,30066,31888,39781,35629,-2979,-1088,-3447,103,2128,4284,239,425,-383,1,0,26,32,720,1,53298,1
793,2,31774,30103,31883,39782,35633,-3089,-1122,-3420,-765,2831,5268,231,431,-397,1,0,26,32,760,1,53298,1
794,2,31795,30045,31874,39783,35637,-3229,-1350,-3416,-1693,3353,5195,221,427,-393,1,0,26,32,800,1,53298,1
795,2,31820,30007,31885,39784,35641,-3088,-1643,-2869,-2380,2966,4372,218,428,-398,1,0,26,32,840,1,53298,1
796,2,31834,29977,31863,39785,35643,-3162,-707,-2701,-2755,2352,4293,202,424,-390,1,0,26,32,880,1,53298,1
797,2,31821,30030,31860,39786,35646,-2668,-787,-3175,-3316,126,5400,197,429,-403,1,0,26,32,920,1,53298,1
798,2,31754,30021,31861,39787,35649,-2591,-1127,-3695,-3400,1785,4010,194,430,-402,1,0,26,32,960,1,53298,1
799,1,31739,30118,31850,39788,0,-2871,-474,-4119,-3624,2380,4903,186,420,-406,1,0,26,33,0,0,53298,1
800,2,31717,30164,31850,39789,35054,-3147,-951,-4154,-3107,2790,5977,159,417,-397,1,0,26,33,40,0,53298,1
801,2,31668,29918,31831,39790,35057,-3064,174,-2878,-2426,1419,7025,166,414,-414,1,0,26,33,80,0,53298,1
802,2,31625,30272,31831,39791,35060,-2694,-675,-3326,-5711,2894,5586,155,417,-413,1,0,26,33,120,0,53298,1
803,2,31596,29953,31809,39792,35063,-2624,-640,-2982,-7041,2253,4541,144,404,-414,1,0,26,33,160,0,53298,1
804,2,31604,30138,31804,39793,35067,-2166,-932,-3493,-3867,2075,4105,137,401,-403,1,0,26,33,200,0,53298,1
805,2,31581,30059,31803,39794,35070,-2235,-760,-3519,1705,2696,3766,130,404,-412,1,0,26,33,240,0,53298,1
806,2,31543,30082,31814,39795,35074,-2421,-333,-3489,3536,3072,2888,133,393,-423,1,0,26,33,280,0,53298,1
807,2,31487,29918,31819,39796,35077,-2559,-268,-3264,1789,2004,2172,135,397,-421,1,0,26,33,320,0,53298,1
808,2,31410,30396,31780,39797,35080,-2475,-814,-2869,-1465,641,1014,130,392,-416,1,0,26,33,360,0,53298,1
809,2,31438,30280,31821,39798,35082,-2297,-820,-2647,-2020,-715,-866,123,395,-421,1,0,26,33,400,0,53298,1
810,2,31439,30099,31824,39799,35084,-2108,-509,-3307,-1312,-1603,-2203,124,396,-416,1,0,26,33,440,0,53298,1
811,2,31453,30357,31839,39800,35086,-2510,-1051,-3204,808,-2046,-2759,132,398,-416,1,0,26,33,480,0,53298,1
812,2,31464,29910,31840,39801,35089,-2594,-725,-3576,3173,-3094,-4073,149,415,-419,1,0,26,33,520,0,53298,1
813,2,31508,29916,31846,39802,35092,-2531,-1153,-3557,2664,-3462,-5465,153,411,-413,1,0,26,33,560,0,53298,1
814,2,31680,29953,31851,39803,35094,-2674,-809,-3466,1677,-2992,-7408,164,410,-412,1,0,26,33,600,0,53298,1
815,2,31907,29951,31865,39804,35096,-2842,2264,-4005,491,-3367,-6716,168,424,-404,1,0,26,33,640,0,53298,1
816,2,31930,30008,31856,39805,35099,-3112,-848,-3859,1102,-2314,-4570,169,415,-403,1,0,26,33,680,0,53298,1
817,2,31879,30007,31853,39806,35101,-3379,-1057,-3155,2383,-1273,-5460,169,423,-395,1,0,26,33,720,0,53298,1
818,2,31875,30031,31849,39807,35103,-3162,-1482,-2801,1548,-2652,-6468,190,424,-392,1,0,26,33,760,0,53298,1
819,2,31951,30020,31834,39808,35105,-2720,-2740,-3213,2378,-2862,-9644,202,422,-382,1,0,26,33,800,0,53298,1
820,2,31940,32028,31809,39809,35108,-3241,2,-3072,7644,-1634,-9800,225,425,-395,1,0,26,33,840,0,53298,1
821,2,31961,30130,31865,39810,35111,-2945,-183,-3279,6883,-3826,-6560,243,431,-393,1,0,26,33,880,0,53298,1
822,2,31940,30200,31865,39811,35114,-2988,-587,-3336,2052,-3698,-5209,233,429,-387,1,0,26,33,920,0,53298,1
823,2,31923,30527,31867,39812,35118,-3141,-1003,-3347,-2675,-3607,-4609,240,430,-378,1,0,26,33,960,0,53298,1
824,1,31886,30013,31855,39813,0,-3243,-952,-3103,-2554,-3300,-4324,258,432,-378,1,0,26,34,0,1,53298,1
825,2,31863,31066,31825,39814,34545,-3208,-1110,-3490,475,-2873,-2926,250,434,-366,1,0,26,34,40,1,53298,1
826,2,31854,30180,31840,39815,34547,-3038,-773,-3414,2327,-2316,-1934,256,432,-364,1,0,26,34,80,1,53298,1
827,2,31833,30086,31844,39816,34550,-2913,-661,-3553,605,-1430,-756,262,438,-364,1,0,26,34,120,1,53298,1
828,2,31820,30061,31841,39817,34553,-2879,-798,-3686,-715,66,920,261,441,-363,1,0,26,34,160,1,53298,1
829,2,31797,29990,31846,39818,34556,-3061,-946,-3721,-162,1626,2886,262,432,-364,1,0,26,34,200,1,53298,1
830,2,31743,29994,31855,39819,34559,-2992,-805,-3371,1277,2615,4528,250,442,-368,1,0,26,34,240,1,53298,1
831,2,31715,29995,31857,39820,34562,-2978,-1062,-3654,711,3982,5983,244,440,-374,1,0,26,34,280,1,53298,1
832,2,31730,30159,31867,39821,34565,-3058,-1017,-3706,-179,4869,6715,239,439,-385,1,0,26,34,320,1,53298,1
833,2,31751,30232,31863,39822,34570,-3262,-1470,-3429,-2172,5598,6737,225,429,-395,1,0,26,34,360,1,53298,1
834,2,31765,30239,31862,39823,34573,-3258,-1268,-3049,-1363,5390,6452,215,431,-393,1,0,26,34,400,1,53298,1
835,2,31852,30286,31854,39824,34576,-3402,-206,-3135,-623,4663,6668,204,414,-400,1,0,26,34,440,1,53298,1
836,2,31824,30067,31840,39825,34578,-2720,-754,-3492,-3357,1304,9041,184,418,-406,1,0,26,34,480,1,53298,1
837,2,31753,30137,31829,39826,34580,-2996,-1103,-3373,-3640,4214,6989,172,422,-414,1,0,26,34,520,1,53298,1
838,2,31725,29944,31836,39827,34583,-2961,-688,-3181,-4668,2911,7338,172,412,-414,1,0,26,34,560,1,53298,1
839,2,31817,30441,31840,39828,34585,-2629,-938,-3615,-2539,1878,7809,154,410,-408,1,0,26,34,600,1,53298,1
840,2,32035,30456,31846,39829,34588,-3143,-195,-2666,-428,1509,8176,149,403,-419,1,0,26,34,640,1,53298,1
841,2,32481,30560,31844,39830,34590,-2799,-1067,-3173,-3578,733,7263,133,395,-415,1,0,26,34,680,1,53298,1
842,2,32594,30145,31822,39831,34592,-2519,-1375,-3302,-7580,-38,4704,119,401,-411,1,0,26,34,720,1,53298,1
843,2,32391,30365,31835,39832,34595,-2066,-1399,-3486,-5868,-360,2800,117,403,-403,1,0,26,34,760,1,53298,1
844,2,32370,30420,32008,39833,34597,-1999,-1393,-3488,39,-312,1021,118,402,-408,1,0,26,34,800,1,53298,1
845,2,32213,30574,31972,39834,34599,-2260,-1011,-3620,2879,314,-912,122,406,-412,1,0,26,34,840,1,53298,1
846,2,32044,30251,31977,39835,34601,-2463,-425,-3583,2308,745,-2992,126,398,-414,1,0,26,34,880,1,53298,1
847,2,31908,30224,31971,39836,34602,-2894,-85,-3626,1640,167,-3282,124,402,-414,1,0,26,34,920,1,53298,1
848,2,31798,30414,31972,39837,34604,-2695,-309,-3258,2403,-358,-3493,127,395,-417,1,0,26,34,960,1,53298,1
849,1,31769,30389,31970,39838,0,-2644,-993,-3073,1882,-517,-4826,152,410,-410,1,0,26,35,0,1,53298,1
850,2,31799,30464,31963,39839,34036,-2659,-994,-3054,2102,-506,-6925,151,407,-421,1,0,26,35,40,1,53298,1
851,2,31895,30499,31965,39840,34038,-2714,-870,-3252,3713,-1170,-7860,172,416,-414,1,0,26,35,80,1,53298,1
852,2,31900,30584,31984,39841,34040,-2673,958,-3836,2945,-1649,-5691,172,418,-418,1,0,26,35,120,1,53298,1
853,2,31857,30558,31980,39842,34042,-3163,-740,-3272,4585,-1508,-4723,181,413,-407,1,0,26,35,160,1,53298,1
854,2,31863,30523,31980,39843,34043,-3029,-1327,-3162,3157,-2372,-5555,192,420,-410,1,0,26,35,200,1,53298,1
855,2,31945,30517,31988,39844,34045,-2798,-1419,-3084,1518,-2674,-7554,205,429,-399,1,0,26,35,240,1,53298,1
856,2,32109,30495,32039,39845,34047,-2624,-1853,-3972,625,-1625,-8462,217,421,-407,1,0,26,35,280,1,53298,1
857,2,32101,30416,31996,39846,34049,-2969,66,-3336,7679,-786,-6447,225,415,-389,1,0,26,35,320,1,53298,1
858,2,32084,30065,31992,39847,34052,-2907,-652,-3270,5085,-1854,-4218,236,414,-386,1,0,26,35,360,1,53298,1
859,2,32520,30615,32442,39848,34055,-3062,-1161,-2637,-985,-2552,-4059,240,424,-398,1,0,26,35,400,1,53298,1
860,2,31947,29978,31888,39849,34057,-3121,-1357,-2797,-4579,-3574,-4720,236,428,-386,1,0,26,35,440,1,53298,1
861,2,31871,29984,31856,39850,34060,-2821,-1180,-3381,-2288,-4236,-4292,249,433,-391,1,0,26,35,480,1,53298,1
862,2,31869,30038,31843,39851,34063,-2692,-803,-3566,1725,-3830,-2591,258,430,-390,1,0,26,35,520,1,53298,1
863,2,31861,30610,31855,39852,34066,-2817,-687,-3920,1393,-2627,-1141,255,433,-379,1,0,26,35,560,1,53298,1
864,2,31834,30547,31854,39853,34069,-2900,-681,-3856,23,-1093,398,254,434,-386,1,0,26,35,600,1,53298,1
865,2,31811,30564,31862,39854,34072,-3108,-651,-3599,57,346,2443,253,435,-371,1,0,26,35,640,1,53298,1
866,2,31780,30445,31865,39855,34075,-2795,-741,-3674,1273,1388,3813,241,439,-377,1,0,26,35,680,1,53298,1
867,2,31738,29927,31853,39856,34078,-2841,-597,-3797,1413,3322,5180,236,426,-380,1,0,26,35,720,1,53298,1
868,2,31711,30013,31861,39857,34081,-3190,-588,-3783,78,4455,6536,224,428,-384,1,0,26,35,760,1,53298,1
869,2,31715,30089,31857,39858,34083,-3149,-933,-3379,-1318,4276,7289,222,428,-392,1,0,26,35,800,1,53298,1
870,2,31754,30066,31854,39859,34086,-3322,-1996,-3220,-4500,4605,7848,213,435,-401,1,0,26,35,840,1,53298,1
871,2,31797,30008,31858,39860,34090,-3508,-293,-2671,-1836,3433,7067,200,420,-410,1,0,26,35,880,1,53298,1
872,2,31830,30368,31863,39861,34093,-2488,-1500,-3450,-3934,672,7877,192,410,-406,1,0,26,35,920,1,53298,1
873,2,32072,30236,31869,39862,34096,-2637,-1318,-3719,-3928,3338,6225,179,421,-409,1,0,26,35,960,1,53298,1
874,1,33175,30810,32217,39863,0,-3404,-535,-3055,-2792,2870,6045,164,412,-414,1,0,26,36,0,0,53298,1
875,2,34419,30455,32417,39864,33530,-2384,-509,-3244,-4253,467,6650,148,410,-410,1,0,26,36,40,0,53298,1
876,2,36312,30423,32492,39865,33532,-2396,-852,-3470,-3304,2028,6044,144,398,-412,1,0,26,36,80,0,53298,1
877,2,35902,30325,32425,39866,33535,-2920,-538,-3277,-5061,1383,4452,129,405,-415,1,0,26,36,120,0,53298,1
878,2,34777,30339,32520,39867,33538,-2159,-866,-3930,-6284,730,3201,132,400,-410,1,0,26,36,160,0,53298,1
879,2,33521,30200,32641,39868,33540,-2258,-1120,-3731,-1119,1457,2447,119,415,-409,1,0,26,36,200,0,53298,1
880,2,32507,30697,32485,39869,33543,-2315,-932,-3223,1191,1518,1487,117,405,-407,1,0,26,36,240,0,53298,1
881,2,32185,30811,32454,39870,33546,-2372,-574,-3076,1407,818,-153,123,401,-411,1,0,26,36,280,0,53298,1
882,2,32428,30813,32741,39871,33550,-2411,-500,-2808,596,344,-2442,129,405,-409,1,0,26,36,320,0,53298,1
883,2,32811,30979,33645,39872,33552,-2495,-866,-3063,655,-317,-3302,125,407,-415,1,0,26,36,360,0,53298,1
884,2,35942,32202,36131,39873,33555,-2615,-634,-3071,3182,-1361,-4477,144,404,-428,1,0,26,36,400,0,53298,1
885,2,35351,33207,37711,39874,33557,-2644,-752,-3313,4201,-2048,-5682,159,407,-417,1,0,26,36,440,0,53298,1
886,2,33163,31336,33455,39875,33559,-2848,-844,-3320,2926,-2675,-6821,151,419,-413,1,0,26,36,480,0,53298,1
887,2,32751,30888,32726,39876,33561,-2835,1957,-4184,65,-3430,-6337,164,422,-406,1,0,26,36,520,0,53298,1
888,2,32598,30607,32533,39877,33563,-3168,-132,-3528,795,-1979,-4358,173,413,-403,1,0,26,36,560,0,53298,1
889,2,32505,30557,32482,39878,33565,-3265,-970,-3183,3714,-1846,-5015,175,425,-403,1,0,26,36,600,0,53298,1
890,2,32450,30125,32446,39879,33568,-2735,-1998,-3415,1087,-2355,-6717,200,420,-406,1,0,26,36,640,0,53298,1
891,2,32407,30064,32411,39880,33570,-2968,-1004,-2990,5062,-1388,-8087,199,421,-407,1,0,26,36,680,0,53298,1
892,2,32447,30498,32396,39881,33573,-2804,-1216,-2896,3749,-2725,-7804,222,426,-406,1,0,26,36,720,0,53298,1
893,2,32525,30208,32456,39882,33577,-2897,-981,-3441,2093,-3431,-7255,243,427,-395,1,0,26,36,760,0,53298,1
894,2,32548,30383,32464,39883,33581,-2866,-729,-3514,857,-3602,-5908,241,433,-389,1,0,26,36,800,0,53298,1
895,2,32570,30484,32487,39884,33585,-3067,-1374,-3314,-379,-2823,-4875,248,438,-386,1,0,26,36,840,0,53298,1
896,2,32604,30697,32522,39885,33589,-3299,-1081,-3253,1196,-2617,-4324,248,438,-384,1,0,26,36,880,0,53298,1
897,2,32596,30107,32523,39886,33592,-3178,-1254,-2834,1230,-2914,-3739,257,433,-385,1,0,26,36,920,0,53298,1
898,2,32615,30812,32559,39887,33595,-3212,-806,-2793,1106,-3035,-3217,260,434,-370,1,0,26,36,960,0,53298,1
899,1,32596,30518,32554,39888,0,-3055,-812,-2931,511,-3557,-2085,267,441,-367,1,0,26,37,0,1,53298,1
900,2,32535,30708,32540,39889,33022,-2984,-846,-3374,-136,-3397,-612,259,451,-353,1,0,26,37,40,1,53298,1
901,2,32511,30552,32544,39890,33026,-2961,-957,-3916,-493,-2346,925,273,437,-367,1,0,26,37,80,1,53298,1
902,2,32481,30505,32554,39891,33029,-2951,-1106,-4029,-295,-358,2427,252,444,-358,1,0,26,37,120,1,53298,1
903,2,32452,30803,32566,39892,33033,-2832,-1422,-4081,1017,1979,3532,255,435,-353,1,0,26,37,160,1,53298,1
904,2,32399,30880,32572,39893,33037,-2898,-1307,-3932,2970,4477,4073,249,443,-363,1,0,26,37,200,1,53298,1
905,2,32385,30921,32579,39894,33040,-3061,-1126,-3749,2960,6219,4749,246,436,-384,1,0,26,37,240,1,53298,1
906,2,32405,30922,32580,39895,33043,-3293,-1147,-3646,919,6832,5245,226,426,-378,1,0,26,37,280,1,53298,1
907,2,32451,30930,32584,39896,33046,-3483,-1499,-2700,-882,6313,5730,232,430,-388,1,0,26,37,320,1,53298,1
908,2,32513,30913,32588,39897,33049,-3337,-914,-2837,48,6090,6496,227,431,-389,1,0,26,37,360,1,53298,1
909,2,32537,30950,32569,39898,33052,-3334,-183,-2539,-121,4391,6461,217,421,-405,1,0,26,37,400,1,53298,1
910,2,32464,30764,32559,39899,33055,-2635,-636,-2756,-3111,2286,7027,204,422,-408,1,0,26,37,440,1,53298,1
911,2,32399,30783,32545,39900,33058,-3070,-569,-3091,-5787,3431,7221,187,417,-419,1,0,26,37,480,1,53298,1
912,2,32414,30700,32540,39901,33060,-3115,-299,-3251,-6184,1195,8006,171,413,-417,1,0,26,37,520,1,53298,1
913,2,32470,30850,32529,39902,33062,-2956,-992,-3681,-7541,-367,8595,150,412,-406,1,0,26,37,560,1,53298,1
914,2,32548,30985,32517,39903,33064,-2758,-1857,-3555,-6571,-201,8200,140,406,-404,1,0,26,37,600,1,53298,1
915,2,32680,30885,32528,39904,33066,-2879,-972,-2867,-2632,586,6386,130,418,-418,1,0,26,37,640,1,53298,1
916,2,32671,30624,32539,39905,33069,-2437,-1622,-3194,1874,-978,5667,130,408,-404,1,0,26,37,680,1,53298,1
917,2,32701,30563,32556,39906,33071,-2306,-1396,-3116,833,-911,2246,129,407,-413,1,0,26,37,720,1,53298,1
918,2,32760,30270,32546,39907,33074,-2103,-1018,-3455,-677,-819,-423,127,403,-413,1,0,26,37,760,1,53298,1
919,2,32860,30998,32564,39908,33076,-2379,-1123,-3916,857,-566,-1587,136,408,-406,1,0,26,37,800,1,53298,1
920,2,32824,30989,32573,39909,33079,-2668,-733,-3917,1602,-321,-2665,135,417,-395,1,0,26,37,840,1,53298,1
921,2,32654,32356,32545,39910,33082,-2820,-368,-3691,982,-382,-3489,142,414,-412,1,0,26,37,880,1,53298,1
922,2,32576,30891,32615,39911,33084,-2846,-622,-3026,1038,-862,-3784,143,413,-405,1,0,26,37,920,1,53298,1
923,2,32557,31051,32652,39912,33086,-2879,-1161,-3223,404,-136,-4975,155,413,-405,1,0,26,37,960,1,53298,1
924,1,32518,30884,32592,39913,0,-2820,-605,-3015,2586,-132,-6790,163,415,-401,1,0,26,38,0,1,53298,1
925,2,32534,30689,32604,39914,32514,-2708,303,-2992,1487,-1255,-5957,174,424,-408,1,0,26,38,40,1,53298,1
926,2,32458,30704,32573,39915,32517,-2902,-1125,-3544,220,-598,-5394,171,429,-405,1,0,26,38,80,1,53298,1
927,2,32374,30647,32561,39916,32520,-3464,-1132,-2924,4187,-1803,-7142,188,428,-400,1,0,26,38,120,1,53298,1
928,2,32384,30282,32550,39917,32523,-2979,-2452,-2824,2206,-3292,-8730,196,424,-402,1,0,26,38,160,1,53298,1
929,2,32453,30361,32536,39918,32526,-2979,-2637,-3217,1556,-2416,-11026,223,427,-389,1,0,26,38,200,1,53298,1
930,2,32540,30672,32548,39919,32529,-3221,-854,-3468,7481,-1381,-11885,242,424,-392,1,0,26,38,240,1,53298,1
931,2,32614,30787,32559,39920,32533,-2866,-561,-3500,9856,-1769,-8298,256,424,-396,1,0,26,38,280,1,53298,1
932,2,32666,30910,32560,39921,32537,-2943,-804,-3743,6362,-1536,-5968,266,426,-386,1,0,26,38,320,1,53298,1
933,2,32671,30745,32563,39922,32541,-3169,-437,-2792,1065,-1991,-4887,272,430,-380,1,0,26,38,360,1,53298,1
934,2,32671,30660,32549,39923,32545,-3099,-1270,-2996,-2883,-3059,-3291,279,431,-383,1,0,26,38,400,1,53298,1
935,2,32618,30774,32556,39924,32549,-2968,-1274,-3251,-1621,-2998,-2358,277,433,-383,1,0,26,38,440,1,53298,1
936,2,32565,30382,32538,39925,32552,-2712,-1184,-3308,343,-2526,-1302,284,426,-368,1,0,26,38,480,1,53298,1
937,2,32515,30096,32494,39926,32556,-2849,-995,-3431,-16,-1543,-48,283,423,-369,1,0,26,38,520,1,53298,1
938,2,32483,30761,32505,39927,32560,-2871,-986,-3636,-850,-668,1794,279,431,-369,1,0,26,38,560,1,53298,1
939,2,32467,30509,32528,39928,32564,-2862,-875,-3870,-683,681,4024,266,428,-362,1,0,26,38,600,1,53298,1
940,2,32472,30797,32530,39929,32567,-3321,-920,-3281,-622,1967,5854,260,428,-378,1,0,26,38,640,1,53298,1
941,2,32428,30968,32525,39930,32572,-2991,-1389,-3621,-1650,2704,6669,252,426,-384,1,0,26,38,680,1,53298,1
942,2,32382,30919,32520,39931,32575,-3034,-1324,-3357,-1585,3806,7446,248,430,-388,1,0,26,38,720,1,53298,1
943,2,32364,30779,32501,39932,32578,-3314,-1742,-3574,-1812,4089,7520,224,436,-396,1,0,26,38,760,1,53298,1
944,2,32342,30465,32470,39933,32580,-3491,-2524,-3076,-1503,3478,6480,220,428,-400,1,0,26,38,800,1,53298,1
945,2,32341,30668,32460,39934,32584,-3083,-1637,-2879,-174,2164,5599,213,431,-397,1,0,26,38,840,1,53298,1
946,2,32327,30424,32437,39935,32586,-2730,-769,-3169,-397,1846,5382,201,429,-399,1,0,26,38,880,1,53298,1
947,2,32376,30773,32453,39936,32588,-2641,-1229,-3459,-1461,2183,4654,205,425,-401,1,0,26,38,920,1,53298,1
948,2,32399,30718,32460,39937,32591,-2898,-689,-3422,-3135,1856,4905,184,426,-404,1,0,26,38,960,1,53298,1
949,1,32477,30740,32455,39938,0,-2697,-755,-4094,-3725,2174,6419,185,425,-411,1,0,26,39,0,1,53298,1
950,2,32645,30854,32445,39939,32007,-3023,-950,-3879,-2246,3199,6693,180,420,-412,1,0,26,39,40,1,53298,1
951,2,32922,30918,32438,39940,32010,-3070,-846,-3309,-3088,3258,6233,159,417,-413,1,0,26,39,80,1,53298,1
952,2,33236,30953,32431,39941,32012,-2813,-476,-3050,-4110,3182,5435,155,409,-421,1,0,26,39,120,1,53298,1
953,2,33605,30778,32416,39942,32015,-2578,-642,-2900,-4299,2044,4976,140,402,-414,1,0,26,39,160,1,53298,1
954,2,34156,30937,32401,39943,32017,-2326,-1069,-3072,-4232,1132,4244,142,410,-414,1,0,26,39,200,1,53298,1
955,2,34419,30942,32406,39944,32020,-2234,-1065,-3381,-2236,1027,3155,130,388,-422,1,0,26,39,240,1,53298,1
956,2,34320,30954,32405,39945,32022,-2277,-1374,-3392,206,920,1913,134,400,-420,1,0,26,39,280,1,53298,1
957,2,33985,30717,32412,39946,32024,-2313,-1247,-3491,1563,317,-245,133,401,-419,1,0,26,39,320,1,53298,1
958,2,33394,30790,32434,39947,32027,-2374,-1110,-3720,1812,-252,-2727,137,397,-417,1,0,26,39,360,1,53298,1
959,2,32762,30925,32442,39948,32031,-2601,-743,-3892,4384,-341,-3962,144,400,-416,1,0,26,39,400,1,53298,1
960,2,32434,30955,32466,39949,32034,-2708,-461,-3714,8255,257,-5181,158,402,-422,1,0,26,39,440,1,53298,1
961,2,32303,30910,32462,39950,32038,-2495,-972,-3405,4349,192,-6587,163,401,-427,1,0,26,39,480,1,53298,1
962,2,32250,30900,32456,39951,32042,-2527,-82,-3421,-1196,-426,-6146,171,407,-429,1,0,26,39,520,1,53298,1
963,2,32277,30911,32443,39952,32045,-2440,-1284,-3392,-705,-933,-6692,187,411,-423,1,0,26,39,560,1,53298,1
964,2,32335,30914,32438,39953,32048,-2416,-1887,-3138,1909,-1086,-7209,192,408,-426,1,0,26,39,600,1,53298,1
965,2,32396,30917,32434,39954,32051,-2432,-1332,-3184,5663,-789,-7709,204,414,-426,1,0,26,39,640,1,53298,1
966,2,32481,30915,32432,39955,32054,-2754,-957,-3126,6089,-967,-6834,226,410,-426,1,0,26,39,680,1,53298,1
967,2,32594,30780,32429,39956,32058,-3045,-1207,-3184,5523,-881,-5984,225,415,-419,1,0,26,39,720,1,53298,1
968,2,32665,30860,32431,39957,32062,-3226,-776,-3161,5896,-1338,-5380,243,407,-415,1,0,26,39,760,1,53298,1
969,2,32685,30958,32455,39958,32065,-3130,-1177,-2884,3288,-2753,-4370,248,414,-412,1,0,26,39,800,1,53298,1
970,2,32686,30210,32443,39959,32069,-2794,-1427,-2899,720,-3862,-4246,255,421,-415,1,0,26,39,840,1,53298,1
971,2,32671,30054,32473,39960,32073,-2700,-1487,-2863,-1627,-4413,-3683,263,413,-401,1,0,26,39,880,1,53298,1
972,2,32664,30585,32515,39961,32078,-2545,-1782,-3167,-2409,-5592,-3656,251,429,-389,1,0,26,39,920,1,53298,1
973,2,32679,30631,32548,39962,32081,-2379,-1223,-3556,-1295,-5883,-3388,259,415,-383,1,0,26,39,960,1,53298,1
974,1,32620,30906,32540,39963,0,-2688,-1418,-3316,-1992,-5518,-2098,261,435,-377,1,0,26,40,0,0,53298,1
975,2,32523,30244,32358,39964,31501,-3275,-1715,-3331,-2381,-5400,-1973,259,431,-387,1,0,26,40,40,0,53298,1
976,2,32640,30912,32597,39965,31505,-3288,-1753,-3501,-2250,-5609,-2124,273,433,-369,1,0,26,40,80,0,53298,1
977,2,32629,30910,32604,39966,31510,-3086,-1597,-3598,-1980,-5055,-2357,268,424,-364,1,0,26,40,120,0,53298,1
978,2,32601,30917,32593,39967,31513,-3041,-1434,-3513,-1716,-4087,-2323,277,437,-347,1,0,26,40,160,0,53298,1
979,2,32579,30918,32589,39968,31517,-2824,-1468,-3869,-1513,-2532,-1356,283,439,-359,1,0,26,40,200,0,53298,1
980,2,32496,30914,32580,39969,31521,-2755,-1083,-3882,1746,336,512,277,443,-359,1,0,26,40,240,0,53298,1
981,2,32416,30905,32581,39970,31524,-2861,-588,-3760,5429,2977,3248,272,430,-358,1,0,26,40,280,0,53298,1
982,2,32352,30884,32575,39971,31528,-3070,-510,-3810,5763,5254,5683,262,436,-374,1,0,26,40,320,0,53298,1
983,2,32290,30855,32561,39972,31531,-3300,-951,-3541,1770,6551,6493,257,437,-375,1,0,26,40,360,0,53298,1
984,2,32278,30849,32550,39973,31534,-3423,-1327,-3527,-2488,7063,6647,245,437,-381,1,0,26,40,400,0,53298,1
985,2,32253,30836,32489,39974,31538,-3309,-2021,-3271,-4468,6905,6310,234,430,-390,1,0,26,40,440,0,53298,1
986,2,32286,30609,32460,39975,31541,-3218,-1717,-2852,-2859,6174,5717,236,432,-412,1,0,26,40,480,0,53298,1
987,2,32406,30277,32506,39976,31543,-2979,-1254,-3249,-2153,5535,6156,218,426,-408,1,0,26,40,520,0,53298,1
988,2,32517,30973,32511,39977,31545,-3440,-933,-2139,-1694,5233,6142,214,420,-412,1,0,26,40,560,0,53298,1
989,2,32425,30720,32497,39978,31548,-2185,-1977,-3009,-2685,-1332,9169,203,415,-415,1,0,26,40,600,0,53298,1
990,2,32417,30962,32495,39979,31550,-2549,-607,-3471,-5321,1545,6016,198,416,-412,1,0,26,40,640,0,53298,1
991,2,32643,30885,32505,39980,31553,-2994,-459,-3929,-9566,1744,6958,170,418,-414,1,0,26,40,680,0,53298,1
992,2,33444,30784,32503,39981,31555,-3370,-878,-3962,-5011,1374,7622,152,412,-412,1,0,26,40,720,0,53298,1
993,2,35980,30870,32528,39982,31557,-3850,-229,-2760,-1465,-115,7804,141,405,-407,1,0,26,40,760,0,53298,1
994,2,38599,30849,32341,39983,31559,-1522,-753,-3982,-9962,1924,5339,133,407,-421,1,0,26,40,800,0,53298,1
995,2,37914,30555,32446,39984,31560,-2499,-774,-3151,-2143,1040,6122,119,405,-411,1,0,26,40,840,0,53298,1
996,2,37000,30876,32497,39985,31562,-2327,-1039,-3457,-2599,1125,3035,118,404,-412,1,0,26,40,880,0,53298,1
997,2,36038,31107,33442,39986,31564,-1953,-1130,-3212,891,-126,1862,117,393,-409,1,0,26,40,920,0,53298,1
998,2,34321,31000,32888,39987,31566,-2189,-1406,-2999,1738,-1936,757,118,396,-414,1,0,26,40,960,0,53298,1
999,1,33199,31098,32749,39988,0,-2535,-1046,-2583,2639,-2843,-1821,128,404,-410,1,0,26,41,0,1,53298,1
1000,2,33070,31200,33070,39989,30993,-2440,-967,-3351,1366,-3543,-5092,134,406,-408,1,0,26,41,40,1,53298,1
1001,2,32464,30914,32715,39990,30997,-2815,-1210,-3352,3194,-2214,-7176,137,415,-401,1,0,26,41,80,1,53298,1
1002,2,32301,30971,32629,39991,31000,-3215,-1356,-3604,7630,-2239,-9017,166,414,-412,1,0,26,41,120,1,53298,1
1003,2,32228,30928,32573,39992,31002,-2401,1505,-4095,6198,-2686,-9084,174,418,-406,1,0,26,41,160,1,53298,1
1004,2,32090,30911,32467,39993,31005,-3146,-841,-4015,671,-1953,-5782,173,425,-399,1,0,26,41,200,1,53298,1
1005,2,32053,30800,32445,39994,31008,-3580,-826,-2846,4915,-1955,-7320,199,429,-407,1,0,26,41,240,1,53298,1
1006,2,32096,30734,32447,39995,31011,-3296,-1728,-2606,1968,-3380,-7652,205,435,-403,1,0,26,41,280,1,53298,1
1007,2,32439,30695,32672,39996,31014,-3029,-1606,-3177,3923,-2665,-9928,215,437,-399,1,0,26,41,320,1,53298,1
1008,2,32724,30805,32841,39997,31017,-2667,-837,-3121,6264,-2661,-7761,241,431,-381,1,0,26,41,360,1,53298,1
1009,2,32741,30903,32601,39998,31020,-3205,-664,-3710,3932,-338,-6406,244,430,-386,1,0,26,41,400,1,53298,1
1010,2,32625,30812,32458,39999,31023,-3092,-968,-3601,4157,-21,-4380,248,430,-392,1,0,26,41,440,1,53298,1
1011,2,32514,30303,32422,40000,31026,-3285,-585,-2701,1164,-1596,-2412,255,427,-385,1,0,26,41,480,1,53298,1
1012,2,32364,30179,32393,40001,31030,-3316,-2370,-2516,-4625,-3051,-1822,254,432,-376,1,0,26,41,520,1,53298,1
1013,2,32335,30419,32375,40002,31033,-3203,-2394,-2630,-4110,-3706,-3460,255,433,-377,1,0,26,41,560,1,53298,1
1014,2,32229,30182,32308,40003,31037,-2847,-1727,-2983,-962,-4874,-4804,262,428,-376,1,0,26,41,600,1,53298,1
1015,2,32246,30657,32316,40004,31041,-2586,-1380,-3381,43,-4918,-4273,260,434,-364,1,0,26,41,640,1,53298,1
1016,2,32221,30729,32315,40005,31045,-2520,-1100,-3664,-101,-3952,-3346,274,436,-348,1,0,26,41,680,1,53298,1
1017,2,32199,30323,32329,40006,31049,-2711,-914,-3669,-368,-2597,-1518,274,442,-352,1,0,26,41,720,1,53298,1
1018,2,32113,30316,32310,40007,31052,-2877,-1392,-3669,86,-1058,947,271,435,-357,1,0,26,41,760,1,53298,1
1019,2,32088,30512,32324,40008,31055,-3163,-1167,-3984,2947,1767,2308,278,440,-364,1,0,26,41,800,1,53298,1
1020,2,32089,30820,32309,40009,31059,-3333,-850,-3769,4088,3953,3475,265,433,-359,1,0,26,41,840,1,53298,1
1021,2,32155,30648,32315,40010,31064,-3386,-1080,-3690,1031,5452,3690,266,438,-370,1,0,26,41,880,1,53298,1
1022,2,32155,30511,32288,40011,31068,-4245,-631,-3142,788,5320,4857,257,433,-377,1,0,26,41,920,1,53298,1
1023,2,32105,30341,32262,40012,31071,-3455,-1331,-3401,-91,5077,6524,245,435,-373,1,0,26,41,960,1,53298,1
1024,1,32055,30469,32261,40013,0,-2921,-1125,-2653,-1505,4254,7054,239,433,-395,1,0,26,42,0,0,53298,1
1025,2,32041,30735,32246,40014,30486,-3349,-1653,-3456,-6112,5283,7169,217,421,-401,1,0,26,42,40,0,53298,1
1026,2,31992,30754,32228,40015,30488,-3056,-2008,-2941,-4605,3968,6753,219,423,-397,1,0,26,42,80,0,53298,1
1027,2,31970,30800,32212,40016,30491,-3075,-1411,-3137,-2357,1944,6579,210,420,-404,1,0,26,42,120,0,53298,1
1028,2,31930,30830,32215,40017,30493,-2714,-1295,-3251,-160,1145,5816,196,424,-410,1,0,26,42,160,0,53298,1
1029,2,31901,30831,32207,40018,30496,-2789,-802,-3212,-255,1603,5975,187,427,-407,1,0,26,42,200,0,53298,1
1030,2,31924,30459,32210,40019,30498,-3007,-993,-3526,-1925,2102,6763,179,421,-413,1,0,26,42,240,0,53298,1
1031,2,31927,30691,32208,40020,30501,-2774,-423,-2730,-3534,-1234,7639,167,419,-407,1,0,26,42,280,0,53298,1
1032,2,31897,30498,32180,40021,30504,-2395,-1876,-3463,-6846,-1303,5083,147,417,-387,1,0,26,42,320,0,53298,1
1033,2,31866,30700,32169,40022,30507,-2217,-1628,-3559,-4894,1025,2083,150,416,-408,1,0,26,42,360,0,53298,1
1034,2,31836,30813,32170,40023,30509,-2335,-1093,-4144,1168,2536,1897,145,413,-405,1,0,26,42,400,0,53298,1
1035,2,31793,30805,32173,40024,30511,-2425,-1229,-4342,5444,2747,2438,150,404,-412,1,0,26,42,440,0,53298,1
1036,2,31735,30445,32169,40025,30514,-2793,-606,-3380,2018,2657,1401,151,411,-409,1,0,26,42,480,0,53298,1
1037,2,31706,30243,32184,40026,30517,-2843,166,-2857,-3102,1437,1506,145,407,-417,1,0,26,42,520,0,53298,1
1038,2,31717,30804,32171,40027,30519,-2689,-24,-2743,-3611,331,2341,136,410,-410,1,0,26,42,560,0,53298,1
1039,2,31732,30735,32175,40028,30522,-2571,-550,-2999,-3311,470,1412,133,413,-417,1,0,26,42,600,0,53298,1
1040,2,31723,30637,32167,40029,30524,-2490,-560,-3056,-736,695,-277,142,404,-420,1,0,26,42,640,0,53298,1
1041,2,31726,30773,32189,40030,30526,-2399,-645,-3486,1584,339,-1162,139,409,-415,1,0,26,42,680,0,53298,1
1042,2,31739,30827,32201,40031,30528,-2654,-649,-3404,3452,124,-1129,145,413,-423,1,0,26,42,720,0,53298,1
1043,2,31768,30831,32208,40032,30530,-2658,-1996,-3934,1722,-754,-2339,150,410,-416,1,0,26,42,760,0,53298,1
1044,2,31787,30817,32225,40033,30532,-2288,-1661,-3673,2022,-632,-5525,158,410,-416,1,0,26,42,800,0,53298,1
1045,2,31837,30799,32218,40034,30535,-2252,-1958,-3660,2144,163,-6967,164,410,-418,1,0,26,42,840,0,53298,1
1046,2,31943,30294,32243,40035,30538,-2028,861,-3843,4024,1012,-6689,181,409,-413,1,0,26,42,880,0,53298,1
1047,2,32077,30590,32403,40036,30541,-2819,-1288,-4147,2951,1966,-2973,189,411,-427,1,0,26,42,920,0,53298,1
1048,2,32092,30935,32404,40037,30544,-3273,-1295,-2810,7685,1482,-6276,198,408,-424,1,0,26,42,960,0,53298,1
1049,1,32132,30943,32400,40038,0,-2786,-1731,-2788,1769,-881,-7697,210,406,-426,1,0,26,43,0,1,53298,1
1050,2,32211,30939,32403,40039,29979,-2743,-1653,-3121,-977,-1208,-9302,207,407,-419,1,0,26,43,40,1,53298,1
1051,2,32395,30986,32448,40040,29980,-2455,-1632,-2683,2902,-2384,-9140,238,412,-426,1,0,26,43,80,1,53298,1
1052,2,32575,30981,32448,40041,29982,-2922,-802,-3569,5844,-1498,-7709,242,412,-426,1,0,26,43,120,1,53298,1
1053,2,32671,30843,32450,40042,29985,-2884,14,-3745,7076,-1102,-5694,250,414,-416,1,0,26,43,160,1,53298,1
1054,2,32666,30931,32458,40043,29987,-2719,-787,-2999,1148,-2377,-3658,255,425,-401,1,0,26,43,200,1,53298,1
1055,2,32675,30247,32478,40044,29991,-2780,-1523,-3241,-3194,-2467,-3004,267,409,-419,1,0,26,43,240,1,53298,1
1056,2,32660,30570,32484,40045,29994,-2687,-1521,-2762,-1804,-3275,-2267,260,414,-400,1,0,26,43,280,1,53298,1
1057,2,32654,30995,32530,40046,29998,-2585,-1594,-3359,-441,-3701,-1065,261,421,-403,1,0,26,43,320,1,53298,1
1058,2,32618,31623,32545,40047,30001,-2339,-1224,-3613,826,-3813,-301,268,416,-390,1,0,26,43,360,1,53298,1
1059,2,32609,30790,32571,40048,30005,-2384,-1034,-4267,-502,-2822,528,270,424,-388,1,0,26,43,400,1,53298,1
1060,2,32597,30448,32598,40049,30010,-2551,-998,-4354,-975,-1316,1698,259,425,-389,1,0,26,43,440,1,53298,1
1061,2,32588,30500,32587,40050,30014,-2848,-1024,-4354,-1560,567,2920,265,421,-395,1,0,26,43,480,1,53298,1
1062,2,32582,30510,32583,40051,30017,-3000,-1261,-3274,-2206,1419,3833,257,419,-391,1,0,26,43,520,1,53298,1
1063,2,32580,30605,32613,40052,30021,-2562,-1238,-4108,-1892,2322,4297,244,428,-406,1,0,26,43,560,1,53298,1
1064,2,32610,30858,32665,40053,30026,-2587,-740,-4278,-755,4279,5151,231,417,-403,1,0,26,43,600,1,53298,1
1065,2,32592,30887,32653,40054,30029,-2984,-1185,-3888,-1108,6022,6339,233,411,-413,1,0,26,43,640,1,53298,1
1066,2,32553,30647,32621,40055,30032,-3161,-1231,-2990,-860,5686,6607,226,416,-426,1,0,26,43,680,1,53298,1
1067,2,32501,30540,32593,40056,30035,-3108,-998,-2810,-1960,4514,6941,211,415,-427,1,0,26,43,720,1,53298,1
1068,2,32507,30806,32598,40057,30038,-2883,-1126,-2760,-2735,3099,6283,201,411,-421,1,0,26,43,760,1,53298,1
1069,2,32493,30890,32590,40058,30041,-2630,-756,-2938,-3761,1106,6654,187,413,-429,1,0,26,43,800,1,53298,1
1070,2,32516,30819,32580,40059,30043,-2456,-817,-3152,-4123,606,6587,182,404,-438,1,0,26,43,840,1,53298,1
1071,2,32554,30887,32570,40060,30046,-2621,-877,-3829,-2893,434,6223,156,410,-426,1,0,26,43,880,1,53298,1
1072,2,32509,30807,32558,40061,30049,-2490,-1265,-4371,-3111,608,6161,160,408,-432,1,0,26,43,920,1,53298,1
1073,2,32493,30782,32553,40062,30051,-2581,-891,-4092,-1319,726,5797,158,406,-434,1,0,26,43,960,1,53298,1
1074,1,32518,30812,32530,40063,0,-2306,-1401,-4160,374,878,4473,150,402,-436,1,0,26,44,0,1,53298,1
1075,2,32598,30983,32521,40064,29473,-2135,-851,-3550,-972,1651,2444,146,404,-436,1,0,26,44,40,1,53298,1
1076,2,32700,30239,32507,40065,29476,-2220,-444,-3300,-4251,983,2467,139,393,-425,1,0,26,44,80,1,53298,1
1077,2,32686,30860,32507,40066,29478,-2203,-1322,-3026,-3033,99,1842,123,391,-427,1,0,26,44,120,1,53298,1
1078,2,32611,30903,32506,40067,29481,-2007,-1248,-3079,-2722,-18,-380,134,392,-426,1,0,26,44,160,1,53298,1
1079,2,32534,30805,32515,40068,29482,-2145,-357,-3681,539,508,-1638,134,400,-426,1,0,26,44,200,1,53298,1
1080,2,32428,30917,32526,40069,29484,-2444,-458,-3698,3784,371,-1529,131,397,-423,1,0,26,44,240,1,53298,1
1081,2,32344,30725,32539,40070,29486,-2404,-370,-3613,4210,-338,-2079,140,396,-436,1,0,26,44,280,1,53298,1
1082,2,32281,30965,32555,40071,29489,-2236,-687,-3213,1717,-838,-2473,149,405,-435,1,0,26,44,320,1,53298,1
1083,2,32283,31006,32576,40072,29491,-2263,-1510,-3299,1556,-638,-3974,163,401,-437,1,0,26,44,360,1,53298,1
1084,2,32286,30995,32578,40073,29492,-2325,-1176,-3173,3992,-596,-5691,163,399,-431,1,0,26,44,400,1,53298,1
1085,2,32303,30991,32591,40074,29495,-2491,-1735,-2731,6094,-1621,-6454,184,408,-434,1,0,26,44,440,1,53298,1
1086,2,32334,31011,32609,40075,29497,-2747,1236,-3960,4997,-2503,-4741,188,400,-424,1,0,26,44,480,1,53298,1
1087,2,32375,31000,32598,40076,29499,-2833,-998,-3197,2332,-3888,-4041,189,421,-425,1,0,26,44,520,1,53298,1
1088,2,32433,30983,32596,40077,29502,-3075,-1300,-2714,-385,-3892,-5952,200,412,-426,1,0,26,44,560,1,53298,1
1089,2,32493,30993,32588,40078,29505,-2726,-1976,-2991,1207,-4588,-7872,211,415,-411,1,0,26,44,600,1,53298,1
1090,2,32583,30993,32591,40079,29508,-2593,-2082,-3257,1992,-7256,-6894,229,425,-407,1,0,26,44,640,1,53298,1
1091,2,32655,30932,32596,40080,29511,-3285,-1751,-3212,2166,-7202,-7958,238,428,-398,1,0,26,44,680,1,53298,1
1092,2,32663,30725,32599,40081,29515,-3406,-1613,-4615,864,-7369,-7558,238,430,-376,1,0,26,44,720,1,53298,1
1093,2,32643,30835,32606,40082,29519,-2935,-1065,-4174,1249,-6028,-6165,253,429,-373,1,0,26,44,760,1,53298,1
1094,2,32661,30867,32612,40083,29521,-2954,-2186,-3499,-536,-3629,-5880,262,432,-368,1,0,26,44,800,1,53298,1
1095,2,32656,30888,32618,40084,29525,-3311,-1445,-3118,2099,-2678,-5852,266,434,-362,1,0,26,44,840,1,53298,1
1096,2,32656,30905,32621,40085,29528,-3044,-1321,-3127,1797,-2693,-4884,281,427,-363,1,0,26,44,880,1,53298,1
1097,2,32640,30906,32622,40086,29531,-3034,-1173,-3024,412,-2240,-3726,284,424,-368,1,0,26,44,920,1,53298,1
1098,2,32610,30910,32621,40087,29534,-2987,-893,-2948,-655,-2196,-2444,289,425,-361,1,0,26,44,960,1,53298,1
1099,1,32546,30961,32629,40088,0,-2889,-840,-3322,-1912,-1792,-550,281,431,-353,1,0,26,45,0,1,53298,1
1100,2,32503,30986,32632,40089,28967,-2825,-745,-3156,-1148,-576,1776,281,433,-351,1,0,26,45,40,1,53298,1
1101,2,32481,30992,32639,40090,28970,-3138,-1243,-3252,-517,617,3658,276,426,-360,1,0,26,45,80,1,53298,1
1102,2,32457,30838,32646,40091,28972,-3036,-1675,-3523,-471,1745,4506,266,432,-362,1,0,26,45,120,1,53298,1
1103,2,32444,30396,32626,40092,28975,-3129,-1589,-3641,64,3246,4948,257,437,-369,1,0,26,45,160,1,53298,1
1104,2,32448,30149,32623,40093,28978,-3206,-1681,-3802,38,4323,5206,258,434,-368,1,0,26,45,200,1,53298,1
1105,2,32439,30209,32613,40094,28982,-3102,-1542,-3700,39,5261,5813,240,426,-376,1,0,26,45,240,1,53298,1
1106,2,32440,30144,32605,40095,28985,-3058,-1368,-2749,212,5820,6139,239,429,-389,1,0,26,45,280,1,53298,1
1107,2,32470,30177,32608,40096,28988,-3278,-1223,-2991,664,6529,6487,224,422,-394,1,0,26,45,320,1,53298,1
1108,2,32450,30212,32608,40097,28991,-2954,-599,-3845,-686,6209,6922,208,426,-410,1,0,26,45,360,1,53298,1
1109,2,32368,30215,32607,40098,28992,-3362,-708,-2792,-4493,5109,7585,204,428,-412,1,0,26,45,400,1,53298,1
1110,2,32296,30239,32597,40099,28994,-2798,-1443,-3829,-7265,4662,7787,196,410,-414,1,0,26,45,440,1,53298,1
1111,2,32244,30430,32585,40100,28996,-2902,-1252,-3290,-4741,5067,6852,170,418,-420,1,0,26,45,480,1,53298,1
1112,2,32205,30904,32576,40101,28998,-2706,-1177,-3088,-2876,3986,6773,171,411,-421,1,0,26,45,520,1,53298,1
1113,2,32206,30923,32575,40102,29000,-2355,-1421,-3435,-1962,3264,6595,157,401,-423,1,0,26,45,560,1,53298,1
1114,2,32231,30934,32565,40103,29002,-2425,-981,-3495,-2298,2066,6431,140,394,-426,1,0,26,45,600,1,53298,1
1115,2,32245,30926,32548,40104,29004,-2547,-405,-3257,-4302,1404,5202,145,391,-425,1,0,26,45,640,1,53298,1
1116,2,32236,30883,32533,40105,29007,-2284,-540,-3713,-6294,267,4600,130,398,-428,1,0,26,45,680,1,53298,1
1117,2,32202,30802,32519,40106,29009,-2259,-631,-3891,-3448,1167,3930,126,398,-420,1,0,26,45,720,1,53298,1
1118,2,32149,30662,32515,40107,29011,-2065,-695,-3886,917,1426,3391,128,390,-430,1,0,26,45,760,1,53298,1
1119,2,32112,30989,32522,40108,29014,-2002,-657,-3880,1315,2416,2703,128,388,-444,1,0,26,45,800,1,53298,1
1120,2,32074,30984,32522,40109,29016,-2068,-731,-3499,488,2755,1778,115,381,-437,1,0,26,45,840,1,53298,1
1121,2,32056,30739,32525,40110,29019,-1986,-769,-3067,313,1794,457,117,379,-445,1,0,26,45,880,1,53298,1
1122,2,32046,30585,32534,40111,29022,-1972,-658,-3184,116,990,-1151,125,375,-441,1,0,26,45,920,1,53298,1
1123,2,32044,30822,32541,40112,29024,-2275,-453,-3274,645,224,-2438,125,381,-443,1,0,26,45,960,1,53298,1
1124,1,32030,30896,32542,40113,0,-2245,-405,-3284,1738,-1557,-3574,135,391,-439,1,0,26,46,0,1,53298,1
1125,2,32029,30834,32533,40114,28461,-2118,-375,-3754,1106,-2181,-4209,142,382,-446,1,0,26,46,40,1,53298,1
1126,2,32062,30881,32535,40115,28463,-2277,-1272,-3536,1414,-2112,-5356,142,386,-438,1,0,26,46,80,1,53298,1
1127,2,32085,30861,32535,40116,28465,-2252,-631,-3795,716,-3069,-6316,147,397,-425,1,0,26,46,120,1,53298,1
1128,2,32155,30869,32536,40117,28467,-2365,-327,-3750,1780,-2713,-6438,166,400,-428,1,0,26,46,160,1,53298,1
1129,2,32231,30852,32543,40118,28469,-2621,377,-3998,2184,-2314,-5527,167,407,-431,1,0,26,46,200,1,53298,1
1130,2,32301,30844,32529,40119,28472,-2674,-441,-3749,3166,-1648,-4668,181,415,-427,1,0,26,46,240,1,53298,1
1131,2,32375,30959,32523,40120,28474,-2719,-1014,-3761,2964,99,-5689,186,412,-424,1,0,26,46,280,1,53298,1
1132,2,32441,30978,32513,40121,28477,-2436,-994,-3062,3372,165,-6062,201,405,-431,1,0,26,46,320,1,53298,1
1133,2,32515,30631,32510,40122,28479,-2190,-576,-3112,1910,-1084,-4740,205,403,-433,1,0,26,46,360,1,53298,1
1134,2,32589,30123,32485,40123,28482,-2296,-602,-3679,12,-1185,-3238,204,402,-430,1,0,26,46,400,1,53298,1
1135,2,32596,30503,32517,40124,28484,-2723,-748,-3290,-2005,-1252,-1652,197,411,-429,1,0,26,46,440,1,53298,1
1136,2,32573,30979,32528,40125,28486,-2951,-1178,-3011,-2357,-2621,-842,209,411,-417,1,0,26,46,480,1,53298,1
1137,2,32571,30923,32541,40126,28489,-3002,-1669,-3414,-549,-3239,-3064,204,414,-412,1,0,26,46,520,1,53298,1
1138,2,32592,30979,32586,40127,28492,-2798,-1043,-2913,2232,-3987,-4736,219,423,-425,1,0,26,46,560,1,53298,1
