sensorStatus,cap1,cap2,cap3,counter,microseconds_since_last_tick,accX,accY,accZ,gyroX,gyroY,gyroZ,magnetX,magnetY,magnetZ,day,hour,min,sec,msec,sync,battery_fuel,crc_good
1,32827,30018,31696,59239,2481,-4188,-894,-1624,61,64,-6,216,452,-256,1,0,39,31,40,0,53298,1
2,32831,30015,31694,59240,2485,-4219,-886,-1621,101,-25,24,213,447,-247,1,0,39,31,80,0,53298,1
2,32842,30033,31693,59241,2489,-4209,-869,-1610,-54,16,-24,211,451,-259,1,0,39,31,120,0,53298,1
2,32775,30038,31697,59242,2493,-4213,-877,-1596,54,255,-246,217,459,-245,1,0,39,31,160,0,53298,1
2,32629,30043,31699,59243,2496,-4213,-864,-1582,425,483,-406,212,450,-244,1,0,39,31,200,0,53298,1
2,32494,30040,31699,59244,2500,-4192,-894,-1610,358,526,-423,217,451,-251,1,0,39,31,240,0,53298,1
2,32337,30020,31704,59245,2502,-4204,-917,-1645,219,452,-412,224,456,-256,1,0,39,31,280,0,53298,1
2,32273,30031,31703,59246,2505,-4175,-923,-1644,269,328,-284,214,444,-258,1,0,39,31,320,0,53298,1
2,32210,30033,31703,59247,2509,-4183,-949,-1674,181,221,-210,230,446,-252,1,0,39,31,360,0,53298,1
2,32141,30044,31706,59248,2512,-4180,-923,-1641,309,292,-267,221,449,-267,1,0,39,31,400,0,53298,1
2,32061,30061,31706,59249,2515,-4177,-916,-1630,332,428,-379,216,454,-262,1,0,39,31,440,0,53298,1
2,31935,30063,31706,59250,2518,-4178,-944,-1654,362,564,-465,227,455,-253,1,0,39,31,480,0,53298,1
2,31818,30075,31706,59251,2522,-4176,-961,-1662,316,698,-563,219,445,-255,1,0,39,31,520,0,53298,1
2,31707,30072,31712,59252,2526,-4183,-981,-1683,441,741,-653,221,457,-251,1,0,39,31,560,0,53298,1
2,31606,30065,31711,59253,2529,-4159,-1006,-1711,516,632,-556,217,441,-257,1,0,39,31,600,0,53298,1
2,31547,30071,31713,59254,2532,-4146,-1038,-1726,359,458,-375,213,447,-265,1,0,39,31,640,0,53298,1
2,31517,30068,31717,59255,2536,-4126,-1033,-1755,209,252,-221,227,457,-259,1,0,39,31,680,0,53298,1
2,31491,30072,31716,59256,2540,-4142,-1045,-1754,206,25,-69,223,451,-269,1,0,39,31,720,0,53298,1
2,31512,30067,31715,59257,2543,-4132,-1053,-1742,108,-92,63,221,455,-259,1,0,39,31,760,0,53298,1
2,31517,30065,31716,59258,2546,-4152,-1027,-1719,-12,-40,40,226,450,-266,1,0,39,31,800,0,53298,1
2,31510,30073,31717,59259,2549,-4137,-1032,-1713,52,129,-130,228,454,-260,1,0,39,31,840,0,53298,1
2,31497,30070,31716,59260,2551,-4140,-1036,-1717,171,59,-257,227,449,-263,1,0,39,31,880,0,53298,1
2,31459,30061,31713,59261,2554,-4157,-1037,-1728,316,383,-284,223,455,-265,1,0,39,31,920,0,53298,1
2,31433,30070,31712,59262,2554,-4137,-1060,-1752,282,380,-294,222,452,-260,1,0,39,31,960,0,53298,1
1,31411,30070,31713,59263,1972,-4130,-1058,-1765,107,285,-242,230,452,-254,1,0,39,32,0,0,53298,1
2,31385,30074,31715,59264,1975,-4117,-1098,-1781,56,142,-101,227,455,-263,1,0,39,32,40,0,53298,1
2,31393,30083,31711,59265,1979,-4120,-1098,-1784,27,-10,25,222,452,-266,1,0,39,32,80,0,53298,1
2,31398,30076,31717,59266,1982,-4116,-1075,-1778,-45,-114,91,225,447,-263,1,0,39,32,120,0,53298,1
2,31406,30075,31715,59267,1985,-4121,-1075,-1785,-50,-114,73,229,457,-261,1,0,39,32,160,0,53298,1
2,31402,30085,31714,59268,1988,-4120,-1061,-1767,2,-20,4,230,444,-262,1,0,39,32,200,0,53298,1
2,31397,30079,31719,59269,1990,-4131,-1065,-1748,31,60,-20,222,452,-268,1,0,39,32,240,0,53298,1
2,31386,30075,31719,59270,1993,-4121,-1068,-1749,86,76,-46,222,450,-262,1,0,39,32,280,0,53298,1
2,31379,30075,31713,59271,1996,-4126,-1075,-1766,47,33,-43,224,452,-272,1,0,39,32,320,0,53298,1
2,31370,30077,31714,59272,1999,-4125,-1086,-1768,-21,-15,6,232,450,-272,1,0,39,32,360,0,53298,1
2,31388,30082,31717,59273,2002,-4131,-1089,-1767,-7,-29,41,228,448,-266,1,0,39,32,400,0,53298,1
2,31387,30087,31718,59274,2006,-4141,-1075,-1767,-46,-39,45,226,456,-254,1,0,39,32,440,0,53298,1
2,31395,30074,31717,59275,2010,-4117,-1076,-1759,-77,-50,65,226,452,-262,1,0,39,32,480,0,53298,1
2,31384,30072,31712,59276,2013,-4133,-1075,-1767,2,-33,41,229,451,-263,1,0,39,32,520,0,53298,1
2,31386,30063,31716,59277,2017,-4125,-1062,-1761,35,1,-3,227,455,-259,1,0,39,32,560,0,53298,1
2,31387,30060,31716,59278,2021,-4121,-1065,-1754,-13,8,-11,220,450,-264,1,0,39,32,600,0,53298,1
2,31382,30060,31715,59279,2025,-4115,-1072,-1765,9,6,6,223,453,-259,1,0,39,32,640,0,53298,1
2,31381,30057,31712,59280,2029,-4139,-1073,-1768,22,-14,11,224,456,-260,1,0,39,32,680,0,53298,1
2,31383,30062,31715,59281,2032,-4125,-1077,-1754,-12,-9,16,235,445,-269,1,0,39,32,720,0,53298,1
2,31377,30066,31717,59282,2035,-4126,-1068,-1740,3,2,19,236,454,-264,1,0,39,32,760,0,53298,1
2,31386,30065,31717,59283,2039,-4131,-1068,-1763,-6,-6,11,221,451,-263,1,0,39,32,800,0,53298,1
2,31372,30061,31714,59284,2043,-4122,-1070,-1773,11,-16,6,227,449,-271,1,0,39,32,840,0,53298,1
2,31370,30065,31714,59285,2047,-4119,-1070,-1753,-2,-22,7,212,452,-252,1,0,39,32,880,0,53298,1
2,31374,30055,31715,59286,2050,-4120,-1066,-1766,-27,-19,25,223,447,-267,1,0,39,32,920,0,53298,1
2,31383,30051,31711,59287,2050,-4118,-1072,-1779,-7,-19,36,231,449,-267,1,0,39,32,960,0,53298,1
1,31372,30052,31712,59288,1466,-4132,-1077,-1756,-32,-27,31,227,461,-271,1,0,39,33,0,0,53298,1
2,31377,30054,31717,59289,1470,-4125,-1070,-1753,-15,-7,20,229,447,-269,1,0,39,33,40,0,53298,1
2,31376,30058,31712,59290,1474,-4130,-1079,-1778,1,-10,11,224,452,-266,1,0,39,33,80,0,53298,1
2,31378,30060,31713,59291,1479,-4128,-1073,-1780,5,-21,-1,224,452,-262,1,0,39,33,120,0,53298,1
2,31384,30066,31717,59292,1483,-4125,-1080,-1754,-8,-20,10,231,449,-269,1,0,39,33,160,0,53298,1
2,31387,30076,31717,59293,1487,-4131,-1081,-1765,-19,-8,21,229,451,-269,1,0,39,33,200,0,53298,1
2,31387,30080,31715,59294,1490,-4128,-1075,-1767,-20,-15,24,219,453,-255,1,0,39,33,240,0,53298,1
2,31387,30080,31717,59295,1494,-4126,-1080,-1755,-34,-22,36,220,454,-260,1,0,39,33,280,0,53298,1
2,31395,30078,31714,59296,1498,-4131,-1073,-1752,1,-15,13,220,452,-270,1,0,39,33,320,0,53298,1
2,31399,30080,31715,59297,1502,-4126,-1083,-1762,11,0,-8,227,447,-263,1,0,39,33,360,0,53298,1
2,31399,30084,31715,59298,1506,-4116,-1065,-1762,-24,-7,0,219,453,-261,1,0,39,33,400,0,53298,1
2,31400,30089,31715,59299,1509,-4111,-1070,-1771,-13,-12,19,221,449,-275,1,0,39,33,440,0,53298,1
2,31408,30091,31716,59300,1513,-4120,-1076,-1759,-48,-54,51,226,450,-270,1,0,39,33,480,0,53298,1
2,31394,30090,31714,59301,1517,-4125,-1073,-1773,-115,-83,93,234,450,-268,1,0,39,33,520,0,53298,1
2,31416,30084,31717,59302,1521,-4121,-1074,-1569,-271,-183,175,228,458,-266,1,0,39,33,560,0,53298,1
2,31470,30090,31715,59303,1525,-4075,-1077,-1947,-563,-377,309,226,454,-258,1,0,39,33,600,0,53298,1
2,31637,30031,31714,59304,1528,-4129,-1047,-1865,-1888,-742,605,211,447,-255,1,0,39,33,640,0,53298,1
2,31839,30030,31721,59305,1533,-4108,-1025,-2173,-2967,-726,345,227,455,-255,1,0,39,33,680,0,53298,1
2,32174,29996,31734,59306,1538,-4056,-1118,-2012,-2728,-870,388,222,446,-252,1,0,39,33,720,0,53298,1
2,32881,30030,31735,59307,1543,-4373,-793,-1056,-4758,-1141,409,216,452,-256,1,0,39,33,760,0,53298,1
2,33211,30009,31721,59308,1548,-4376,-1157,-1872,-4528,-698,926,223,455,-251,1,0,39,33,800,0,53298,1
2,34171,30093,31743,59309,1553,-3703,-835,-1742,-3332,-100,615,212,452,-250,1,0,39,33,840,0,53298,1
2,35059,29966,31755,59310,1558,-4368,-1144,-1544,-795,452,220,219,455,-263,1,0,39,33,880,0,53298,1
2,35091,29916,31768,59311,1564,-4133,-694,-1940,1485,1241,-441,225,453,-265,1,0,39,33,920,0,53298,1
2,34517,29915,31759,59312,1564,-4149,-756,-1766,-398,1096,-1522,228,452,-258,1,0,39,33,960,0,53298,1
1,34019,30064,31786,59313,960,-4182,-1027,-1902,-1163,410,-1465,222,450,-266,1,0,39,34,0,0,53298,1
2,33637,30075,31786,59314,965,-4271,-1064,-2020,-136,339,-1052,230,456,-264,1,0,39,34,40,0,53298,1
2,33297,30067,31785,59315,970,-4091,-889,-2379,684,724,-446,231,461,-263,1,0,39,34,80,0,53298,1
2,33172,30075,31784,59316,974,-3787,-412,-2866,1832,2526,815,225,451,-271,1,0,39,34,120,0,53298,1
2,33152,30131,31786,59317,979,-3429,-121,-1912,4357,5005,2593,225,443,-269,1,0,39,34,160,0,53298,1
2,33041,30112,31775,59318,984,-3773,374,-2077,1802,5642,4148,221,457,-277,1,0,39,34,200,0,53298,1
2,32864,30119,31752,59319,988,-3813,-185,-2393,-651,5900,5242,215,461,-291,1,0,39,34,240,0,53298,1
2,32794,30137,31744,59320,992,-4020,-515,-2211,1185,5626,5314,206,458,-310,1,0,39,34,280,0,53298,1
2,32751,30129,31737,59321,996,-4338,-869,-2018,633,4633,5196,193,453,-305,1,0,39,34,320,0,53298,1
2,32680,30116,31725,59322,1000,-4239,-774,-1913,1258,3257,4417,196,452,-304,1,0,39,34,360,0,53298,1
2,32583,30118,31714,59323,1003,-4233,-552,-1953,-283,1789,4230,180,446,-310,1,0,39,34,400,0,53298,1
2,32520,30126,31705,59324,1006,-3975,-501,-2504,-2009,1389,4933,167,451,-315,1,0,39,34,440,0,53298,1
2,32626,30123,31701,59325,1010,-3587,60,-2465,-2527,2192,5861,172,442,-326,1,0,39,34,480,0,53298,1
2,32739,30124,31700,59326,1014,-3528,-227,-2408,-869,3291,6463,163,435,-325,1,0,39,34,520,0,53298,1
2,32418,30125,31705,59327,1016,-3828,-2,-2034,-187,3273,6139,149,441,-333,1,0,39,34,560,0,53298,1
2,31826,30147,31698,59328,1019,-4122,-260,-1846,-2645,599,5148,133,439,-337,1,0,39,34,600,0,53298,1
2,31705,30125,31685,59329,1023,-4276,-1019,-2386,-4524,-1186,1955,140,448,-328,1,0,39,34,640,0,53298,1
2,31981,30106,31685,59330,1026,-3866,-1270,-2596,-815,-1587,-1078,146,446,-320,1,0,39,34,680,0,53298,1
2,32492,30104,31687,59331,1029,-3187,-203,-2902,4227,-142,-1251,145,445,-321,1,0,39,34,720,0,53298,1
2,32743,30134,31691,59332,1033,-3150,261,-3048,3404,832,-846,141,443,-321,1,0,39,34,760,0,53298,1
2,32721,30152,31704,59333,1036,-3286,761,-3288,1225,1719,136,141,437,-329,1,0,39,34,800,0,53298,1
2,32348,30149,31715,59334,1040,-3473,425,-2666,396,1716,839,143,443,-337,1,0,39,34,840,0,53298,1
2,32139,30162,31707,59335,1043,-3568,488,-2509,-2868,857,446,144,442,-336,1,0,39,34,880,0,53298,1
2,31994,30138,31699,59336,1048,-3635,-437,-2634,-2680,572,-159,138,440,-328,1,0,39,34,920,0,53298,1
2,31801,30189,31697,59337,1048,-3500,-240,-2632,-481,1060,-624,143,439,-335,1,0,39,34,960,0,53298,1
1,31638,30212,31714,59338,455,-3553,202,-2439,1884,1506,-861,140,438,-336,1,0,39,35,0,0,53298,1
2,31685,30203,31726,59339,459,-3484,-16,-2596,1442,1210,-1354,146,444,-334,1,0,39,35,40,0,53298,1
2,31593,30225,31715,59340,463,-3403,-26,-2571,514,1090,-1807,147,445,-341,1,0,39,35,80,0,53298,1
2,31507,30237,31709,59341,467,-3429,148,-2543,295,697,-1688,138,442,-346,1,0,39,35,120,0,53298,1
2,31428,30242,31703,59342,471,-3331,-150,-2631,828,529,-1550,153,437,-339,1,0,39,35,160,0,53298,1
2,31468,30240,31708,59343,474,-3395,-212,-2502,2263,305,-1397,158,446,-350,1,0,39,35,200,0,53298,1
2,31625,30246,31709,59344,477,-3507,-182,-2632,2777,-176,-1597,161,433,-343,1,0,39,35,240,0,53298,1
2,31733,30246,31714,59345,481,-3422,-150,-2933,1971,-333,-2026,160,438,-344,1,0,39,35,280,0,53298,1
2,31874,30248,31712,59346,484,-3432,16,-2838,1612,-133,-2021,165,447,-337,1,0,39,35,320,0,53298,1
2,32035,30249,31712,59347,488,-3481,-115,-2919,1087,83,-1711,163,437,-345,1,0,39,35,360,0,53298,1
2,32156,30254,31709,59348,491,-3467,-121,-2748,885,183,-1233,164,442,-344,1,0,39,35,400,0,53298,1
2,32264,30249,31712,59349,496,-3493,159,-2902,1164,158,-427,165,437,-347,1,0,39,35,440,0,53298,1
2,32172,30260,31717,59350,500,-3419,186,-3140,728,476,411,181,439,-345,1,0,39,35,480,0,53298,1
2,32218,30280,31714,59351,503,-3450,53,-2851,-98,625,996,174,434,-344,1,0,39,35,520,0,53298,1
2,32159,30265,31705,59352,507,-3370,-61,-2745,-637,853,1646,168,440,-346,1,0,39,35,560,0,53298,1
2,32115,30290,31708,59353,511,-3558,6,-2697,-1193,904,2303,167,443,-351,1,0,39,35,600,0,53298,1
2,32080,30254,31700,59354,514,-3221,-204,-2657,-2449,514,2345,158,434,-354,1,0,39,35,640,0,53298,1
2,32007,30259,31695,59355,518,-3473,-40,-3010,-2835,476,2236,153,431,-351,1,0,39,35,680,0,53298,1
2,31914,30265,31693,59356,522,-3525,153,-2757,-3424,46,2341,147,439,-347,1,0,39,35,720,0,53298,1
2,31813,30257,31681,59357,526,-3339,80,-2913,-4616,-168,2751,155,441,-337,1,0,39,35,760,0,53298,1
2,31687,30245,31680,59358,531,-3472,-83,-2963,-3463,271,2895,131,441,-343,1,0,39,35,800,0,53298,1
2,31612,30247,31680,59359,535,-3297,240,-2762,-435,1150,3009,136,440,-346,1,0,39,35,840,0,53298,1
2,31541,30242,31682,59360,538,-3092,364,-2702,-715,1281,2987,137,437,-339,1,0,39,35,880,0,53298,1
2,31465,30239,31678,59361,542,-3350,121,-2977,-1685,1162,2781,119,433,-347,1,0,39,35,920,0,53298,1
2,31390,30237,31678,59362,542,-3084,464,-3057,-359,1628,2604,129,431,-347,1,0,39,35,960,0,53298,1
1,31330,30235,31683,59363,0,-3128,763,-3125,680,2181,2913,123,429,-353,1,0,39,36,0,0,53298,1
2,31284,30244,31683,59364,39953,-3110,683,-3393,-1106,2737,3151,121,427,-353,1,0,39,36,40,0,53298,1
2,31200,30192,31672,59365,39957,-3401,885,-2493,-2260,2801,3331,111,421,-359,1,0,39,36,80,0,53298,1
2,31060,30102,31649,59366,39961,-3367,446,-2416,-5082,629,3445,108,426,-350,1,0,39,36,120,0,53298,1
2,31002,30095,31635,59367,39965,-2870,9,-2967,-5150,393,2500,104,418,-352,1,0,39,36,160,0,53298,1
2,30931,30096,31642,59368,39969,-2834,320,-2506,-353,891,1885,99,425,-359,1,0,39,36,200,0,53298,1
2,30893,30095,31649,59369,39972,-2948,685,-2527,1698,804,1350,96,424,-354,1,0,39,36,240,0,53298,1
2,30900,30107,31653,59370,39975,-2906,445,-2487,1417,-158,524,92,414,-360,1,0,39,36,280,0,53298,1
2,30905,30104,31650,59371,39978,-2871,506,-2911,169,-828,-366,99,419,-351,1,0,39,36,320,0,53298,1
2,30921,30098,31658,59372,39982,-2905,1117,-3128,95,-694,-806,98,416,-352,1,0,39,36,360,0,53298,1
2,30960,30111,31663,59373,39985,-2814,709,-3436,1409,228,-126,104,418,-350,1,0,39,36,400,0,53298,1
2,30971,30122,31675,59374,39987,-2998,624,-3048,3512,893,34,97,421,-363,1,0,39,36,440,0,53298,1
2,30990,30108,31686,59375,39990,-3012,742,-2879,3229,248,-285,96,418,-358,1,0,39,36,480,0,53298,1
2,31050,30113,31687,59376,39993,-2822,562,-2806,715,-388,-714,94,416,-366,1,0,39,36,520,0,53298,1
2,31067,30123,31685,59377,39996,-2919,252,-2644,-28,-617,-1000,105,425,-359,1,0,39,36,560,0,53298,1
1,31056,30111,31678,59378,39999,-3035,514,-2608,-1212,-1333,-2128,103,421,-365,1,0,39,36,600,0,53298,1
1,31114,30113,31672,59379,1,-2942,419,-2891,-2060,-2183,-2735,109,423,-351,1,0,39,36,640,0,53298,1
1,31252,30113,31674,59380,4,-3078,768,-3218,-331,-1582,-2421,120,430,-354,1,0,39,36,680,0,53298,1
1,31453,30154,31691,59381,7,-3195,1230,-3132,2202,-666,-1520,112,434,-356,1,0,39,36,720,0,53298,1
1,31226,30165,31679,59382,10,-3216,676,-2917,1487,-308,-1245,120,428,-352,1,0,39,36,760,0,53298,1
1,31056,30149,31674,59383,14,-3246,270,-2664,-258,-729,-1487,120,438,-360,1,0,39,36,800,0,53298,1
1,31132,30154,31668,59384,17,-3025,11,-2765,-1109,-899,-1634,119,427,-355,1,0,39,36,840,0,53298,1
1,31347,30157,31675,59385,20,-2953,435,-2901,919,-569,-1666,118,424,-348,1,0,39,36,880,0,53298,1
1,31384,30165,31680,59386,22,-3105,445,-2898,2058,-169,-1249,127,421,-339,1,0,39,36,920,0,53298,1
1,31520,30174,31687,59387,25,-3248,320,-2913,2345,-17,-1176,123,439,-359,1,0,39,36,960,0,53298,1
1,31580,30178,31705,59388,0,-3350,315,-2900,1632,-306,-1487,129,425,-361,1,0,39,37,0,1,53298,1
2,31515,30192,31698,59389,39448,-3335,134,-2832,1568,-450,-1692,129,437,-367,1,0,39,37,40,1,53298,1
2,31550,30191,31714,59390,39450,-3242,115,-2866,2796,-653,-2004,143,433,-355,1,0,39,37,80,1,53298,1
2,31695,30167,31713,59391,39454,-3195,58,-2729,2211,-697,-2129,139,429,-365,1,0,39,37,120,1,53298,1
2,31787,30182,31724,59392,39457,-3160,-207,-2868,1336,-899,-2414,142,436,-364,1,0,39,37,160,1,53298,1
2,31819,30159,31730,59393,39460,-3278,16,-2818,2869,-651,-2468,137,441,-361,1,0,39,37,200,1,53298,1
2,31785,30192,31727,59394,39464,-3530,216,-2344,3387,-1288,-2568,151,441,-361,1,0,39,37,240,1,53298,1
2,31735,30238,31714,59395,39467,-3156,-674,-3048,-3693,-3193,-3875,163,447,-343,1,0,39,37,280,1,53298,1
2,31593,30275,31717,59396,39471,-3409,920,-3356,-1344,-1054,-2114,161,447,-345,1,0,39,37,320,1,53298,1
2,31535,30285,31725,59397,39474,-3272,668,-3793,1937,-377,-635,160,442,-342,1,0,39,37,360,1,53298,1
2,31645,30320,31710,59398,39477,-3355,1195,-3493,1329,1863,1312,155,435,-347,1,0,39,37,400,1,53298,1
2,31776,30266,31704,59399,39480,-3596,526,-2770,-1858,2416,2880,146,444,-348,1,0,39,37,440,1,53298,1
2,31846,30229,31690,59400,39483,-3299,178,-3119,-2269,3078,3618,152,438,-352,1,0,39,37,480,1,53298,1
2,31895,30238,31694,59401,39487,-3460,-233,-2436,-2352,2364,3602,149,439,-365,1,0,39,37,520,1,53298,1
2,31825,30215,31696,59402,39490,-3205,-122,-2029,-2141,448,2987,147,431,-357,1,0,39,37,560,1,53298,1
2,31803,30130,31686,59403,39494,-3161,202,-2626,-5579,1,3548,129,423,-361,1,0,39,37,600,1,53298,1
2,31740,30200,31680,59404,39498,-3252,178,-2967,-4738,161,4382,131,427,-355,1,0,39,37,640,1,53298,1
2,31665,30189,31680,59405,39502,-3229,381,-2673,-801,488,4485,115,429,-353,1,0,39,37,680,1,53298,1
2,31594,30190,31686,59406,39507,-3328,588,-2790,-1530,398,4223,112,428,-352,1,0,39,37,720,1,53298,1
2,31523,30170,31690,59407,39511,-3077,424,-2905,-1074,-164,3356,100,422,-356,1,0,39,37,760,1,53298,1
2,31463,30164,31695,59408,39514,-3044,673,-2856,-229,123,2903,107,419,-353,1,0,39,37,800,1,53298,1
2,31379,30175,31701,59409,39518,-2909,813,-3017,-106,283,2733,98,418,-348,1,0,39,37,840,1,53298,1
2,31322,30192,31711,59410,39522,-2804,676,-3473,-206,1208,3225,94,416,-344,1,0,39,37,880,1,53298,1
2,31204,30200,31719,59411,39527,-3090,605,-3096,2035,2225,3542,88,414,-352,1,0,39,37,920,1,53298,1
2,31100,30191,31728,59412,39531,-3089,817,-2838,1248,2196,2617,91,411,-361,1,0,39,37,960,1,53298,1
1,31007,30154,31715,59413,0,-2999,331,-2595,-3538,61,1727,87,415,-363,1,0,39,38,0,1,53298,1
2,30963,30151,31708,59414,38944,-2855,306,-2151,-4779,-1175,441,80,416,-352,1,0,39,38,40,1,53298,1
2,30966,30152,31698,59415,38948,-2450,329,-2820,-2492,-1475,-553,83,415,-353,1,0,39,38,80,1,53298,1
2,30976,30140,31700,59416,38952,-2860,575,-2825,1492,-441,-731,84,408,-360,1,0,39,38,120,1,53298,1
2,31000,30144,31703,59417,38956,-3161,414,-2862,2352,-735,-1616,88,412,-350,1,0,39,38,160,1,53298,1
2,31017,30145,31704,59418,38960,-3141,515,-2741,3070,-1290,-2630,90,422,-358,1,0,39,38,200,1,53298,1
2,31108,30144,31717,59419,38965,-3141,599,-2698,1816,-1589,-3648,103,417,-353,1,0,39,38,240,1,53298,1
2,31193,30162,31717,59420,38969,-3057,944,-2884,2128,-1795,-3933,100,420,-352,1,0,39,38,280,1,53298,1
2,31295,30165,31726,59421,38974,-3235,278,-3118,2823,-1692,-3912,106,428,-338,1,0,39,38,320,1,53298,1
2,31338,30172,31731,59422,38978,-3227,454,-3141,3396,-1134,-3895,114,430,-356,1,0,39,38,360,1,53298,1
2,31355,30170,31735,59423,38982,-3170,375,-3176,3195,-958,-4283,122,428,-354,1,0,39,38,400,1,53298,1
2,31402,30180,31735,59424,38986,-3237,349,-3001,2389,-594,-4319,127,433,-349,1,0,39,38,440,1,53298,1
2,31401,30152,31720,59425,38991,-3274,-110,-2960,776,-813,-4008,126,434,-346,1,0,39,38,480,1,53298,1
2,31522,30131,31712,59426,38995,-3283,-715,-2962,554,-515,-4734,145,439,-351,1,0,39,38,520,1,53298,1
2,31892,30090,31702,59427,38999,-3320,-888,-2810,2031,-641,-5964,149,429,-347,1,0,39,38,560,1,53298,1
2,32155,30120,31710,59428,39003,-3733,843,-2584,3499,-1415,-6413,163,437,-349,1,0,39,38,600,1,53298,1
2,31875,30110,31720,59429,39007,-3510,385,-2797,5014,-1199,-5267,174,448,-348,1,0,39,38,640,1,53298,1
2,31660,30097,31724,59430,39011,-3418,1063,-3095,4763,-1088,-3574,178,436,-346,1,0,39,38,680,1,53298,1
2,31613,30094,31722,59431,39015,-3366,1095,-3505,-164,-387,-1742,176,442,-340,1,0,39,38,720,1,53298,1
2,31694,30082,31707,59432,39019,-3172,674,-3284,-3690,356,303,178,446,-354,1,0,39,38,760,1,53298,1
2,31953,30076,31701,59433,39024,-3101,362,-3211,-3740,1653,2752,170,444,-346,1,0,39,38,800,1,53298,1
2,32285,30074,31700,59434,39027,-3516,310,-2474,-407,2744,4982,160,442,-340,1,0,39,38,840,1,53298,1
2,32310,30063,31712,59435,39032,-4190,300,-1032,538,-522,5306,159,433,-357,1,0,39,38,880,1,53298,1
2,31931,30071,31689,59436,39036,-3248,-448,-3309,-9546,-1722,3776,147,437,-347,1,0,39,38,920,1,53298,1
2,31773,30088,31689,59437,39040,-3357,497,-3189,-5492,-1138,4445,144,436,-344,1,0,39,38,960,1,53298,1
1,31519,30079,31692,59438,0,-3421,533,-3031,-2087,272,5613,130,440,-342,1,0,39,39,0,0,53298,1
2,31371,30088,31702,59439,38439,-3237,488,-3526,-176,1486,6794,124,428,-348,1,0,39,39,40,0,53298,1
2,31229,30100,31716,59440,38443,-3225,368,-4044,997,3368,7374,112,434,-354,1,0,39,39,80,0,53298,1
2,30997,30102,31725,59441,38448,-4466,1198,150,105,4192,6494,108,430,-352,1,0,39,39,120,0,53298,1
2,30918,30037,31670,59442,38453,-3249,-1151,-3052,-10484,-869,4753,105,421,-353,1,0,39,39,160,0,53298,1
2,30900,30016,31659,59443,38458,-3085,-1409,-1827,-7227,-1505,1635,95,417,-341,1,0,39,39,200,0,53298,1
2,30931,30030,31667,59444,38463,-2769,-368,-1998,15,-1858,-892,94,424,-336,1,0,39,39,240,0,53298,1
2,30999,30026,31675,59445,38468,-2675,-393,-2520,6123,-1871,-2447,99,425,-345,1,0,39,39,280,0,53298,1
2,31265,30047,31703,59446,38472,-3056,454,-2895,6952,-1772,-4199,107,423,-347,1,0,39,39,320,0,53298,1
2,31493,30046,31711,59447,38476,-3236,1040,-2980,6672,-2468,-3238,109,427,-341,1,0,39,39,360,0,53298,1
2,31547,30051,31717,59448,38481,-3453,436,-3437,-169,-2034,-3574,119,429,-337,1,0,39,39,400,0,53298,1
2,31478,30077,31725,59449,38486,-3568,270,-2954,1148,-1504,-3609,120,430,-342,1,0,39,39,440,0,53298,1
2,31386,30087,31727,59450,38491,-3582,-42,-2970,1736,-1516,-3923,132,430,-342,1,0,39,39,480,0,53298,1
2,31360,30071,31729,59451,38497,-3490,4,-2589,1530,-1270,-4219,136,440,-338,1,0,39,39,520,0,53298,1
2,31420,30054,31720,59452,38501,-3475,-387,-2861,-901,-1386,-5026,138,434,-340,1,0,39,39,560,0,53298,1
2,31574,30043,31692,59453,38505,-3473,-604,-2851,-1096,-1156,-6396,150,440,-332,1,0,39,39,600,0,53298,1
2,31953,30042,31693,59454,38509,-3724,427,-2088,2398,-454,-6604,154,440,-322,1,0,39,39,640,0,53298,1
2,31816,30032,31695,59455,38513,-3362,186,-2912,4605,-579,-4869,164,446,-322,1,0,39,39,680,0,53298,1
2,31690,30034,31706,59456,38518,-3529,656,-2998,5395,404,-3769,179,443,-329,1,0,39,39,720,0,53298,1
2,31543,30034,31711,59457,38523,-3560,487,-2692,3188,914,-2484,182,438,-336,1,0,39,39,760,0,53298,1
2,31422,30012,31709,59458,38527,-3610,31,-3082,-1650,933,-1689,175,439,-335,1,0,39,39,800,0,53298,1
2,31371,30014,31704,59459,38531,-3490,436,-3310,-1501,1512,-453,187,443,-339,1,0,39,39,840,0,53298,1
2,31517,29999,31697,59460,38536,-3334,277,-3209,-475,2364,1488,175,445,-343,1,0,39,39,880,0,53298,1
2,31771,30000,31694,59461,38540,-3382,197,-3036,-558,3313,3176,180,442,-350,1,0,39,39,920,0,53298,1
2,32199,30021,31694,59462,38544,-3444,196,-3016,-1300,4457,4631,165,435,-359,1,0,39,39,960,0,53298,1
1,32546,30025,31698,59463,0,-3905,427,-1513,970,3669,5679,154,442,-352,1,0,39,40,0,1,53298,1
2,32260,30010,31689,59464,37934,-3500,70,-2668,-5376,1219,5362,147,439,-349,1,0,39,40,40,1,53298,1
2,31946,30014,31677,59465,37938,-3191,160,-3021,-9381,371,4865,138,426,-358,1,0,39,40,80,1,53298,1
2,31757,30003,31672,59466,37942,-3278,255,-2847,-6319,46,5883,127,429,-343,1,0,39,40,120,1,53298,1
2,31585,30040,31681,59467,37948,-3457,552,-2877,-4367,643,6661,119,429,-351,1,0,39,40,160,1,53298,1
2,31435,30014,31693,59468,37953,-3236,690,-2960,-3038,261,7132,110,422,-352,1,0,39,40,200,1,53298,1
2,31319,30029,31691,59469,37958,-3098,164,-3135,-3184,714,6892,103,423,-351,1,0,39,40,240,1,53298,1
2,31189,30042,31701,59470,37963,-2980,933,-3001,-2186,1575,5896,85,417,-357,1,0,39,40,280,1,53298,1
2,31090,30044,31702,59471,37967,-2846,647,-3129,-2857,2051,5191,89,409,-353,1,0,39,40,320,1,53298,1
2,30963,30103,31699,59472,37972,-3287,1035,-2034,-2886,1026,4697,72,408,-340,1,0,39,40,360,1,53298,1
2,30870,30086,31692,59473,37976,-2775,269,-2329,-4307,294,3675,65,415,-353,1,0,39,40,400,1,53298,1
2,30838,30089,31697,59474,37980,-2784,553,-2225,-2348,-882,2282,58,412,-344,1,0,39,40,440,1,53298,1
2,30809,30062,31683,59475,37984,-2528,225,-2293,-2364,-1854,400,64,406,-342,1,0,39,40,480,1,53298,1
2,30840,30060,31675,59476,37989,-2830,148,-2274,-330,-2495,-1407,67,411,-339,1,0,39,40,520,1,53298,1
2,30828,30058,31674,59477,37992,-2677,499,-2949,1873,-2089,-2854,68,402,-334,1,0,39,40,560,1,53298,1
2,30858,30060,31685,59478,37995,-3210,373,-2637,4749,-887,-3695,81,411,-341,1,0,39,40,600,1,53298,1
2,30947,30073,31695,59479,37998,-3337,1270,-2564,4665,-1679,-5348,84,420,-342,1,0,39,40,640,1,53298,1
2,31103,30041,31678,59480,38001,-3122,2157,-3367,2023,-2585,-5041,92,416,-340,1,0,39,40,680,1,53298,1
2,31239,30040,31684,59481,38005,-3615,700,-3291,937,-1595,-4441,97,421,-341,1,0,39,40,720,1,53298,1
2,31221,30025,31683,59482,38008,-3454,593,-3064,2695,-927,-4750,106,426,-348,1,0,39,40,760,1,53298,1
2,31248,30019,31684,59483,38012,-3372,172,-2723,3232,-756,-5204,114,432,-332,1,0,39,40,800,1,53298,1
2,31275,30046,31681,59484,38015,-3232,-452,-2509,2571,-463,-6280,115,433,-339,1,0,39,40,840,1,53298,1
2,31334,30091,31679,59485,38018,-3177,-516,-2533,3901,-240,-7757,127,433,-339,1,0,39,40,880,1,53298,1
2,31544,30120,31675,59486,38022,-3204,-270,-2017,5119,-857,-8776,141,439,-345,1,0,39,40,920,1,53298,1
2,31557,30173,31677,59487,38026,-3612,587,-2814,6834,-1170,-7536,168,442,-344,1,0,39,40,960,1,53298,1
1,31343,30171,31714,59488,0,-3746,940,-2884,7371,-2456,-5457,171,447,-341,1,0,39,41,0,0,53298,1
2,31435,30170,31714,59489,37429,-3486,1768,-3554,1114,-1987,-2706,173,443,-345,1,0,39,41,40,0,53298,1
2,31488,30133,31713,59490,37434,-3693,935,-3440,-3351,-1341,454,177,439,-339,1,0,39,41,80,0,53298,1
2,31543,30089,31695,59491,37438,-3677,142,-2820,-3628,-189,1788,168,438,-328,1,0,39,41,120,0,53298,1
2,31731,30092,31689,59492,37443,-3492,227,-3255,-3271,928,2662,164,444,-332,1,0,39,41,160,0,53298,1
2,32017,30104,31683,59493,37448,-3497,69,-3156,-985,2079,3679,157,435,-339,1,0,39,41,200,0,53298,1
2,32244,30100,31698,59494,37451,-4210,125,-1511,2724,2806,3977,154,442,-340,1,0,39,41,240,0,53298,1
2,31925,30115,31694,59495,37455,-3484,-48,-2610,-26,754,3679,147,441,-341,1,0,39,41,280,0,53298,1
2,31770,30100,31679,59496,37459,-3264,161,-3513,-6078,1228,4077,145,441,-351,1,0,39,41,320,0,53298,1
2,31658,30158,31687,59497,37463,-3192,599,-3175,-3537,2136,4795,123,433,-337,1,0,39,41,360,0,53298,1
2,31541,30136,31693,59498,37467,-3293,889,-3048,-1182,2981,6278,124,434,-352,1,0,39,41,400,0,53298,1
2,31417,30141,31689,59499,37471,-3118,886,-3392,-2958,3595,6893,116,422,-346,1,0,39,41,440,0,53298,1
2,31267,30114,31690,59500,37475,-3069,953,-3291,-3523,4205,7889,102,422,-360,1,0,39,41,480,0,53298,1
2,31150,30122,31704,59501,37478,-3253,430,-3242,-2600,5429,8304,90,412,-366,1,0,39,41,520,0,53298,1
2,31045,30148,31714,59502,37482,-3340,546,-2898,-1674,6002,7358,82,408,-370,1,0,39,41,560,0,53298,1
2,30927,30080,31704,59503,37486,-3262,406,-2270,-3167,2070,5831,70,400,-356,1,0,39,41,600,0,53298,1
2,30884,30086,31693,59504,37490,-2674,-86,-2065,-7121,84,3281,62,402,-356,1,0,39,41,640,0,53298,1
2,30855,30083,31685,59505,37494,-2222,661,-2243,-3666,-670,1598,61,399,-351,1,0,39,41,680,0,53298,1
2,30856,30072,31684,59506,37498,-2608,376,-1949,-1900,-1217,1067,62,406,-364,1,0,39,41,720,0,53298,1
2,30862,30071,31670,59507,37502,-2711,452,-2604,-986,-2596,-696,59,405,-351,1,0,39,41,760,0,53298,1
2,30860,30032,31670,59508,37506,-2715,786,-2827,1084,-3010,-2420,63,401,-343,1,0,39,41,800,0,53298,1
2,30893,30035,31682,59509,37511,-2881,362,-3240,1672,-2557,-3870,73,403,-353,1,0,39,41,840,0,53298,1
2,30956,30050,31702,59510,37515,-2991,1743,-3183,3845,-2031,-5118,77,411,-349,1,0,39,41,880,0,53298,1
2,31070,30060,31705,59511,37519,-2971,1459,-3295,4692,-1152,-3940,86,410,-352,1,0,39,41,920,0,53298,1
2,31198,30075,31697,59512,37524,-3266,983,-3240,2791,-572,-3010,90,418,-358,1,0,39,41,960,0,53298,1
1,31213,30082,31698,59513,0,-3348,430,-2738,2370,-1210,-3706,99,417,-355,1,0,39,42,0,1,53298,1
2,31264,30076,31695,59514,36925,-3208,248,-2545,3337,-2264,-4560,99,419,-349,1,0,39,42,40,1,53298,1
2,31339,30068,31690,59515,36928,-2880,-73,-3078,1959,-2589,-5763,105,425,-345,1,0,39,42,80,1,53298,1
2,31252,30078,31693,59516,36932,-3034,567,-2720,5244,-839,-5052,115,435,-355,1,0,39,42,120,1,53298,1
2,31300,30079,31689,59517,36935,-3179,-183,-2523,5230,-829,-5685,121,431,-353,1,0,39,42,160,1,53298,1
2,31479,30069,31673,59518,36939,-3357,-681,-2086,2349,-1883,-7094,135,429,-357,1,0,39,42,200,1,53298,1
2,31678,30088,31680,59519,36943,-3615,1273,-2862,1503,-3349,-7931,146,440,-332,1,0,39,42,240,1,53298,1
2,31366,30081,31698,59520,36946,-3545,1122,-3101,5125,-2718,-5468,157,439,-351,1,0,39,42,280,1,53298,1
2,31251,30059,31707,59521,36949,-3266,935,-3665,2306,-2068,-3211,167,435,-327,1,0,39,42,320,1,53298,1
2,31257,30042,31704,59522,36953,-3809,1611,-3419,1852,-512,-273,163,439,-345,1,0,39,42,360,1,53298,1
2,31289,29994,31671,59523,36956,-3837,444,-3158,-4157,-71,722,160,448,-328,1,0,39,42,400,1,53298,1
2,31353,29992,31664,59524,36959,-3432,324,-3055,-4568,403,1481,160,438,-342,1,0,39,42,440,1,53298,1
2,31452,29972,31659,59525,36963,-3179,526,-3548,-3909,2173,2602,149,437,-331,1,0,39,42,480,1,53298,1
2,31621,29958,31656,59526,36967,-3420,212,-3279,-2124,4563,4137,146,438,-334,1,0,39,42,520,1,53298,1
2,31888,29963,31685,59527,36971,-4980,368,309,4230,3756,4086,147,439,-345,1,0,39,42,560,1,53298,1
2,31718,30027,31674,59528,36975,-3515,43,-2760,-4287,-448,3442,143,433,-351,1,0,39,42,600,1,53298,1
2,31604,29937,31663,59529,36979,-3355,354,-2952,-7691,-498,3348,137,437,-347,1,0,39,42,640,1,53298,1
2,31508,30031,31660,59530,36982,-2949,338,-3048,-4877,676,4311,122,432,-338,1,0,39,42,680,1,53298,1
2,31410,30049,31667,59531,36987,-3285,732,-2611,-2022,2309,5753,109,427,-337,1,0,39,42,720,1,53298,1
2,31295,30030,31669,59532,36991,-3146,705,-3135,-850,2960,6794,109,423,-347,1,0,39,42,760,1,53298,1
2,31192,30013,31670,59533,36995,-2850,277,-4268,200,4147,7465,93,415,-351,1,0,39,42,800,1,53298,1
2,31075,30089,31706,59534,36998,-3298,1225,-3177,2167,6598,6975,86,416,-366,1,0,39,42,840,1,53298,1
2,30929,29987,31680,59535,37002,-3591,513,-3346,-5538,782,5690,75,413,-359,1,0,39,42,880,1,53298,1
2,30860,29960,31660,59536,37005,-2552,-13,-2515,-8551,-447,2871,79,403,-351,1,0,39,42,920,1,53298,1
2,30817,29956,31666,59537,37008,-2003,1316,-2860,-3740,-11,2442,65,401,-359,1,0,39,42,960,1,53298,1
1,30807,29968,31660,59538,0,-2706,548,-2176,-3108,1145,3253,64,402,-352,1,0,39,43,0,0,53298,1
2,30804,29975,31661,59539,36420,-2976,657,-2584,-855,-71,1983,63,395,-357,1,0,39,43,40,0,53298,1
2,30807,29970,31661,59540,36423,-2739,780,-2809,71,-1880,-613,55,393,-345,1,0,39,43,80,0,53298,1
2,30813,29970,31660,59541,36426,-2447,1089,-2801,-170,-1069,-1533,65,401,-351,1,0,39,43,120,0,53298,1
2,30824,29973,31673,59542,36429,-2762,981,-2766,1686,-282,-1834,59,407,-349,1,0,39,43,160,0,53298,1
2,30844,29983,31666,59543,36432,-2884,951,-2452,2885,-284,-2676,67,405,-349,1,0,39,43,200,0,53298,1
2,30887,29979,31664,59544,36435,-3095,572,-2441,1511,-1602,-4011,82,408,-354,1,0,39,43,240,0,53298,1
2,30983,29985,31667,59545,36439,-3035,339,-2353,2442,-2624,-5370,84,412,-346,1,0,39,43,280,0,53298,1
2,31028,29992,31670,59546,36442,-3225,509,-2336,4880,-3080,-6542,92,418,-346,1,0,39,43,320,0,53298,1
2,31133,30008,31679,59547,36445,-3137,761,-3306,7405,-3325,-7046,104,426,-346,1,0,39,43,360,0,53298,1
2,31182,30019,31682,59548,36448,-3317,608,-2780,7997,-2772,-6684,119,429,-351,1,0,39,43,400,0,53298,1
2,31192,30036,31683,59549,36453,-3476,168,-3094,4477,-3039,-7142,121,429,-351,1,0,39,43,440,0,53298,1
2,31205,30050,31679,59550,36457,-3625,-199,-2683,3769,-3289,-7343,137,433,-337,1,0,39,43,480,0,53298,1
2,31358,30037,31675,59551,36460,-3642,-590,-2359,3312,-4118,-8242,153,443,-341,1,0,39,43,520,0,53298,1
2,31417,30000,31665,59552,36465,-3656,-346,-2341,886,-6204,-9739,166,446,-342,1,0,39,43,560,0,53298,1
2,31240,29965,31671,59553,36468,-3776,1937,-2527,5175,-4550,-6270,175,453,-321,1,0,39,43,600,0,53298,1
2,31075,29936,31667,59554,36471,-3596,1414,-3934,945,-3658,-2971,182,444,-326,1,0,39,43,640,0,53298,1
2,31026,29900,31650,59555,36475,-3692,672,-3550,-2646,-991,-1094,186,454,-322,1,0,39,43,680,0,53298,1
2,31035,29897,31643,59556,36479,-3803,179,-2891,-3232,423,430,176,450,-320,1,0,39,43,720,0,53298,1
2,31077,29903,31650,59557,36483,-3654,414,-3172,-2251,1437,1812,170,450,-314,1,0,39,43,760,0,53298,1
2,31144,29909,31650,59558,36486,-3325,-106,-3392,-1712,3255,2965,172,446,-316,1,0,39,43,800,0,53298,1
2,31339,29916,31667,59559,36490,-3329,-167,-3056,2120,5436,4374,167,437,-331,1,0,39,43,840,0,53298,1
2,31598,29884,31699,59560,36493,-4077,350,-1226,5922,6337,5815,156,440,-336,1,0,39,43,880,0,53298,1
2,31566,29859,31683,59561,36497,-3772,646,-3047,-1001,391,5681,151,449,-337,1,0,39,43,920,0,53298,1
2,31531,29868,31675,59562,36500,-3273,35,-3901,-12914,1605,4582,131,439,-339,1,0,39,43,960,0,53298,1
1,31475,29880,31676,59563,0,-3119,962,-2528,-5058,1987,6032,129,429,-345,1,0,39,44,0,1,53298,1
2,31321,29838,31667,59564,35917,-3265,675,-2613,-3649,2822,7775,119,437,-347,1,0,39,44,40,1,53298,1
2,31232,29906,31667,59565,35920,-3091,244,-2984,-2656,3364,7982,104,422,-342,1,0,39,44,80,1,53298,1
2,31179,29906,31693,59566,35923,-3494,114,-3122,763,3795,7646,100,420,-360,1,0,39,44,120,1,53298,1
2,31098,29955,31703,59567,35926,-3609,387,-2330,1747,3677,6244,92,418,-366,1,0,39,44,160,1,53298,1
2,31000,30130,31711,59568,35929,-3236,286,-3093,-2828,1825,4697,90,410,-364,1,0,39,44,200,1,53298,1
2,30903,30217,31703,59569,35932,-3092,527,-2530,-3312,967,3870,80,402,-354,1,0,39,44,240,1,53298,1
2,30828,30152,31690,59570,35936,-2436,894,-2813,-3711,204,2676,58,396,-352,1,0,39,44,280,1,53298,1
2,30790,30081,31676,59571,35940,-2695,634,-2218,-4171,-475,2528,72,400,-350,1,0,39,44,320,1,53298,1
2,30780,30063,31664,59572,35943,-2559,735,-2787,-5031,-1555,1638,60,404,-356,1,0,39,44,360,1,53298,1
2,30782,30046,31647,59573,35946,-2578,541,-2617,-3494,-1881,220,66,416,-346,1,0,39,44,400,1,53298,1
2,30784,30042,31639,59574,35949,-2856,858,-2296,-1184,-1921,-838,67,401,-341,1,0,39,44,440,1,53298,1
2,30804,30017,31638,59575,35953,-3114,947,-2232,1898,-2458,-1592,69,415,-333,1,0,39,44,480,1,53298,1
2,30835,29982,31624,59576,35956,-3209,179,-2861,1366,-2774,-3275,75,409,-333,1,0,39,44,520,1,53298,1
2,30933,29959,31618,59577,35959,-3263,237,-2740,1013,-2176,-5595,81,415,-329,1,0,39,44,560,1,53298,1
2,31137,29953,31616,59578,35963,-2997,1164,-2787,3347,-1762,-5601,89,421,-331,1,0,39,44,600,1,53298,1
2,31221,29936,31624,59579,35967,-3066,1445,-2889,4968,-641,-4241,97,413,-345,1,0,39,44,640,1,53298,1
2,31236,29931,31625,59580,35971,-3292,612,-2556,5032,-499,-4168,101,421,-335,1,0,39,44,680,1,53298,1
2,31231,29934,31635,59581,35974,-3354,718,-2273,5226,-1729,-4647,106,426,-338,1,0,39,44,720,1,53298,1
2,31230,29947,31646,59582,35979,-3360,475,-2802,3701,-2702,-5119,111,425,-339,1,0,39,44,760,1,53298,1
2,31213,29959,31650,59583,35982,-3373,452,-3234,3100,-2399,-5321,130,432,-340,1,0,39,44,800,1,53298,1
2,31205,29931,31646,59584,35987,-3465,-121,-2528,4198,-1443,-4967,130,430,-340,1,0,39,44,840,1,53298,1
2,31248,29990,31620,59585,35992,-3695,-357,-2292,2438,-1981,-5729,137,439,-331,1,0,39,44,880,1,53298,1
2,31346,30548,31650,59586,35998,-3574,-315,-3323,-1103,-2266,-6912,151,447,-331,1,0,39,44,920,1,53298,1
2,31368,30593,31664,59587,36004,-3621,729,-2706,5903,209,-5528,155,439,-325,1,0,39,44,960,1,53298,1
1,31308,30581,31672,59588,0,-3637,399,-3150,7126,743,-4050,169,445,-335,1,0,39,45,0,1,53298,1
2,31294,30605,31680,59589,35414,-3531,430,-2716,5315,1116,-2954,172,440,-342,1,0,39,45,40,1,53298,1
2,31268,30601,31675,59590,35419,-3656,243,-2331,3307,811,-2099,177,439,-339,1,0,39,45,80,1,53298,1
2,31227,30605,31671,59591,35423,-3480,200,-2504,-1524,-201,-1447,182,450,-332,1,0,39,45,120,1,53298,1
2,31203,30600,31672,59592,35426,-3396,51,-2689,-3242,-458,-406,170,444,-334,1,0,39,45,160,1,53298,1
2,31180,30585,31665,59593,35430,-3396,254,-3223,-4212,-453,701,168,442,-334,1,0,39,45,200,1,53298,1
2,31195,30584,31671,59594,35433,-3168,184,-3671,-4874,389,1967,168,442,-340,1,0,39,45,240,1,53298,1
2,31307,30589,31677,59595,35437,-3273,476,-3803,-2554,3320,3914,166,448,-342,1,0,39,45,280,1,53298,1
2,31645,30580,31694,59596,35441,-3968,377,-2653,1242,5149,5888,154,450,-338,1,0,39,45,320,1,53298,1
2,31663,30482,31709,59597,35445,-4209,538,-1539,1454,2481,6664,150,432,-350,1,0,39,45,360,1,53298,1
2,31589,30277,31685,59598,35449,-3417,-210,-3196,-9467,1008,6003,134,432,-346,1,0,39,45,400,1,53298,1
2,31489,30059,31670,59599,35453,-3096,148,-3294,-9164,523,5861,128,426,-340,1,0,39,45,440,1,53298,1
2,31376,29782,31672,59600,35456,-3206,623,-2777,-3321,2442,6262,108,430,-342,1,0,39,45,480,1,53298,1
2,31293,30265,31675,59601,35459,-3073,1159,-3035,-944,2943,7222,106,420,-344,1,0,39,45,520,1,53298,1
2,31157,30099,31647,59602,35462,-2861,305,-4352,-2221,4402,8387,88,420,-366,1,0,39,45,560,1,53298,1
2,31092,30593,31717,59603,35466,-3300,600,-4000,1773,6794,8224,77,405,-363,1,0,39,45,600,1,53298,1
2,30882,29971,31707,59604,35469,-4585,1825,2237,1013,4062,6851,69,395,-371,1,0,39,45,640,1,53298,1
2,30824,30032,31668,59605,35472,-1667,-790,-4077,-14453,492,3927,67,407,-367,1,0,39,45,680,1,53298,1
2,30753,29948,31660,59606,35476,-2559,574,-2109,-3340,1182,2796,57,393,-353,1,0,39,45,720,1,53298,1
2,30740,29938,31660,59607,35479,-2294,188,-2786,-1139,2270,2441,55,385,-363,1,0,39,45,760,1,53298,1
2,30724,29938,31659,59608,35482,-2647,45,-2454,3282,2276,1077,64,392,-366,1,0,39,45,800,1,53298,1
2,30720,29930,31664,59609,35486,-2674,358,-2309,4885,491,-1141,68,390,-368,1,0,39,45,840,1,53298,1
2,30728,29917,31666,59610,35489,-2356,1423,-2570,1929,-1261,-3121,62,400,-362,1,0,39,45,880,1,53298,1
2,30753,30013,31675,59611,35492,-2174,1298,-3769,-1295,-938,-3216,72,394,-364,1,0,39,45,920,1,53298,1
2,30651,30135,31677,59612,35496,-2834,1396,-2906,1930,-237,-3046,79,397,-373,1,0,39,45,960,1,53298,1
1,30766,30059,31668,59613,0,-3052,1224,-2749,490,-1790,-3726,67,399,-359,1,0,39,46,0,1,53298,1
2,30888,29889,31651,59614,34910,-2828,1301,-3338,-3573,-2708,-3847,78,410,-354,1,0,39,46,40,1,53298,1
2,30959,29993,31635,59615,34914,-2999,486,-2674,-4105,-2139,-4019,80,416,-354,1,0,39,46,80,1,53298,1
2,30979,31002,31627,59616,34918,-2890,530,-2435,-321,-2251,-4077,96,424,-350,1,0,39,46,120,1,53298,1
2,31018,30141,31640,59617,34922,-2774,642,-2749,1468,-2025,-3730,97,413,-345,1,0,39,46,160,1,53298,1
2,31098,29966,31646,59618,34926,-3100,390,-2120,2753,-2114,-3988,103,425,-347,1,0,39,46,200,1,53298,1
2,31233,29898,31651,59619,34930,-2633,-543,-2855,1488,-2839,-6020,120,426,-346,1,0,39,46,240,1,53298,1
2,31479,29877,31655,59620,34935,-2068,-61,-3186,3483,-2332,-5358,116,430,-342,1,0,39,46,280,1,53298,1
2,31553,29884,31667,59621,34940,-3106,1054,-3967,6933,481,-2922,127,431,-351,1,0,39,46,320,1,53298,1
2,31565,29879,31669,59622,34944,-3586,1255,-2727,9344,-32,-3565,133,435,-357,1,0,39,46,360,1,53298,1
2,31610,29897,31661,59623,34949,-3499,-52,-2741,727,-962,-3068,141,433,-351,1,0,39,46,400,1,53298,1
2,31647,29884,31668,59624,34953,-3517,-151,-2844,-516,-1859,-3644,132,428,-352,1,0,39,46,440,1,53298,1
2,31684,29869,31651,59625,34958,-3187,-40,-2244,236,-3818,-4676,145,439,-337,1,0,39,46,480,1,53298,1
2,31617,29903,31656,59626,34963,-3453,267,-3927,-1576,-2229,-3286,149,433,-349,1,0,39,46,520,1,53298,1
2,31528,29881,31660,59627,34967,-3546,483,-2861,2927,-2135,-1743,155,441,-339,1,0,39,46,560,1,53298,1
2,31545,29992,31660,59628,34972,-3682,429,-2766,589,-942,-1361,158,444,-332,1,0,39,46,600,1,53298,1
2,31553,30041,31661,59629,34976,-3584,901,-2857,-56,-1281,-627,160,440,-338,1,0,39,46,640,1,53298,1
2,31528,29922,31643,59630,34979,-3095,376,-2898,-4257,-1054,1132,158,444,-338,1,0,39,46,680,1,53298,1
2,31559,29963,31647,59631,34984,-2991,332,-3501,-2708,656,2779,148,444,-326,1,0,39,46,720,1,53298,1
2,31699,29869,31656,59632,34988,-3264,157,-3243,1203,2718,3801,156,446,-336,1,0,39,46,760,1,53298,1
2,31885,30028,31679,59633,34992,-5227,1185,1001,4548,1229,4326,139,437,-343,1,0,39,46,800,1,53298,1
2,31829,30269,31654,59634,34995,-3620,133,-3309,-4608,-1471,3368,135,437,-345,1,0,39,46,840,1,53298,1
2,31771,30150,31654,59635,34998,-3611,1037,-2707,-4661,-1679,3181,130,436,-328,1,0,39,46,880,1,53298,1
2,31662,29996,31655,59636,35002,-3182,960,-2868,-4123,-1151,4886,120,434,-336,1,0,39,46,920,1,53298,1
2,31539,29945,31660,59637,35006,-3195,752,-2789,-2829,196,6188,107,425,-333,1,0,39,46,960,1,53298,1
1,31445,30204,31668,59638,0,-3241,775,-3453,-1214,1707,7570,92,426,-318,1,0,39,47,0,0,53298,1
2,31275,30036,31688,59639,34406,-3365,1163,-3567,310,3707,8314,90,422,-342,1,0,39,47,40,0,53298,1
2,31127,29868,31703,59640,34409,-3589,741,-3206,-548,4299,7796,83,413,-341,1,0,39,47,80,0,53298,1
2,31017,30628,31672,59641,34412,-3817,497,-777,-2963,2754,5891,71,409,-337,1,0,39,47,120,0,53298,1
2,31007,29857,31666,59642,34416,-2492,-897,-2672,-6856,222,3566,66,414,-346,1,0,39,47,160,0,53298,1
2,31001,29844,31668,59643,34420,-2536,-259,-2219,-1682,700,1021,72,406,-342,1,0,39,47,200,0,53298,1
2,31017,29851,31674,59644,34424,-2522,270,-2300,2163,888,-1010,68,406,-338,1,0,39,47,240,0,53298,1
2,31084,29861,31671,59645,34428,-2893,1653,-1895,3558,364,-2702,72,406,-350,1,0,39,47,280,0,53298,1
2,31214,29863,31660,59646,34432,-3040,618,-2758,79,-1300,-3271,74,406,-334,1,0,39,47,320,0,53298,1
2,31386,29869,31671,59647,34435,-3285,1999,-2787,1630,-1167,-3073,79,415,-337,1,0,39,47,360,0,53298,1
2,31445,29865,31661,59648,34439,-3101,683,-3420,479,-1336,-3731,80,414,-340,1,0,39,47,400,0,53298,1
2,31434,29864,31661,59649,34443,-3046,844,-3089,2614,-362,-3762,91,417,-339,1,0,39,47,440,0,53298,1
2,31392,29869,31661,59650,34447,-3419,977,-2642,4248,168,-3292,98,422,-348,1,0,39,47,480,0,53298,1
2,31366,29871,31653,59651,34451,-3187,349,-2808,1541,-635,-3310,97,411,-339,1,0,39,47,520,0,53298,1
2,31437,29863,31629,59652,34455,-2941,-317,-3018,-3564,-674,-4641,99,429,-331,1,0,39,47,560,0,53298,1
2,31648,29870,31625,59653,34459,-2732,-350,-3304,-1553,-49,-6014,117,431,-337,1,0,39,47,600,0,53298,1
2,31808,29870,31633,59654,34463,-2742,1480,-3168,5074,720,-5490,122,422,-348,1,0,39,47,640,0,53298,1
2,31691,29883,31635,59655,34467,-3451,1028,-2389,6774,1789,-2990,127,435,-347,1,0,39,47,680,0,53298,1
2,31597,29878,31644,59656,34471,-3645,-114,-2233,3839,1163,-3907,145,437,-349,1,0,39,47,720,0,53298,1
2,31465,29880,31642,59657,34475,-3719,-62,-1899,3334,-415,-5462,144,440,-350,1,0,39,47,760,0,53298,1
2,31335,29872,31640,59658,34479,-3433,544,-2542,1154,-2919,-5680,158,438,-346,1,0,39,47,800,0,53298,1
2,31278,29867,31637,59659,34484,-2990,763,-3145,18,-3371,-4511,162,438,-342,1,0,39,47,840,0,53298,1
2,31292,30299,31659,59660,34489,-3027,1209,-3628,-355,-1633,-1892,165,439,-337,1,0,39,47,880,0,53298,1
2,31362,30404,31668,59661,34492,-3334,711,-3293,575,288,422,170,444,-342,1,0,39,47,920,0,53298,1
2,31448,30446,31665,59662,34497,-3662,1171,-3107,1767,1226,2068,160,442,-350,1,0,39,47,960,0,53298,1
1,31560,30440,31675,59663,0,-3657,818,-3015,1221,1266,3044,148,446,-348,1,0,39,48,0,1,53298,1
2,31717,30465,31670,59664,33904,-3432,610,-3404,-361,2036,3604,149,439,-345,1,0,39,48,40,1,53298,1
2,31900,30442,31680,59665,33908,-3269,420,-3296,-1748,3032,4057,139,443,-357,1,0,39,48,80,1,53298,1
2,32107,30331,31696,59666,33912,-4037,1139,-1247,-178,2703,5450,141,431,-357,1,0,39,48,120,1,53298,1
2,31935,30101,31686,59667,33917,-3529,696,-2819,-4777,145,6260,124,428,-350,1,0,39,48,160,1,53298,1
2,31761,29855,31671,59668,33921,-3158,397,-3272,-7967,-874,6786,115,429,-363,1,0,39,48,200,1,53298,1
2,31609,29830,31672,59669,33925,-3165,176,-2990,-7180,-362,8138,99,419,-355,1,0,39,48,240,1,53298,1
2,31531,30296,31708,59670,33928,-3182,439,-3276,-3544,1432,8120,90,416,-348,1,0,39,48,280,1,53298,1
2,31363,29933,31720,59671,33931,-2818,1032,-3473,614,2697,7537,77,405,-355,1,0,39,48,320,1,53298,1
2,31228,30102,31720,59672,33934,-2954,614,-3502,125,4067,6663,66,406,-364,1,0,39,48,360,1,53298,1
2,31094,30142,31708,59673,33938,-3598,1187,-370,-3607,299,5100,63,405,-359,1,0,39,48,400,1,53298,1
2,31017,30880,31634,59674,33942,-1861,-997,-2802,-12359,-1826,2405,66,400,-338,1,0,39,48,440,1,53298,1
2,31004,30116,31663,59675,33946,-2419,596,-2509,-3190,-2021,-123,57,403,-333,1,0,39,48,480,1,53298,1
2,30995,29983,31674,59676,33950,-2119,786,-2601,1330,-732,-472,57,401,-345,1,0,39,48,520,1,53298,1
2,30991,29884,31675,59677,33954,-2868,763,-2532,3209,170,-1044,50,398,-336,1,0,39,48,560,1,53298,1
2,30979,29860,31680,59678,33957,-2839,1634,-2987,2938,-484,-2673,57,397,-337,1,0,39,48,600,1,53298,1
2,30986,29848,31680,59679,33961,-2928,1460,-2874,1234,-501,-2646,70,402,-326,1,0,39,48,640,1,53298,1
2,31000,29934,31693,59680,33965,-3107,810,-3259,616,-111,-2252,67,417,-337,1,0,39,48,680,1,53298,1
2,31007,30007,31708,59681,33968,-3098,328,-2887,3773,485,-3011,79,403,-347,1,0,39,48,720,1,53298,1
2,31025,30049,31716,59682,33972,-2952,650,-2925,8893,1518,-3850,79,413,-355,1,0,39,48,760,1,53298,1
2,31035,30056,31730,59683,33976,-3148,1312,-2962,11173,1770,-4351,94,420,-358,1,0,39,48,800,1,53298,1
2,31046,30060,31699,59684,33980,-3344,524,-1988,7709,71,-5120,109,421,-375,1,0,39,48,840,1,53298,1
2,31129,30068,31681,59685,33984,-3088,-176,-2585,-2666,-2904,-7375,107,419,-363,1,0,39,48,880,1,53298,1
2,31205,30067,31670,59686,33988,-3033,38,-2971,-3597,-4328,-7437,115,429,-353,1,0,39,48,920,1,53298,1
2,31295,30077,31681,59687,33993,-3396,173,-2215,3810,-3580,-6533,131,427,-349,1,0,39,48,960,1,53298,1
1,31570,30102,31680,59688,0,-3358,-641,-2262,4707,-4950,-7487,141,433,-345,1,0,39,49,0,1,53298,1
2,32030,30090,31683,59689,33401,-3364,-1850,-2615,-244,-6336,-10106,160,444,-334,1,0,39,49,40,1,53298,1
2,31826,30105,31717,59690,33405,-4598,2504,-2497,10433,-3597,-7117,165,433,-337,1,0,39,49,80,1,53298,1
2,31585,30088,31726,59691,33409,-3765,1366,-4529,4539,-4648,-4420,181,451,-327,1,0,39,49,120,1,53298,1
2,31500,29945,31711,59692,33413,-3971,693,-3274,593,-1035,-2432,182,450,-320,1,0,39,49,160,1,53298,1
2,31495,29882,31706,59693,33417,-3676,-145,-2716,-1416,-837,-797,176,456,-320,1,0,39,49,200,1,53298,1
2,31468,29884,31697,59694,33421,-3266,-199,-2731,-1825,-199,-377,188,446,-332,1,0,39,49,240,1,53298,1
2,31490,29945,31695,59695,33425,-3171,282,-3438,-1248,1118,-114,180,448,-336,1,0,39,49,280,1,53298,1
2,31550,29923,31693,59696,33429,-3204,563,-3403,61,2863,1540,183,453,-337,1,0,39,49,320,1,53298,1
2,31690,29915,31694,59697,33433,-3605,850,-3212,373,4071,3550,172,440,-340,1,0,39,49,360,1,53298,1
2,31949,29930,31695,59698,33437,-3901,300,-2785,-1969,4482,5522,167,441,-353,1,0,39,49,400,1,53298,1
2,32085,29949,31717,59699,33441,-4475,-279,-1330,-2480,3320,6746,153,433,-347,1,0,39,49,440,1,53298,1
2,31874,29934,31704,59700,33445,-3913,179,-2680,-5119,-389,6042,147,441,-339,1,0,39,49,480,1,53298,1
2,31683,29880,31693,59701,33449,-3430,411,-2964,-10183,-828,6166,132,434,-344,1,0,39,49,520,1,53298,1
2,31522,30585,31675,59702,33454,-2832,114,-3001,-7719,-660,7392,122,434,-338,1,0,39,49,560,1,53298,1
2,31385,31207,31665,59703,33458,-3217,103,-3109,-5728,1985,8992,106,426,-338,1,0,39,49,600,1,53298,1
2,31272,30233,31693,59704,33460,-3087,662,-3018,1457,4187,9238,100,420,-346,1,0,39,49,640,1,53298,1
2,31199,31099,31695,59705,33464,-3338,719,-3114,2118,4752,8512,87,421,-345,1,0,39,49,680,1,53298,1
2,31104,30244,31696,59706,33469,-3554,530,-2067,-2546,3260,5433,90,412,-352,1,0,39,49,720,1,53298,1
2,31078,29860,31674,59707,33472,-2718,112,-2302,-6323,-33,2677,68,414,-342,1,0,39,49,760,1,53298,1
2,31058,29898,31672,59708,33476,-2340,1090,-3151,-6599,43,1289,69,407,-337,1,0,39,49,800,1,53298,1
2,31017,29911,31665,59709,33479,-2291,1214,-2873,-2482,1089,2047,72,402,-338,1,0,39,49,840,1,53298,1
2,30993,29995,31667,59710,33482,-3203,378,-2349,-584,2142,2916,72,404,-350,1,0,39,49,880,1,53298,1
2,30973,29960,31667,59711,33485,-3176,926,-2348,525,304,848,59,403,-351,1,0,39,49,920,1,53298,1
2,30960,29935,31660,59712,33489,-2509,1435,-2543,-342,-1574,-1802,75,407,-339,1,0,39,49,960,1,53298,1
1,30955,29932,31653,59713,0,-2550,1343,-2586,-566,-938,-1591,70,406,-346,1,0,39,50,0,1,53298,1
2,30955,29925,31655,59714,32897,-2847,811,-2589,662,-78,-575,69,403,-345,1,0,39,50,40,1,53298,1
2,30955,29898,31669,59715,32901,-3225,-181,-2595,2697,-77,-1262,68,408,-348,1,0,39,50,80,1,53298,1
2,30977,29924,31664,59716,32904,-3099,-58,-3080,3941,-342,-3815,86,410,-350,1,0,39,50,120,1,53298,1
2,31008,29910,31677,59717,32907,-2998,734,-2722,5921,-318,-6893,80,416,-352,1,0,39,50,160,1,53298,1
2,31070,29893,31677,59718,32912,-2799,1298,-3127,7743,-785,-6815,95,423,-355,1,0,39,50,200,1,53298,1
2,31129,29888,31675,59719,32915,-2882,1185,-3151,5056,-137,-6253,108,422,-362,1,0,39,50,240,1,53298,1
2,31212,29896,31657,59720,32919,-3318,277,-2688,3114,59,-5526,109,413,-365,1,0,39,50,280,1,53298,1
2,31285,29879,31660,59721,32924,-3634,-569,-2825,2585,-1535,-6709,116,432,-358,1,0,39,50,320,1,53298,1
2,31481,29874,31664,59722,32928,-3318,-1184,-2721,3492,-2773,-8652,144,428,-364,1,0,39,50,360,1,53298,1
2,31702,29876,31682,59723,32931,-3557,-956,-2568,7528,-3495,-9609,164,436,-354,1,0,39,50,400,1,53298,1
2,31824,30270,31675,59724,32935,-3147,280,-3600,7394,-5061,-10650,168,440,-348,1,0,39,50,440,1,53298,1
2,31552,32209,31686,59725,32940,-3656,1959,-2640,10730,-2500,-6166,182,442,-350,1,0,39,50,480,1,53298,1
2,31420,32454,31687,59726,32944,-3583,790,-3370,4854,-2292,-3624,186,446,-348,1,0,39,50,520,1,53298,1
2,31364,31622,31694,59727,32948,-3525,483,-3161,-239,-1856,-1818,189,439,-333,1,0,39,50,560,1,53298,1
2,31355,30280,31695,59728,32951,-3701,415,-2976,-3503,-950,-19,187,445,-335,1,0,39,50,600,1,53298,1
2,31353,30237,31682,59729,32955,-3370,106,-3046,-5566,-959,1019,190,450,-344,1,0,39,50,640,1,53298,1
2,31387,30175,31683,59730,32957,-3286,-110,-3325,-5566,24,2135,184,440,-344,1,0,39,50,680,1,53298,1
2,31477,30137,31686,59731,32960,-3272,109,-3495,-482,2285,3336,180,442,-344,1,0,39,50,720,1,53298,1
2,31766,30212,31709,59732,32963,-3476,294,-3166,678,3484,5110,172,442,-348,1,0,39,50,760,1,53298,1
2,32083,31158,31720,59733,32967,-5217,237,863,3429,1978,6955,166,442,-350,1,0,39,50,800,1,53298,1
2,31895,30144,31693,59734,32970,-3676,-367,-2744,-7622,-2725,5578,148,446,-332,1,0,39,50,840,1,53298,1
2,31799,29991,31697,59735,32974,-3385,-266,-3278,-13152,-2937,5042,145,445,-337,1,0,39,50,880,1,53298,1
2,31664,30007,31711,59736,32978,-3200,521,-2748,-4520,-1759,6385,129,427,-335,1,0,39,50,920,1,53298,1
2,31572,29894,31706,59737,32981,-3393,604,-3002,-2322,-125,7577,119,433,-337,1,0,39,50,960,1,53298,1
1,31556,29851,31717,59738,0,-3223,223,-3862,-1435,1898,7342,110,426,-330,1,0,39,51,0,1,53298,1
2,31542,29933,31723,59739,32396,-3585,371,-2957,3045,3341,6598,110,424,-342,1,0,39,51,40,1,53298,1
2,31451,29956,31725,59740,32401,-3331,742,-3057,1449,3232,4526,95,421,-347,1,0,39,51,80,1,53298,1
2,31226,30254,31704,59741,32405,-3393,1605,-2098,-3289,2322,3920,88,416,-342,1,0,39,51,120,1,53298,1
2,31094,30215,31695,59742,32409,-2904,637,-2851,-7352,1493,5135,85,415,-339,1,0,39,51,160,1,53298,1
2,31022,29878,31715,59743,32413,-3102,941,-2620,-3610,1784,6087,80,408,-350,1,0,39,51,200,1,53298,1
2,30960,29951,31724,59744,32418,-3083,641,-2770,-3148,1770,5649,65,407,-339,1,0,39,51,240,1,53298,1
2,30938,29969,31717,59745,32423,-3039,-14,-2377,-2438,1592,3768,65,397,-331,1,0,39,51,280,1,53298,1
2,30932,29964,31712,59746,32428,-2889,97,-2181,-229,893,1205,62,408,-342,1,0,39,51,320,1,53298,1
2,30918,29962,31704,59747,32432,-2689,272,-2046,956,-210,-957,54,402,-340,1,0,39,51,360,1,53298,1
2,30910,29964,31689,59748,32437,-2350,463,-2451,954,-576,-2353,66,402,-344,1,0,39,51,400,1,53298,1
2,30938,29965,31699,59749,32441,-2852,422,-2724,1652,-255,-3681,75,403,-355,1,0,39,51,440,1,53298,1
2,30966,29961,31689,59750,32445,-2973,736,-2319,3400,-1111,-5679,77,411,-347,1,0,39,51,480,1,53298,1
2,31041,29927,31673,59751,32450,-3200,1945,-2382,3163,-3304,-5824,81,415,-335,1,0,39,51,520,1,53298,1
2,31167,29873,31660,59752,32454,-3270,797,-2853,-387,-3677,-5294,94,424,-334,1,0,39,51,560,1,53298,1
2,31292,29882,31653,59753,32458,-3536,843,-2576,821,-3360,-4636,97,423,-339,1,0,39,51,600,1,53298,1
2,31453,30153,31634,59754,32462,-3640,743,-2930,417,-3022,-5006,100,428,-332,1,0,39,51,640,1,53298,1
2,31470,31745,31629,59755,32467,-3682,867,-2849,3846,-1216,-4461,110,424,-318,1,0,39,51,680,1,53298,1
2,31437,31657,31619,59756,32471,-3744,711,-2744,5769,-1227,-4230,126,434,-334,1,0,39,51,720,1,53298,1
2,31429,31071,31620,59757,32475,-3670,178,-2883,1497,-1655,-4858,123,437,-335,1,0,39,51,760,1,53298,1
2,31470,30854,31620,59758,32480,-3413,-337,-2669,2221,-1458,-5314,131,443,-331,1,0,39,51,800,1,53298,1
2,31567,30427,31630,59759,32485,-3319,-319,-2350,4039,-1471,-6036,138,440,-328,1,0,39,51,840,1,53298,1
2,31629,30230,31630,59760,32491,-3275,-324,-1834,3759,-3072,-6564,155,445,-321,1,0,39,51,880,1,53298,1
2,31539,30137,31648,59761,32496,-3488,493,-3475,3120,-1447,-5576,159,449,-333,1,0,39,51,920,1,53298,1
2,31390,30175,31640,59762,32500,-3440,1144,-3334,5004,-939,-2745,165,443,-323,1,0,39,51,960,1,53298,1
1,31366,30253,31641,59763,0,-3732,618,-2910,548,759,-1249,170,446,-324,1,0,39,52,0,1,53298,1
2,31355,30450,31630,59764,31895,-4002,1108,-2424,-875,663,-102,164,452,-326,1,0,39,52,40,1,53298,1
2,31323,30538,31624,59765,31899,-3223,732,-2900,-4578,-329,351,172,444,-316,1,0,39,52,80,1,53298,1
2,31348,31204,31611,59766,31904,-2814,-116,-3252,-4895,1223,2030,161,447,-317,1,0,39,52,120,1,53298,1
2,31407,31406,31625,59767,31910,-3442,-88,-2898,207,3860,3444,158,444,-336,1,0,39,52,160,1,53298,1
2,31539,31787,31646,59768,31915,-3878,-59,-2611,3368,4902,4987,153,443,-339,1,0,39,52,200,1,53298,1
2,31574,31002,31675,59769,31920,-3276,426,-968,1914,-1347,4824,143,443,-327,1,0,39,52,240,1,53298,1
2,31621,30738,31653,59770,31925,-3942,-9,-3527,-10399,-296,4937,134,436,-328,1,0,39,52,280,1,53298,1
2,31576,30313,31646,59771,31929,-3335,360,-3011,-6361,-1288,4114,131,435,-325,1,0,39,52,320,1,53298,1
2,31517,30261,31664,59772,31932,-3304,769,-2603,-1002,571,5668,126,436,-330,1,0,39,52,360,1,53298,1
2,31466,30093,31663,59773,31936,-3183,1069,-3162,-782,2537,7120,108,436,-330,1,0,39,52,400,1,53298,1
2,31409,30798,31667,59774,31940,-3039,510,-4005,584,4909,8108,108,424,-340,1,0,39,52,440,1,53298,1
2,31266,30265,31701,59775,31943,-3620,938,-3696,2900,6953,8392,92,420,-350,1,0,39,52,480,1,53298,1
2,31036,32290,31672,59776,31947,-3847,1421,-1526,-2422,2900,6872,74,408,-342,1,0,39,52,520,1,53298,1
2,30969,30117,31665,59777,31951,-2430,-489,-3126,-11655,1323,4800,68,408,-344,1,0,39,52,560,1,53298,1
2,30914,30442,31661,59778,31955,-2673,924,-2174,-3464,1110,4168,50,402,-344,1,0,39,52,600,1,53298,1
2,30881,31981,31652,59779,31959,-2580,648,-2332,-3065,1319,4291,60,398,-338,1,0,39,52,640,1,53298,1
2,30878,33178,31652,59780,31962,-2863,81,-2448,-1148,1426,2991,63,397,-351,1,0,39,52,680,1,53298,1
2,30886,33702,31670,59781,31966,-2869,642,-1993,1813,241,584,57,401,-347,1,0,39,52,720,1,53298,1
2,30891,33833,31665,59782,31969,-2498,558,-2739,852,-557,-1826,57,399,-351,1,0,39,52,760,1,53298,1
2,30900,33878,31667,59783,31972,-2595,869,-2960,2735,267,-2730,57,399,-335,1,0,39,52,800,1,53298,1
2,30926,33926,31658,59784,31976,-2763,545,-3001,4379,632,-3533,73,395,-351,1,0,39,52,840,1,53298,1
2,30940,33936,31665,59785,31979,-2850,1324,-2924,3635,267,-4647,71,413,-355,1,0,39,52,880,1,53298,1
2,30967,33944,31663,59786,31983,-3099,1700,-2576,2144,-738,-3504,81,415,-353,1,0,39,52,920,1,53298,1
2,31068,33987,31660,59787,31986,-3358,1405,-2487,-3169,-2461,-3033,88,408,-350,1,0,39,52,960,1,53298,1
1,31198,34288,31650,59788,0,-3138,901,-2581,-4637,-3500,-3212,78,418,-344,1,0,39,53,0,1,53298,1
2,31369,34028,31640,59789,31391,-2978,596,-2952,-2628,-2565,-3542,98,418,-336,1,0,39,53,40,1,53298,1
2,31362,34260,31639,59790,31396,-2987,587,-3139,3082,-573,-3799,90,428,-336,1,0,39,53,80,1,53298,1
2,31309,34270,31644,59791,31400,-3425,1094,-2881,8686,1568,-3142,102,418,-346,1,0,39,53,120,1,53298,1
2,31259,34205,31638,59792,31404,-3191,605,-2981,6264,861,-3546,111,423,-353,1,0,39,53,160,1,53298,1
2,31261,34007,31628,59793,31408,-3228,584,-2771,149,211,-3660,113,431,-347,1,0,39,53,200,1,53298,1
2,31271,30151,31620,59794,31412,-3137,-429,-2573,40,-410,-3385,113,421,-349,1,0,39,53,240,1,53298,1
2,31314,30150,31625,59795,31417,-3264,-708,-2316,3268,-990,-4056,125,431,-345,1,0,39,53,280,1,53298,1
2,31404,30100,31641,59796,31421,-3248,-789,-2093,6607,-2598,-5603,134,446,-348,1,0,39,53,320,1,53298,1
2,31606,30160,31636,59797,31425,-3254,-836,-2287,3706,-5109,-8387,144,440,-342,1,0,39,53,360,1,53298,1
2,31610,30034,31660,59798,31429,-3869,1276,-3599,4438,-2521,-7477,164,448,-342,1,0,39,53,400,1,53298,1
2,31534,30046,31666,59799,31433,-3665,1892,-3618,5597,-2086,-3474,171,437,-343,1,0,39,53,440,1,53298,1
2,31479,30192,31653,59800,31437,-3901,406,-2410,-886,-1901,-1527,170,434,-338,1,0,39,53,480,1,53298,1
2,31386,30764,31638,59801,31441,-3516,-896,-2413,-2093,-2700,-1089,175,439,-333,1,0,39,53,520,1,53298,1
2,31288,30749,31633,59802,31445,-3293,-798,-2846,-1246,-2539,-2042,168,446,-324,1,0,39,53,560,1,53298,1
2,31255,30794,31631,59803,31449,-3179,-684,-3126,10,-2103,-3055,169,451,-327,1,0,39,53,600,1,53298,1
2,31248,30757,31634,59804,31453,-3296,225,-3368,2087,-191,-2755,179,445,-325,1,0,39,53,640,1,53298,1
2,31269,31151,31634,59805,31457,-3442,776,-3341,3400,1688,-964,187,443,-337,1,0,39,53,680,1,53298,1
2,31320,31358,31633,59806,31461,-3649,681,-3026,936,2523,1500,176,444,-336,1,0,39,53,720,1,53298,1
2,31377,31448,31629,59807,31465,-3648,541,-3045,-2488,2484,3630,173,441,-339,1,0,39,53,760,1,53298,1
2,31482,31409,31632,59808,31469,-3590,-240,-3004,-4792,2759,5030,160,442,-344,1,0,39,53,800,1,53298,1
2,31616,30839,31642,59809,31474,-3473,-325,-2727,-506,3289,5551,155,439,-351,1,0,39,53,840,1,53298,1
2,31754,30751,31669,59810,31478,-4393,94,-425,8,2597,5358,149,441,-347,1,0,39,53,880,1,53298,1
2,31733,30764,31651,59811,31482,-3558,76,-2951,-5693,-232,4753,142,432,-346,1,0,39,53,920,1,53298,1
2,31692,30642,31650,59812,31486,-3556,-10,-2952,-7882,-69,4679,135,429,-347,1,0,39,53,960,1,53298,1
1,31607,30752,31657,59813,0,-3386,465,-2652,-3372,382,5290,129,433,-339,1,0,39,54,0,0,53298,1
2,31540,30408,31668,59814,30890,-3390,909,-2772,-1709,558,5731,118,422,-346,1,0,39,54,40,0,53298,1
2,31487,30334,31675,59815,30895,-2886,838,-3523,-2298,743,6356,102,426,-344,1,0,39,54,80,0,53298,1
2,31500,31355,31695,59816,30899,-3210,579,-3485,-647,2421,7030,95,425,-349,1,0,39,54,120,0,53298,1
2,31468,29987,31719,59817,30903,-3543,642,-2725,458,3596,6415,82,418,-354,1,0,39,54,160,0,53298,1
2,31285,30173,31713,59818,30907,-3623,1356,-1609,-2180,2778,5361,81,417,-351,1,0,39,54,200,0,53298,1
2,31068,29954,31682,59819,30911,-2894,648,-3157,-7838,150,4939,67,401,-347,1,0,39,54,240,0,53298,1
2,30968,29926,31675,59820,30915,-2738,623,-2811,-7606,110,3995,62,394,-338,1,0,39,54,280,0,53298,1
2,30912,29885,31682,59821,30920,-2753,569,-2322,-3225,681,4098,58,410,-344,1,0,39,54,320,0,53298,1
2,30910,29865,31685,59822,30924,-2963,181,-2246,-186,462,3308,57,399,-335,1,0,39,54,360,0,53298,1
2,30905,29866,31686,59823,30928,-2831,174,-1994,1205,-893,640,57,405,-333,1,0,39,54,400,0,53298,1
2,30905,29869,31681,59824,30932,-2613,505,-2417,722,-1640,-2186,56,402,-330,1,0,39,54,440,0,53298,1
2,30920,29859,31681,59825,30937,-2685,1048,-3096,1992,-1133,-3354,67,415,-347,1,0,39,54,480,0,53298,1
2,30935,29853,31673,59826,30942,-3068,769,-3119,5494,-80,-3949,74,412,-350,1,0,39,54,520,0,53298,1
2,30974,29845,31683,59827,30946,-3363,1273,-2650,5252,-481,-4672,74,410,-346,1,0,39,54,560,0,53298,1
2,31025,29860,31667,59828,30951,-3352,1531,-2807,2190,-2267,-4471,79,415,-345,1,0,39,54,600,0,53298,1
2,31070,29884,31649,59829,30955,-3117,1244,-2929,-1499,-2855,-4298,86,416,-344,1,0,39,54,640,0,53298,1
2,31108,30105,31630,59830,30959,-3125,300,-2663,-2340,-2310,-4320,99,431,-337,1,0,39,54,680,0,53298,1
2,31147,30100,31631,59831,30962,-3060,490,-2650,-27,-2074,-4600,100,422,-336,1,0,39,54,720,0,53298,1
2,31225,30075,31635,59832,30966,-2909,465,-2738,1949,-1465,-4320,107,431,-339,1,0,39,54,760,0,53298,1
2,31265,29980,31635,59833,30971,-3376,753,-2979,4299,-238,-3732,118,436,-332,1,0,39,54,800,0,53298,1
2,31303,29927,31649,59834,30975,-3285,769,-2890,4413,-53,-3647,120,436,-326,1,0,39,54,840,0,53298,1
2,31345,29927,31652,59835,30980,-3431,265,-2517,3009,548,-3098,116,426,-336,1,0,39,54,880,0,53298,1
2,31393,29902,31657,59836,30984,-3381,-88,-2734,3301,169,-3759,124,436,-340,1,0,39,54,920,0,53298,1
2,31520,29892,31668,59837,30988,-3329,-364,-2519,4379,16,-4556,139,437,-343,1,0,39,54,960,0,53298,1
1,31580,29967,31666,59838,0,-3623,-12,-2238,6821,-506,-4590,149,437,-347,1,0,39,55,0,0,53298,1
2,31631,30484,31649,59839,30388,-3587,-466,-2202,4869,-2409,-4942,157,441,-339,1,0,39,55,40,0,53298,1
2,31621,30172,31655,59840,30392,-3411,-796,-2315,1521,-3600,-5981,169,449,-343,1,0,39,55,80,0,53298,1
2,31452,29986,31667,59841,30396,-3770,276,-2401,2945,-3550,-5857,171,441,-331,1,0,39,55,120,0,53298,1
2,31297,30702,31669,59842,30401,-3551,-357,-2941,-148,-4511,-5355,177,441,-327,1,0,39,55,160,0,53298,1
2,31182,30880,31655,59843,30406,-3757,168,-3246,-1068,-3224,-4385,196,448,-322,1,0,39,55,200,0,53298,1
2,31163,30046,31664,59844,30412,-3639,183,-3606,-1402,-1929,-3611,192,446,-324,1,0,39,55,240,0,53298,1
2,31170,30033,31664,59845,30418,-3624,144,-3775,-153,825,-1584,195,455,-315,1,0,39,55,280,0,53298,1
2,31211,30020,31653,59846,30423,-3602,235,-3266,1151,2612,740,200,444,-328,1,0,39,55,320,0,53298,1
2,31273,31738,31645,59847,30428,-3611,306,-2893,180,3620,2588,182,436,-332,1,0,39,55,360,0,53298,1
2,31405,31408,31650,59848,30433,-3531,213,-3343,125,4951,3910,177,445,-337,1,0,39,55,400,0,53298,1
2,31657,30813,31670,59849,30437,-3601,-134,-3182,812,6218,5040,173,445,-345,1,0,39,55,440,0,53298,1
2,32055,30715,31716,59850,30442,-4144,235,-1323,3337,6555,6110,172,440,-362,1,0,39,55,480,0,53298,1
2,31828,31996,31686,59851,30448,-4329,215,-1965,-561,1535,6562,158,434,-356,1,0,39,55,520,0,53298,1
2,31669,31240,31655,59852,30453,-3288,-893,-3322,-13792,222,5100,147,431,-347,1,0,39,55,560,0,53298,1
2,31521,30486,31661,59853,30458,-3040,46,-2768,-7124,228,5261,135,427,-347,1,0,39,55,600,0,53298,1
2,31461,30368,31675,59854,30463,-3082,488,-2582,-3700,601,7422,123,433,-355,1,0,39,55,640,0,53298,1
2,31437,30063,31678,59855,30467,-3178,759,-2868,-4463,474,7532,116,432,-346,1,0,39,55,680,0,53298,1
2,31458,30079,31685,59856,30472,-2987,262,-3524,-5061,521,7759,101,421,-351,1,0,39,55,720,0,53298,1
2,31530,30016,31698,59857,30477,-3455,583,-2793,-2739,1335,7421,93,417,-357,1,0,39,55,760,0,53298,1
2,31526,30144,31703,59858,30482,-3428,634,-2896,-4032,1401,6154,87,415,-351,1,0,39,55,800,0,53298,1
2,31336,30512,31698,59859,30487,-3149,765,-3231,-3510,961,4846,72,406,-346,1,0,39,55,840,0,53298,1
2,31112,30645,31704,59860,30491,-3201,970,-2425,-1511,1853,4690,65,403,-355,1,0,39,55,880,0,53298,1
2,30950,31551,31686,59861,30497,-3081,815,-2353,-2294,826,4081,63,407,-351,1,0,39,55,920,0,53298,1
2,30896,31457,31679,59862,30501,-2453,758,-2653,-3815,47,2744,58,402,-346,1,0,39,55,960,0,53298,1
1,30878,30491,31688,59863,0,-2686,394,-2200,-1510,342,2219,62,398,-342,1,0,39,56,0,1,53298,1
2,30876,30479,31682,59864,29887,-2904,382,-2159,492,-753,765,54,404,-336,1,0,39,56,40,1,53298,1
2,30864,30627,31677,59865,29891,-2757,283,-2147,1495,-2022,-1274,53,401,-341,1,0,39,56,80,1,53298,1
2,30877,30598,31676,59866,29896,-3039,415,-2465,2468,-2514,-3000,62,402,-340,1,0,39,56,120,1,53298,1
2,30896,30589,31668,59867,29900,-3107,280,-2589,2677,-2815,-4537,71,403,-341,1,0,39,56,160,1,53298,1
2,30922,30583,31650,59868,29904,-2965,578,-3009,3374,-2676,-6297,78,404,-342,1,0,39,56,200,1,53298,1
2,30995,30591,31639,59869,29908,-3285,2141,-2723,3405,-2618,-6857,86,418,-342,1,0,39,56,240,1,53298,1
2,31055,30597,31625,59870,29913,-3170,1056,-3392,340,-2504,-5445,101,427,-329,1,0,39,56,280,1,53298,1
2,31076,30623,31624,59871,29918,-3796,907,-2630,2886,-1117,-4440,103,427,-337,1,0,39,56,320,1,53298,1
2,31073,30683,31613,59872,29923,-3417,884,-2759,4275,-1849,-4212,103,431,-337,1,0,39,56,360,1,53298,1
2,31082,30749,31607,59873,29927,-3372,-422,-2585,1407,-1841,-4406,120,430,-330,1,0,39,56,400,1,53298,1
2,31095,30678,31611,59874,29932,-3334,397,-2846,2583,-1918,-4884,125,435,-333,1,0,39,56,440,1,53298,1
2,31113,30730,31603,59875,29937,-3325,256,-2137,3288,-1755,-4853,136,436,-332,1,0,39,56,480,1,53298,1
2,31178,30894,31593,59876,29942,-3294,-620,-2712,-329,-1902,-6024,133,443,-331,1,0,39,56,520,1,53298,1
2,31278,30648,31607,59877,29947,-3487,-462,-2725,-77,-1663,-7100,148,438,-326,1,0,39,56,560,1,53298,1
2,31310,30476,31604,59878,29952,-3342,345,-3518,2135,-568,-6295,160,444,-326,1,0,39,56,600,1,53298,1
2,31259,30455,31616,59879,29956,-3873,1285,-2628,6060,1265,-3336,166,446,-330,1,0,39,56,640,1,53298,1
2,31203,30485,31616,59880,29961,-3893,-517,-2548,2227,1307,-2908,158,440,-328,1,0,39,56,680,1,53298,1
2,31150,31795,31616,59881,29966,-3925,-295,-2443,1950,302,-3368,168,448,-328,1,0,39,56,720,1,53298,1
2,31118,30439,31617,59882,29972,-3481,291,-2899,243,-772,-3037,177,443,-325,1,0,39,56,760,1,53298,1
2,31102,30659,31612,59883,29977,-3000,510,-3309,-796,300,-1941,183,447,-323,1,0,39,56,800,1,53298,1
2,31130,30913,31606,59884,29983,-3328,336,-2990,166,2420,-87,181,455,-339,1,0,39,56,840,1,53298,1
2,31207,30347,31649,59885,29987,-3471,-23,-2723,147,3318,1456,182,450,-340,1,0,39,56,880,1,53298,1
2,31250,30238,31649,59886,29992,-3701,-224,-2343,267,3181,2397,176,444,-346,1,0,39,56,920,1,53298,1
2,31292,30165,31645,59887,29997,-3978,-518,-2483,-1134,2115,2597,167,443,-355,1,0,39,56,960,1,53298,1
1,31322,30035,31649,59888,0,-3557,-651,-2887,-1335,1360,2197,158,438,-342,1,0,39,57,0,0,53298,1
2,31414,29970,31657,59889,29384,-3388,-265,-3142,-138,1993,1821,163,439,-351,1,0,39,57,40,0,53298,1
2,31586,29989,31675,59890,29389,-3286,408,-2857,2180,2475,2536,162,440,-360,1,0,39,57,80,0,53298,1
2,31850,30011,31689,59891,29394,-3261,429,-2505,1665,2359,3896,157,437,-359,1,0,39,57,120,0,53298,1
2,31864,29968,31686,59892,29399,-3596,782,-1910,-336,425,5090,143,433,-357,1,0,39,57,160,0,53298,1
2,31697,29973,31675,59893,29404,-3293,835,-2715,-6980,-1516,6377,129,433,-355,1,0,39,57,200,0,53298,1
2,31583,29978,31675,59894,29409,-3088,378,-3212,-10391,-2754,7414,112,428,-344,1,0,39,57,240,0,53298,1
2,31513,29919,31679,59895,29413,-3248,205,-2761,-7983,-2199,7871,113,425,-337,1,0,39,57,280,0,53298,1
2,31526,29942,31685,59896,29418,-3407,425,-3317,-5626,-1139,7582,99,421,-341,1,0,39,57,320,0,53298,1
2,31660,29871,31693,59897,29423,-3508,93,-3574,-2828,808,6296,86,420,-336,1,0,39,57,360,0,53298,1
2,31916,29870,31701,59898,29428,-3785,522,-2927,-284,2705,4466,85,417,-339,1,0,39,57,400,0,53298,1
2,32061,29914,31690,59899,29432,-3341,1270,-2605,-1098,2061,3013,82,418,-342,1,0,39,57,440,0,53298,1
2,32046,29862,31672,59900,29437,-2536,1061,-3536,-3435,2270,3108,68,408,-332,1,0,39,57,480,0,53298,1
2,31987,29850,31683,59901,29441,-2790,1264,-3272,-544,3662,4186,77,411,-347,1,0,39,57,520,0,53298,1
2,31576,29870,31690,59902,29445,-2801,1177,-3158,100,4448,4747,63,403,-349,1,0,39,57,560,0,53298,1
2,31165,29879,31680,59903,29450,-3445,1153,-978,-1378,3251,4476,63,401,-351,1,0,39,57,600,0,53298,1
2,30975,29864,31674,59904,29455,-2579,63,-2608,-5679,728,2842,50,396,-354,1,0,39,57,640,0,53298,1
2,30926,29867,31669,59905,29460,-2633,323,-1984,-3772,408,983,59,391,-345,1,0,39,57,680,0,53298,1
2,30901,29993,31660,59906,29465,-2830,294,-1465,-1713,-683,-526,46,396,-338,1,0,39,57,720,0,53298,1
2,30908,29946,31653,59907,29470,-2636,207,-2207,-18,-2420,-2818,49,393,-337,1,0,39,57,760,0,53298,1
2,30922,29889,31665,59908,29475,-2680,732,-2560,2612,-2420,-4784,59,405,-341,1,0,39,57,800,0,53298,1
2,30947,29897,31660,59909,29480,-2865,1113,-2893,4570,-1974,-5352,69,411,-347,1,0,39,57,840,0,53298,1
2,31012,29894,31631,59910,29484,-3197,1332,-2884,1849,-2126,-6000,82,408,-340,1,0,39,57,880,0,53298,1
2,31094,29899,31621,59911,29489,-3406,548,-2922,-80,-2551,-6568,82,416,-334,1,0,39,57,920,0,53298,1
2,31162,29906,31618,59912,29494,-3579,1597,-2832,3266,-2933,-6725,93,423,-335,1,0,39,57,960,0,53298,1
1,31224,29910,31613,59913,0,-3365,355,-2711,2647,-2756,-6338,96,428,-324,1,0,39,58,0,1,53298,1
2,31265,29883,31610,59914,28884,-3414,171,-2952,2757,-2315,-6786,111,429,-321,1,0,39,58,40,1,53298,1
2,31290,29888,31631,59915,28889,-3312,17,-3170,5239,-937,-6980,126,434,-342,1,0,39,58,80,1,53298,1
2,31303,29878,31636,59916,28895,-3612,294,-2186,10427,-688,-5989,129,437,-337,1,0,39,58,120,1,53298,1
2,31364,29872,31647,59917,28900,-3515,-10,-2295,7319,-2140,-6399,151,443,-339,1,0,39,58,160,1,53298,1
2,31455,29880,31654,59918,28905,-3722,-430,-1925,1798,-4242,-7322,165,443,-331,1,0,39,58,200,1,53298,1
2,31407,30152,31650,59919,28910,-3534,619,-3839,-629,-5550,-7202,166,448,-322,1,0,39,58,240,1,53298,1
2,31278,29998,31682,59920,28916,-3859,2879,-3490,3216,-3356,-2668,169,445,-319,1,0,39,58,280,1,53298,1
2,31260,29988,31658,59921,28923,-3703,537,-3047,-1851,-807,141,170,452,-316,1,0,39,58,320,1,53298,1
2,31288,30471,31674,59922,28929,-3676,-39,-2622,-1389,201,1695,174,448,-318,1,0,39,58,360,1,53298,1
2,31317,32221,31655,59923,28936,-3255,167,-2916,-704,863,1555,164,444,-322,1,0,39,58,400,1,53298,1
2,31394,30540,31673,59924,28942,-3026,-415,-3382,-1097,2920,1208,161,453,-321,1,0,39,58,440,1,53298,1
2,31508,29879,31683,59925,28947,-3188,-90,-2939,3409,5340,1558,162,446,-324,1,0,39,58,480,1,53298,1
2,31859,29867,31695,59926,28953,-3524,363,-2890,5560,6539,2607,161,441,-347,1,0,39,58,520,1,53298,1
2,32128,29899,31731,59927,28958,-4286,842,-1382,5345,5189,4238,157,441,-353,1,0,39,58,560,1,53298,1
2,31992,29835,31704,59928,28963,-3783,212,-2437,-3592,1994,4806,143,439,-351,1,0,39,58,600,1,53298,1
2,31851,29877,31686,59929,28967,-3467,-265,-3085,-9811,671,4727,138,434,-346,1,0,39,58,640,1,53298,1
2,31749,29823,31690,59930,28972,-3281,-248,-2792,-6998,681,4441,127,433,-345,1,0,39,58,680,1,53298,1
2,31672,29871,31682,59931,28976,-3308,430,-2654,-3601,774,4275,118,426,-348,1,0,39,58,720,1,53298,1
2,31642,29835,31675,59932,28980,-3298,744,-2798,-2757,748,4806,121,429,-349,1,0,39,58,760,1,53298,1
2,31632,29864,31686,59933,28984,-3391,717,-2962,-4025,479,5474,97,429,-337,1,0,39,58,800,1,53298,1
2,31666,29943,31694,59934,28988,-3404,773,-2923,-4565,297,5659,97,425,-337,1,0,39,58,840,1,53298,1
2,31705,30166,31709,59935,28992,-3050,938,-3271,-3865,898,5343,84,422,-340,1,0,39,58,880,1,53298,1
2,31695,30025,31717,59936,28997,-3135,494,-2930,-859,2100,5367,84,418,-348,1,0,39,58,920,1,53298,1
2,31503,30192,31717,59937,29001,-3115,969,-3217,165,3344,4333,78,414,-352,1,0,39,58,960,1,53298,1
1,31215,30417,31688,59938,0,-3309,1775,-2250,-3314,864,4097,68,400,-344,1,0,39,59,0,1,53298,1
2,31040,30390,31672,59939,28382,-2897,535,-2142,-8571,-3,3520,63,405,-341,1,0,39,59,40,1,53298,1
2,30972,30408,31681,59940,28386,-2698,905,-2615,-5232,-769,2876,58,406,-338,1,0,39,59,80,1,53298,1
2,30944,30428,31680,59941,28390,-2675,777,-2358,-1509,-404,2705,60,406,-332,1,0,39,59,120,1,53298,1
2,30913,30447,31690,59942,28394,-2744,1228,-2721,267,-390,1748,61,405,-331,1,0,39,59,160,1,53298,1
2,30910,30445,31684,59943,28397,-2744,894,-2501,686,-208,855,55,399,-333,1,0,39,59,200,1,53298,1
2,30913,30443,31692,59944,28401,-2986,487,-2473,257,-165,-50,53,391,-327,1,0,39,59,240,1,53298,1
2,30926,30446,31690,59945,28404,-2868,771,-2637,1704,-915,-1609,49,411,-335,1,0,39,59,280,1,53298,1
2,30958,30434,31682,59946,28407,-2697,483,-2913,2818,-1278,-3153,63,407,-339,1,0,39,59,320,1,53298,1
2,31029,30464,31684,59947,28411,-2955,1513,-2480,3896,-899,-4571,70,406,-336,1,0,39,59,360,1,53298,1
2,31139,30454,31669,59948,28414,-2902,1264,-2682,1894,-1216,-4583,79,417,-337,1,0,39,59,400,1,53298,1
2,31273,30492,31672,59949,28417,-3130,1304,-2779,-1126,-1123,-4964,78,416,-330,1,0,39,59,440,1,53298,1
2,31386,30512,31668,59950,28421,-3272,940,-2773,591,-897,-4516,83,415,-337,1,0,39,59,480,1,53298,1
2,31386,30510,31666,59951,28425,-3363,884,-2716,2507,-818,-4107,93,421,-343,1,0,39,59,520,1,53298,1
2,31366,30505,31673,59952,28428,-3415,532,-2601,3574,-873,-4086,97,429,-337,1,0,39,59,560,1,53298,1
2,31347,30508,31680,59953,28433,-3330,881,-2927,4051,-1082,-4353,106,434,-342,1,0,39,59,600,1,53298,1
2,31327,30510,31675,59954,28437,-3109,904,-2842,3163,-957,-4330,116,428,-330,1,0,39,59,640,1,53298,1
2,31353,30500,31677,59955,28440,-3083,553,-2668,1322,-467,-3972,113,431,-335,1,0,39,59,680,1,53298,1
2,31375,30477,31679,59956,28444,-3255,683,-2645,2718,-105,-3359,129,435,-339,1,0,39,59,720,1,53298,1
2,31402,30295,31675,59957,28448,-3388,510,-2526,3286,-145,-2925,128,438,-336,1,0,39,59,760,1,53298,1
2,31446,29920,31658,59958,28452,-3455,-85,-2456,2675,-336,-2867,132,436,-338,1,0,39,59,800,1,53298,1
2,31553,29909,31661,59959,28456,-3644,61,-2485,2179,-1303,-3449,136,442,-346,1,0,39,59,840,1,53298,1
2,31660,29919,31660,59960,28461,-3533,-168,-2537,1224,-1818,-3879,139,433,-329,1,0,39,59,880,1,53298,1
2,31734,29918,31661,59961,28466,-3631,-265,-2212,2954,-2386,-4416,153,445,-341,1,0,39,59,920,1,53298,1
2,31666,29915,31668,59962,28470,-3537,122,-2772,1910,-3071,-4879,159,437,-323,1,0,39,59,960,1,53298,1
1,31470,29940,31663,59963,0,-3607,806,-2725,2600,-2880,-3334,171,441,-321,1,0,40,0,0,1,53298,1
2,31384,29883,31660,59964,27881,-3474,431,-3369,-696,-2087,-2099,167,445,-319,1,0,40,0,40,1,53298,1
2,31361,29897,31661,59965,27885,-3582,630,-3134,9,-319,-743,163,451,-319,1,0,40,0,80,1,53298,1
2,31390,29927,31657,59966,27889,-3532,356,-3030,-1284,276,288,162,442,-312,1,0,40,0,120,1,53298,1
2,31446,30427,31673,59967,27894,-3374,-163,-2806,-2636,777,1438,160,436,-332,1,0,40,0,160,1,53298,1
2,31531,30368,31675,59968,27898,-3407,-16,-3133,-689,1985,2051,167,445,-327,1,0,40,0,200,1,53298,1
2,31683,30342,31681,59969,27902,-3450,363,-3234,1538,3699,2509,150,444,-342,1,0,40,0,240,1,53298,1
2,31880,30377,31708,59970,27905,-3855,841,-2174,2919,4449,4071,151,443,-341,1,0,40,0,280,1,53298,1
2,31837,30373,31703,59971,27910,-3817,868,-2153,-111,2642,5480,139,443,-341,1,0,40,0,320,1,53298,1
2,31725,30367,31688,59972,27915,-3561,320,-2687,-6060,1320,5869,135,433,-331,1,0,40,0,360,1,53298,1
2,31645,30372,31684,59973,27919,-3330,656,-2587,-6146,447,6487,121,429,-343,1,0,40,0,400,1,53298,1
2,31588,30392,31680,59974,27924,-3324,822,-2606,-5756,326,7765,104,426,-328,1,0,40,0,440,1,53298,1
2,31590,30401,31690,59975,27928,-3250,125,-3455,-5564,1080,8388,95,431,-333,1,0,40,0,480,1,53298,1
2,31653,30046,31703,59976,27933,-3324,181,-3308,-415,3206,7828,84,416,-346,1,0,40,0,520,1,53298,1
2,31558,29898,31713,59977,27937,-3620,562,-2547,2229,3424,6479,87,415,-353,1,0,40,0,560,1,53298,1
2,31275,29914,31703,59978,27942,-3404,1502,-2460,-2994,866,5056,68,408,-342,1,0,40,0,600,1,53298,1
2,31019,29923,31678,59979,27947,-2641,623,-2751,-9899,-240,4033,67,401,-339,1,0,40,0,640,1,53298,1
2,30929,29965,31653,59980,27951,-2878,525,-2247,-7157,-659,3689,60,406,-338,1,0,40,0,680,1,53298,1
2,30896,30137,31641,59981,27955,-3002,457,-1843,-3534,-1022,2734,56,400,-328,1,0,40,0,720,1,53298,1
2,30920,29995,31659,59982,27959,-3014,418,-1780,203,-2241,1143,56,402,-326,1,0,40,0,760,1,53298,1
2,30933,30510,31660,59983,27964,-2631,671,-2789,-592,-2217,-1705,52,396,-324,1,0,40,0,800,1,53298,1
2,30950,30499,31650,59984,27968,-3067,914,-2531,1787,-756,-3135,62,410,-324,1,0,40,0,840,1,53298,1
2,31006,30469,31646,59985,27972,-3179,626,-2499,4542,-894,-4361,70,408,-328,1,0,40,0,880,1,53298,1
2,31160,30483,31652,59986,27976,-3276,836,-2328,4295,-1958,-5684,75,409,-333,1,0,40,0,920,1,53298,1
2,31587,30523,31650,59987,27978,-3041,2406,-2811,-190,-4204,-4629,74,420,-312,1,0,40,0,960,1,53298,1
1,31959,30537,31660,59988,0,-3219,1151,-3007,-1804,-4064,-2668,85,417,-309,1,0,40,1,0,1,53298,1
2,32244,30531,31667,59989,27379,-3443,1119,-2334,-414,-3288,-2196,83,427,-309,1,0,40,1,40,1,53298,1
2,32290,30529,31673,59990,27382,-3631,1042,-2487,35,-2998,-2671,86,428,-306,1,0,40,1,80,1,53298,1
2,32037,30531,31670,59991,27386,-3549,849,-2192,-798,-1933,-3078,93,425,-305,1,0,40,1,120,1,53298,1
2,31782,30532,31663,59992,27390,-3584,309,-2219,-158,-1325,-4007,105,437,-299,1,0,40,1,160,1,53298,1
2,31671,30520,31654,59993,27394,-3676,159,-2297,905,-788,-5618,111,435,-305,1,0,40,1,200,1,53298,1
2,31664,30510,31654,59994,27398,-3602,4,-2528,3648,-486,-6757,121,435,-297,1,0,40,1,240,1,53298,1
2,31771,30500,31651,59995,27402,-3509,454,-2742,5817,90,-7446,130,440,-294,1,0,40,1,280,1,53298,1
2,31818,30499,31656,59996,27407,-3859,1036,-1911,7223,720,-7087,138,444,-314,1,0,40,1,320,1,53298,1
2,31694,30502,31659,59997,27412,-3837,1242,-2379,4335,-93,-5896,144,440,-308,1,0,40,1,360,1,53298,1
2,31505,30432,31656,59998,27417,-3645,621,-2466,182,-548,-3846,156,454,-314,1,0,40,1,400,1,53298,1
2,31403,29898,31655,59999,27423,-4106,-101,-2084,-1779,-409,-2403,156,434,-308,1,0,40,1,440,1,53298,1
2,31346,30468,31670,60000,27428,-3970,-303,-2218,-535,-1300,-2780,163,449,-315,1,0,40,1,480,1,53298,1
2,31250,30571,31666,60001,27434,-3796,-469,-2499,449,-1388,-3409,161,445,-309,1,0,40,1,520,1,53298,1
2,31225,30560,31671,60002,27440,-3536,235,-3049,2959,-443,-3667,172,448,-304,1,0,40,1,560,1,53298,1
2,31241,30561,31680,60003,27444,-3209,1330,-3441,4510,1836,-2262,172,442,-300,1,0,40,1,600,1,53298,1
2,31307,30554,31674,60004,27449,-3254,1365,-3177,3251,4323,818,165,443,-317,1,0,40,1,640,1,53298,1
2,31390,30561,31673,60005,27454,-3480,787,-2961,667,5945,3836,175,449,-327,1,0,40,1,680,1,53298,1
2,31538,30561,31673,60006,27460,-3752,-256,-2760,386,7294,5434,153,435,-339,1,0,40,1,720,1,53298,1
2,31745,30566,31680,60007,27465,-3633,46,-3008,1567,7241,5883,152,436,-348,1,0,40,1,760,1,53298,1
2,32070,30565,31698,60008,27470,-3900,357,-1761,312,6730,6059,146,444,-356,1,0,40,1,800,1,53298,1
2,31992,30558,31695,60009,27474,-3621,794,-2796,-3231,2913,6737,128,432,-348,1,0,40,1,840,1,53298,1
2,31889,30565,31684,60010,27478,-3466,1015,-3034,-9129,2068,7502,116,428,-354,1,0,40,1,880,1,53298,1
2,31818,30561,31683,60011,27483,-3125,646,-2745,-9799,1303,9035,98,422,-354,1,0,40,1,920,1,53298,1
2,31958,30566,31695,60012,27487,-3621,308,-2816,-9380,983,9926,82,418,-346,1,0,40,1,960,1,53298,1
1,32428,30565,31717,60013,0,-3625,393,-2521,-6122,703,8848,78,408,-348,1,0,40,2,0,0,53298,1
2,33358,30572,31705,60014,26879,-3405,454,-2465,-3942,-511,6785,67,409,-343,1,0,40,2,40,0,53298,1
2,33615,30569,31691,60015,26884,-2762,947,-2755,-5900,-576,4028,55,397,-333,1,0,40,2,80,0,53298,1
2,33486,30539,31691,60016,26887,-2510,795,-2766,-3417,809,3096,61,403,-331,1,0,40,2,120,0,53298,1
2,33238,30517,31701,60017,26892,-2790,783,-2558,2749,1555,2801,52,400,-342,1,0,40,2,160,0,53298,1
2,32835,30537,31718,60018,26897,-2431,1403,-2852,4079,664,1741,46,390,-338,1,0,40,2,200,0,53298,1
2,31604,30499,31720,60019,26902,-2734,1586,-2165,1324,569,1715,52,388,-342,1,0,40,2,240,0,53298,1
2,31152,30512,31706,60020,26907,-3036,775,-2213,-4776,-1744,1293,50,386,-338,1,0,40,2,280,0,53298,1
2,31009,30490,31688,60021,26911,-2773,722,-2096,-7680,-3735,-971,51,399,-333,1,0,40,2,320,0,53298,1
2,30940,30465,31680,60022,26915,-2543,877,-2209,-4037,-3955,-2093,45,401,-329,1,0,40,2,360,0,53298,1
2,30940,30470,31669,60023,26919,-3118,715,-1843,919,-3708,-2422,62,402,-320,1,0,40,2,400,0,53298,1
2,30964,30471,31651,60024,26924,-2601,1682,-3009,1076,-3158,-3741,59,415,-311,1,0,40,2,440,0,53298,1
2,31006,30471,31647,60025,26929,-3179,1222,-2779,1590,-1904,-4127,59,411,-313,1,0,40,2,480,0,53298,1
2,31106,30478,31640,60026,26934,-3624,1118,-2586,2636,-1896,-5143,69,411,-311,1,0,40,2,520,0,53298,1
2,31443,30488,31638,60027,26939,-3250,533,-2528,2591,-2383,-6576,79,417,-319,1,0,40,2,560,0,53298,1
2,32009,30470,31644,60028,26943,-3195,1462,-2918,2874,-1828,-6879,86,422,-312,1,0,40,2,600,0,53298,1
2,32056,30465,31647,60029,26949,-3208,1254,-3234,5259,688,-5141,102,434,-316,1,0,40,2,640,0,53298,1
2,31753,30482,31654,60030,26954,-3457,1073,-2581,8613,2116,-4447,102,430,-320,1,0,40,2,680,0,53298,1
2,31581,30490,31664,60031,26958,-3660,880,-2771,5744,1953,-4199,111,427,-329,1,0,40,2,720,0,53298,1
2,31467,30489,31656,60032,26963,-3584,438,-2800,2880,1439,-4132,116,436,-326,1,0,40,2,760,0,53298,1
2,31399,30472,31659,60033,26968,-3431,-271,-2742,2104,1367,-4652,127,429,-335,1,0,40,2,800,0,53298,1
2,31465,30478,31657,60034,26973,-3444,-649,-2410,4457,1018,-6179,135,443,-333,1,0,40,2,840,0,53298,1
2,31769,30468,31660,60035,26978,-3367,-611,-2125,5288,89,-7551,143,437,-341,1,0,40,2,880,0,53298,1
2,31869,30358,31667,60036,26983,-3458,1117,-2822,5286,-1552,-7160,156,442,-344,1,0,40,2,920,0,53298,1
2,31660,30155,31670,60037,26988,-3335,1689,-3177,4479,-878,-3938,158,434,-346,1,0,40,2,960,0,53298,1
1,31539,30552,31674,60038,0,-3549,699,-2832,737,478,-2020,159,445,-343,1,0,40,3,0,1,53298,1
2,31418,30578,31676,60039,26379,-3789,-236,-2076,-490,308,-1032,170,444,-338,1,0,40,3,40,1,53298,1
2,31330,30600,31672,60040,26385,-3844,-1037,-1990,-2185,-1663,-2006,171,445,-335,1,0,40,3,80,1,53298,1
2,31245,30597,31672,60041,26390,-3655,-896,-2516,-1187,-3345,-3545,176,452,-328,1,0,40,3,120,1,53298,1
2,31175,30370,31673,60042,26396,-3439,89,-2763,1335,-3521,-3524,179,445,-321,1,0,40,3,160,1,53298,1
2,31147,30567,31677,60043,26402,-3295,401,-3356,1241,-2185,-2445,181,447,-323,1,0,40,3,200,1,53298,1
2,31149,30625,31679,60044,26407,-3489,777,-3388,1446,354,-350,181,447,-325,1,0,40,3,240,1,53298,1
2,31149,34416,31655,60045,26411,-3555,-26,-3168,-452,1912,1775,178,444,-342,1,0,40,3,280,1,53298,1
2,31207,34517,31652,60046,26417,-3575,-257,-3056,-542,2866,2657,170,440,-332,1,0,40,3,320,1,53298,1
2,31318,30575,31680,60047,26423,-3512,-386,-3057,707,3780,2786,167,449,-347,1,0,40,3,360,1,53298,1
2,31454,30591,31689,60048,26429,-3531,-700,-2817,1708,4153,2508,162,440,-352,1,0,40,3,400,1,53298,1
2,31693,30595,31709,60049,26434,-3508,46,-2704,2857,4314,2326,163,435,-355,1,0,40,3,440,1,53298,1
2,31889,30600,31724,60050,26440,-3530,687,-2556,2449,3707,3445,170,446,-350,1,0,40,3,480,1,53298,1
2,31915,30599,31722,60051,26445,-3785,524,-2068,-1557,2004,4663,152,434,-350,1,0,40,3,520,1,53298,1
2,31790,30591,31702,60052,26451,-3434,-154,-2553,-7615,210,4902,138,424,-348,1,0,40,3,560,1,53298,1
2,31710,30589,31690,60053,26456,-3237,-185,-2791,-8504,-805,4839,129,445,-347,1,0,40,3,600,1,53298,1
2,31676,30583,31689,60054,26461,-3109,236,-2995,-5939,-788,4927,125,433,-349,1,0,40,3,640,1,53298,1
2,31663,30576,31693,60055,26466,-3320,382,-2937,-2920,-45,5467,118,428,-346,1,0,40,3,680,1,53298,1
2,31712,30574,31707,60056,26471,-3168,425,-3597,-1941,664,5811,107,425,-355,1,0,40,3,720,1,53298,1
2,31778,30583,31720,60057,26475,-3245,593,-3562,-636,1957,5887,101,419,-349,1,0,40,3,760,1,53298,1
2,31583,30573,31727,60058,26479,-3324,340,-3525,-565,3321,5259,96,412,-364,1,0,40,3,800,1,53298,1
2,31210,30481,31709,60059,26484,-3487,1869,-1046,-1536,769,4837,88,410,-352,1,0,40,3,840,1,53298,1
2,30984,30478,31688,60060,26489,-2592,-163,-2839,-10789,-49,4168,86,410,-346,1,0,40,3,880,1,53298,1
2,30936,30463,31685,60061,26493,-2885,90,-2727,-6497,-489,3299,68,414,-342,1,0,40,3,920,1,53298,1
2,30907,30461,31679,60062,26497,-2522,767,-2911,-3823,483,2128,68,416,-342,1,0,40,3,960,1,53298,1
1,30899,30457,31673,60063,0,-2813,281,-2410,260,1293,1337,80,408,-342,1,0,40,4,0,0,53298,1
2,30889,30440,31673,60064,25878,-2889,727,-2495,2440,656,-98,70,412,-348,1,0,40,4,40,0,53298,1
2,30900,30440,31675,60065,25883,-2819,1050,-2379,2260,-491,-1542,71,413,-351,1,0,40,4,80,0,53298,1
2,30905,30451,31684,60066,25887,-3061,387,-2249,474,-1179,-2228,77,409,-351,1,0,40,4,120,0,53298,1
2,30930,30460,31685,60067,25892,-3214,360,-2476,1448,-1766,-3082,83,411,-345,1,0,40,4,160,0,53298,1
2,30964,30442,31684,60068,25897,-3139,203,-2412,2255,-1956,-4125,83,421,-341,1,0,40,4,200,0,53298,1
2,31035,30395,31679,60069,25902,-3514,1238,-2552,2053,-2624,-4923,99,421,-341,1,0,40,4,240,0,53298,1
2,31171,30381,31666,60070,25907,-3300,919,-2757,430,-3279,-5528,103,425,-329,1,0,40,4,280,0,53298,1
2,31250,30396,31656,60071,25911,-3261,771,-2951,-1617,-3131,-5621,108,426,-328,1,0,40,4,320,0,53298,1
2,31290,30394,31660,60072,25915,-3495,306,-2894,843,-2916,-6327,117,433,-325,1,0,40,4,360,0,53298,1
2,31282,30398,31662,60073,25919,-3629,313,-2331,4794,-1705,-5637,121,437,-319,1,0,40,4,400,0,53298,1
2,31283,30395,31669,60074,25924,-3541,-335,-2925,5716,-2056,-6483,133,443,-321,1,0,40,4,440,0,53298,1
2,31352,30379,31675,60075,25927,-3572,-407,-2601,5316,-1473,-7102,146,442,-328,1,0,40,4,480,0,53298,1
2,31415,30386,31681,60076,25930,-3574,-738,-1887,5018,-2340,-7997,163,441,-323,1,0,40,4,520,0,53298,1
2,31415,30369,31680,60077,25934,-2824,-233,-3381,1827,-4508,-8641,171,449,-319,1,0,40,4,560,0,53298,1
2,31267,30370,31713,60078,25939,-3772,1825,-2309,7148,-1664,-4023,184,444,-308,1,0,40,4,600,0,53298,1
2,31246,30367,31713,60079,25943,-3318,980,-3667,3723,-1658,-1845,188,444,-320,1,0,40,4,640,0,53298,1
2,31239,30406,31702,60080,25949,-3560,841,-2985,1706,953,1,182,456,-324,1,0,40,4,680,0,53298,1
2,31295,30422,31695,60081,25954,-3733,-64,-2915,-3888,1918,856,179,451,-317,1,0,40,4,720,0,53298,1
2,31331,30428,31689,60082,25959,-3571,9,-2695,-2458,2734,1630,169,445,-323,1,0,40,4,760,0,53298,1
2,31403,30441,31678,60083,25964,-3670,-104,-2900,-1975,3703,2505,175,451,-329,1,0,40,4,800,0,53298,1
2,31566,30472,31685,60084,25969,-3666,-184,-2837,1329,4247,3280,163,443,-337,1,0,40,4,840,0,53298,1
2,31798,30495,31701,60085,25975,-3728,1,-2830,1301,4441,3674,162,444,-340,1,0,40,4,880,0,53298,1
2,31943,30488,31711,60086,25979,-4128,612,-1798,941,3105,4481,158,430,-350,1,0,40,4,920,0,53298,1
2,31876,30486,31699,60087,25984,-3582,572,-2659,-5202,1090,5276,146,432,-348,1,0,40,4,960,0,53298,1
1,31815,30485,31686,60088,0,-3117,209,-2939,-8069,618,6020,139,439,-349,1,0,40,5,0,1,53298,1
2,31772,30485,31685,60089,25377,-3239,371,-2773,-5734,1139,6769,119,433,-337,1,0,40,5,40,1,53298,1
2,31746,30483,31687,60090,25381,-3579,595,-2806,-4202,1757,7118,117,429,-341,1,0,40,5,80,1,53298,1
2,31781,30477,31686,60091,25385,-3494,728,-3152,-4489,1622,7393,109,427,-337,1,0,40,5,120,1,53298,1
2,31905,30470,31696,60092,25388,-3313,470,-3601,-4572,1973,7249,86,418,-346,1,0,40,5,160,1,53298,1
2,32014,30458,31705,60093,25392,-3376,778,-2978,-2156,2826,6559,80,414,-348,1,0,40,5,200,1,53298,1
2,31927,30459,31716,60094,25397,-3009,768,-2880,-1262,2831,6028,68,414,-348,1,0,40,5,240,1,53298,1
2,31566,30432,31712,60095,25400,-3155,1281,-2071,-976,2964,5584,64,402,-352,1,0,40,5,280,1,53298,1
2,31249,30402,31694,60096,25404,-2946,640,-2715,-5779,373,5080,58,408,-350,1,0,40,5,320,1,53298,1
2,31072,30415,31683,60097,25408,-2868,203,-1787,-7335,-425,3405,63,401,-345,1,0,40,5,360,1,53298,1
2,31017,30402,31678,60098,25412,-2683,318,-1757,-4285,-1986,1246,51,397,-343,1,0,40,5,400,1,53298,1
2,31008,30393,31671,60099,25416,-2534,646,-2056,-1772,-3255,-761,56,396,-328,1,0,40,5,440,1,53298,1
2,31059,30395,31674,60100,25420,-2537,682,-2751,190,-2533,-1760,63,405,-325,1,0,40,5,480,1,53298,1
2,31120,30390,31689,60101,25425,-3207,829,-2819,3456,-1144,-2495,54,400,-334,1,0,40,5,520,1,53298,1
2,31317,30393,31672,60102,25429,-3261,1410,-2867,4104,-1451,-3632,68,418,-330,1,0,40,5,560,1,53298,1
2,31513,30377,31664,60103,25432,-3051,1334,-3172,386,-2120,-4502,70,422,-342,1,0,40,5,600,1,53298,1
2,31476,30377,31660,60104,25436,-2916,1817,-3253,150,-1093,-3814,78,406,-330,1,0,40,5,640,1,53298,1
2,31324,30380,31658,60105,25440,-3023,838,-2898,1625,-116,-3985,84,414,-322,1,0,40,5,680,1,53298,1
2,31250,30367,31665,60106,25444,-3196,490,-2330,4300,86,-4308,91,423,-327,1,0,40,5,720,1,53298,1
2,31201,30366,31659,60107,25449,-3215,434,-2881,4272,-416,-5272,95,423,-335,1,0,40,5,760,1,53298,1
2,31192,30357,31655,60108,25453,-3128,880,-2801,3131,436,-5333,101,433,-331,1,0,40,5,800,1,53298,1
2,31185,30333,31655,60109,25457,-3126,828,-2698,1971,806,-4953,113,429,-339,1,0,40,5,840,1,53298,1
2,31204,30335,31655,60110,25462,-3186,578,-2459,2857,1051,-4165,115,433,-341,1,0,40,5,880,1,53298,1
2,31234,30329,31655,60111,25466,-3459,139,-2334,3003,533,-3683,121,439,-345,1,0,40,5,920,1,53298,1
2,31322,30356,31662,60112,25471,-3480,-751,-2680,4646,-47,-4285,129,433,-353,1,0,40,5,960,1,53298,1
1,31542,30352,31674,60113,0,-3513,-273,-2496,6548,-710,-6005,138,434,-354,1,0,40,6,0,1,53298,1
2,31798,30366,31683,60114,24877,-3626,-255,-2492,6711,-1161,-7007,150,440,-350,1,0,40,6,40,1,53298,1
2,31833,30365,31707,60115,24882,-3763,790,-2687,7354,-2111,-7242,167,441,-337,1,0,40,6,80,1,53298,1
2,31608,30367,31705,60116,24887,-3423,362,-3089,4134,-2676,-5454,182,450,-340,1,0,40,6,120,1,53298,1
2,31477,30380,31711,60117,24892,-3430,246,-3438,2465,-1742,-4061,187,445,-333,1,0,40,6,160,1,53298,1
2,31388,30380,31716,60118,24898,-3505,-327,-2915,3839,-640,-3619,190,438,-338,1,0,40,6,200,1,53298,1
2,31360,30405,31722,60119,24903,-3431,-576,-2870,2896,-779,-2953,194,442,-342,1,0,40,6,240,1,53298,1
2,31373,30438,31723,60120,24909,-3444,-74,-3275,3680,-491,-1871,190,450,-332,1,0,40,6,280,1,53298,1
2,31464,30462,31730,60121,24914,-3112,47,-3728,2583,788,-674,191,447,-341,1,0,40,6,320,1,53298,1
2,31628,30461,31745,60122,24919,-3449,160,-3257,1669,2527,1217,198,450,-348,1,0,40,6,360,1,53298,1
2,31800,30462,31755,60123,24925,-3745,-181,-2599,1186,3199,2831,183,439,-345,1,0,40,6,400,1,53298,1
2,31798,30459,31749,60124,24930,-4000,-246,-2107,-868,1937,4081,187,439,-347,1,0,40,6,440,1,53298,1
2,31668,30456,31736,60125,24936,-3609,-507,-2935,-6674,770,4165,172,440,-358,1,0,40,6,480,1,53298,1
2,31603,30452,31722,60126,24941,-3157,-391,-3510,-8107,788,4032,169,439,-347,1,0,40,6,520,1,53298,1
2,31639,30450,31714,60127,24946,-3017,-3,-3302,-5835,2023,4767,159,437,-357,1,0,40,6,560,1,53298,1
2,31699,30447,31700,60128,24951,-3472,-233,-2014,-3670,2635,5893,149,439,-355,1,0,40,6,600,1,53298,1
2,31689,30446,31689,60129,24954,-3210,-50,-3099,-4884,1336,6023,140,436,-360,1,0,40,6,640,1,53298,1
2,31713,30430,31695,60130,24959,-3122,-19,-3151,-5519,1573,6034,126,432,-362,1,0,40,6,680,1,53298,1
2,31812,30426,31708,60131,24963,-3504,662,-2634,-3365,1345,6735,122,430,-354,1,0,40,6,720,1,53298,1
2,32073,30435,31711,60132,24968,-3377,358,-3247,-5151,1071,6422,105,429,-353,1,0,40,6,760,1,53298,1
2,32577,30434,31705,60133,24973,-3425,983,-2853,-3882,1203,5770,101,423,-351,1,0,40,6,800,1,53298,1
2,33249,30419,31694,60134,24978,-3450,1140,-3117,-4953,701,5733,78,414,-356,1,0,40,6,840,1,53298,1
2,34036,30417,31689,60135,24982,-3308,834,-3029,-6088,909,6021,72,414,-348,1,0,40,6,880,1,53298,1
2,34051,30367,31699,60136,24986,-3036,900,-2963,-4626,1011,6229,74,406,-342,1,0,40,6,920,1,53298,1
2,32383,30333,31716,60137,24989,-2800,811,-3124,-2268,1038,6238,58,398,-340,1,0,40,6,960,1,53298,1
1,31314,30290,31723,60138,0,-3148,1149,-1819,-593,1637,5364,56,398,-342,1,0,40,7,0,1,53298,1
2,31024,30262,31707,60139,24377,-2733,210,-1781,-5801,-304,3526,44,396,-334,1,0,40,7,40,1,53298,1
2,30949,30263,31701,60140,24381,-2599,503,-1792,-5530,-2223,1279,51,395,-331,1,0,40,7,80,1,53298,1
2,30954,30270,31693,60141,24385,-2404,655,-2022,-2869,-2953,-323,46,400,-332,1,0,40,7,120,1,53298,1
2,30986,30270,31695,60142,24389,-2632,633,-2758,868,-2231,-1328,49,399,-329,1,0,40,7,160,1,53298,1
2,31030,30285,31699,60143,24393,-3055,1159,-3097,3716,-1661,-2822,56,398,-330,1,0,40,7,200,1,53298,1
2,31084,30287,31692,60144,24397,-2830,1063,-3130,3873,-1615,-3948,62,406,-330,1,0,40,7,240,1,53298,1
2,31230,30268,31686,60145,24401,-3305,1250,-3017,1285,-1502,-4386,68,412,-324,1,0,40,7,280,1,53298,1
2,31338,30095,31676,60146,24404,-2938,1060,-2865,-3132,-2144,-3841,73,409,-325,1,0,40,7,320,1,53298,1
2,31439,29988,31658,60147,24408,-3079,1314,-2520,-2925,-2995,-3645,83,415,-323,1,0,40,7,360,1,53298,1
2,31514,33301,31644,60148,24412,-2868,812,-2775,-4047,-3082,-4094,80,418,-308,1,0,40,7,400,1,53298,1
2,31597,33948,31659,60149,24415,-3196,1011,-2553,-2241,-1398,-4563,80,424,-320,1,0,40,7,440,1,53298,1
2,31585,34088,31655,60150,24418,-3240,952,-2454,903,195,-4557,91,417,-317,1,0,40,7,480,1,53298,1
2,31554,34124,31670,60151,24422,-3382,947,-2191,3936,1371,-4717,96,426,-312,1,0,40,7,520,1,53298,1
2,31531,34130,31684,60152,24426,-3740,1095,-2320,6365,1033,-4960,111,431,-329,1,0,40,7,560,1,53298,1
2,31545,34224,31688,60153,24431,-3581,808,-2447,4472,452,-5226,109,441,-321,1,0,40,7,600,1,53298,1
2,31608,34192,31694,60154,24435,-3659,517,-2532,3841,503,-5138,125,439,-329,1,0,40,7,640,1,53298,1
2,31811,34219,31697,60155,24439,-3722,70,-2331,5737,204,-5697,140,444,-328,1,0,40,7,680,1,53298,1
2,32431,34209,31698,60156,24443,-3416,-146,-2634,6756,181,-6655,138,436,-328,1,0,40,7,720,1,53298,1
2,33185,34299,31705,60157,24446,-3667,302,-2664,8947,408,-6916,162,440,-330,1,0,40,7,760,1,53298,1
2,33154,34274,31717,60158,24450,-3801,498,-2042,10091,-489,-6240,164,442,-334,1,0,40,7,800,1,53298,1
2,32217,34262,31720,60159,24455,-3485,988,-2253,6824,-2080,-4998,163,441,-327,1,0,40,7,840,1,53298,1
2,31677,34092,31712,60160,24459,-3387,12,-2794,-315,-2520,-3902,174,446,-328,1,0,40,7,880,1,53298,1
2,31365,31154,31693,60161,24464,-3377,-17,-2923,-395,-2216,-3133,179,447,-337,1,0,40,7,920,1,53298,1
2,31260,29946,31690,60162,24469,-3310,140,-2948,336,-1644,-1775,192,448,-328,1,0,40,7,960,1,53298,1
1,31250,29886,31700,60163,0,-3162,303,-3812,-1231,-442,-13,185,451,-325,1,0,40,8,0,1,53298,1
2,31302,29841,31693,60164,23877,-3337,13,-3235,-1082,1774,1600,179,443,-331,1,0,40,8,40,1,53298,1
2,31360,29955,31698,60165,23883,-3501,-339,-2986,-815,3021,2990,171,439,-331,1,0,40,8,80,1,53298,1
2,31413,29941,31689,60166,23887,-3685,-448,-2573,-2956,2879,4009,164,448,-326,1,0,40,8,120,1,53298,1
2,31451,30004,31679,60167,23892,-3439,-490,-2995,-3567,2660,3812,167,439,-349,1,0,40,8,160,1,53298,1
2,31526,29973,31686,60168,23897,-3301,-501,-3546,-4438,3295,3147,160,440,-344,1,0,40,8,200,1,53298,1
2,31884,29987,31696,60169,23901,-3569,19,-3251,-1134,4617,2757,153,439,-349,1,0,40,8,240,1,53298,1
2,32194,29941,31716,60170,23906,-3868,833,-2300,837,4804,4025,142,432,-356,1,0,40,8,280,1,53298,1
2,32267,29944,31698,60171,23910,-3759,1065,-2298,-224,3833,5253,143,435,-365,1,0,40,8,320,1,53298,1
2,32191,29945,31690,60172,23913,-3406,420,-2575,-6145,1966,5133,128,428,-360,1,0,40,8,360,1,53298,1
2,32054,29865,31687,60173,23918,-3268,555,-2857,-6846,1249,5850,121,435,-357,1,0,40,8,400,1,53298,1
2,31938,29884,31697,60174,23922,-3174,562,-2780,-4177,1819,6342,107,423,-355,1,0,40,8,440,1,53298,1
2,31963,30028,31707,60175,23927,-3189,326,-2859,-189,2393,6517,101,417,-355,1,0,40,8,480,1,53298,1
2,31983,29855,31710,60176,23932,-3308,706,-3045,1119,2168,5770,92,416,-364,1,0,40,8,520,1,53298,1
2,31965,29869,31712,60177,23936,-2982,565,-3260,-1039,1739,5106,84,408,-366,1,0,40,8,560,1,53298,1
2,31712,30366,31695,60178,23941,-2878,633,-3495,-2697,1469,4507,80,406,-368,1,0,40,8,600,1,53298,1
2,31285,30044,31689,60179,23945,-3265,1887,-1301,-2542,208,4636,71,407,-361,1,0,40,8,640,1,53298,1
2,31056,29911,31680,60180,23950,-2664,893,-2815,-8675,-2060,5204,67,405,-361,1,0,40,8,680,1,53298,1
2,30978,29845,31677,60181,23955,-2592,895,-2786,-9473,-3055,4843,56,398,-346,1,0,40,8,720,1,53298,1
2,30944,29855,31667,60182,23958,-2657,485,-2245,-7449,-2990,4007,52,400,-336,1,0,40,8,760,1,53298,1
2,30932,29815,31667,60183,23963,-2734,752,-2556,-4159,-3334,2105,55,385,-325,1,0,40,8,800,1,53298,1
2,30908,29828,31653,60184,23968,-2444,1361,-2496,-597,-3369,627,47,397,-319,1,0,40,8,840,1,53298,1
2,30895,29810,31655,60185,23971,-2616,1046,-2354,-596,-2838,70,44,406,-316,1,0,40,8,880,1,53298,1
2,30905,29923,31652,60186,23975,-2713,1022,-3009,-1695,-2286,-735,45,393,-309,1,0,40,8,920,1,53298,1
2,30939,30172,31657,60187,23978,-2609,793,-3007,182,-1119,-1395,52,396,-322,1,0,40,8,960,1,53298,1
1,31026,29927,31675,60188,0,-3047,1077,-2848,3133,971,-2424,57,401,-327,1,0,40,9,0,1,53298,1
2,31138,29988,31680,60189,23376,-3276,1800,-2425,5437,1041,-4056,63,397,-313,1,0,40,9,40,1,53298,1
2,31251,29980,31653,60190,23380,-2939,1214,-2812,1880,23,-4794,64,412,-332,1,0,40,9,80,1,53298,1
2,31272,29935,31644,60191,23385,-2882,1311,-2734,666,1189,-4865,76,408,-336,1,0,40,9,120,1,53298,1
2,31229,30041,31655,60192,23389,-3015,520,-2527,4990,2340,-5003,75,409,-335,1,0,40,9,160,1,53298,1
2,31198,30024,31665,60193,23393,-3091,352,-2540,8620,2340,-5274,93,421,-355,1,0,40,9,200,1,53298,1
2,31167,30287,31660,60194,23398,-3268,230,-2797,9433,1406,-5827,107,423,-355,1,0,40,9,240,1,53298,1
2,31113,30724,31670,60195,23403,-3204,393,-2861,8700,468,-6799,114,420,-354,1,0,40,9,280,1,53298,1
2,31105,30803,31661,60196,23408,-3069,711,-3005,5647,-574,-6645,127,425,-359,1,0,40,9,320,1,53298,1
2,31182,30679,31640,60197,23413,-3391,8,-2837,967,-1417,-6063,131,433,-343,1,0,40,9,360,1,53298,1
2,31404,30116,31645,60198,23417,-3347,-819,-2877,-3596,-2349,-8321,133,429,-357,1,0,40,9,400,1,53298,1
2,31502,30063,31659,60199,23422,-3413,1858,-3202,968,-2325,-8172,160,432,-356,1,0,40,9,440,1,53298,1
2,31333,30299,31664,60200,23427,-3075,2582,-2871,5176,-3724,-2956,160,436,-348,1,0,40,9,480,1,53298,1
2,31260,30013,31662,60201,23431,-3012,142,-3192,-5650,-1915,-360,149,439,-341,1,0,40,9,520,1,53298,1
2,31184,30381,31673,60202,23436,-3872,-374,-2113,-1560,-693,-272,158,444,-342,1,0,40,9,560,1,53298,1
2,31075,34600,31643,60203,23443,-4008,-699,-1901,-1428,-1766,-2350,157,431,-337,1,0,40,9,600,1,53298,1
2,31017,34616,31639,60204,23448,-3727,-1379,-2479,-1460,-3255,-4768,165,445,-325,1,0,40,9,640,1,53298,1
2,30973,34607,31641,60205,23452,-3725,384,-2527,4595,-3839,-5003,167,443,-327,1,0,40,9,680,1,53298,1
2,30939,34040,31637,60206,23457,-3251,474,-3108,2676,-3781,-3713,185,445,-321,1,0,40,9,720,1,53298,1
2,30956,29806,31646,60207,23462,-3583,468,-3305,-36,-2432,-2686,189,453,-329,1,0,40,9,760,1,53298,1
2,30955,30190,31657,60208,23468,-3499,931,-3122,851,-1119,-559,182,460,-322,1,0,40,9,800,1,53298,1
2,30935,32622,31625,60209,23474,-3559,610,-2909,-1348,90,2516,178,442,-316,1,0,40,9,840,1,53298,1
2,30999,30580,31675,60210,23480,-3559,80,-3369,-1796,1411,4323,174,448,-320,1,0,40,9,880,1,53298,1
2,31050,30605,31673,60211,23486,-3697,274,-3151,442,3002,5406,164,454,-324,1,0,40,9,920,1,53298,1
2,31171,30599,31680,60212,23492,-3860,-479,-2517,-53,4199,5154,157,445,-333,1,0,40,9,960,1,53298,1
1,31353,30617,31685,60213,0,-3769,-92,-2964,4277,5457,4189,154,442,-342,1,0,40,10,0,0,53298,1
2,31545,30620,31698,60214,22878,-3758,592,-1918,5637,5304,4333,155,439,-359,1,0,40,10,40,0,53298,1
2,31606,30616,31699,60215,22883,-3633,195,-1793,1478,3041,4518,138,434,-362,1,0,40,10,80,0,53298,1
2,31538,30618,31689,60216,22889,-3405,462,-2772,-3971,1096,4202,134,430,-356,1,0,40,10,120,0,53298,1
2,31504,30618,31689,60217,22894,-2856,366,-3052,-5453,177,4916,119,427,-345,1,0,40,10,160,0,53298,1
2,31528,30618,31703,60218,22899,-3135,689,-2975,-3305,722,5864,122,426,-354,1,0,40,10,200,0,53298,1
2,31660,30621,31715,60219,22905,-3089,655,-3696,-2139,1625,6826,113,423,-357,1,0,40,10,240,0,53298,1
2,31983,30619,31720,60220,22912,-3604,359,-3151,-1738,2538,7369,98,414,-350,1,0,40,10,280,0,53298,1
2,31892,30616,31715,60221,22918,-3572,407,-2995,-3607,1787,5991,92,422,-354,1,0,40,10,320,0,53298,1
2,31361,30613,31701,60222,22923,-3471,1418,-1819,-6561,-308,4776,88,414,-350,1,0,40,10,360,0,53298,1
2,31035,30614,31684,60223,22928,-2841,418,-2484,-10786,-1865,4513,71,407,-337,1,0,40,10,400,0,53298,1
2,30933,30610,31676,60224,22932,-2842,411,-2302,-8879,-2585,3649,59,403,-323,1,0,40,10,440,0,53298,1
2,30890,30608,31675,60225,22938,-2572,785,-2532,-5409,-2396,2523,60,410,-328,1,0,40,10,480,0,53298,1
2,30868,30597,31678,60226,22942,-2883,534,-2376,-2585,-1602,1484,67,403,-325,1,0,40,10,520,0,53298,1
2,30863,30585,31668,60227,22947,-3072,745,-2465,-35,-1463,-689,64,410,-312,1,0,40,10,560,0,53298,1
2,30877,30586,31659,60228,22952,-2971,-14,-2802,77,-1658,-3089,65,413,-315,1,0,40,10,600,0,53298,1
2,30886,30604,31650,60229,22957,-3119,404,-3148,1419,-292,-5230,74,420,-322,1,0,40,10,640,0,53298,1
2,30915,30601,31650,60230,22961,-3442,1019,-2135,8656,1295,-6768,91,419,-331,1,0,40,10,680,0,53298,1
2,30970,30610,31641,60231,22966,-3468,532,-2638,7345,433,-7561,99,423,-331,1,0,40,10,720,0,53298,1
2,31011,30615,31637,60232,22971,-3486,531,-2508,5198,460,-8417,110,428,-328,1,0,40,10,760,0,53298,1
2,31038,30613,31631,60233,22976,-3459,692,-2603,5058,-220,-8056,123,437,-331,1,0,40,10,800,0,53298,1
2,31080,30601,31635,60234,22981,-3297,-190,-2854,5220,-1154,-8093,134,440,-334,1,0,40,10,840,0,53298,1
2,31136,30595,31635,60235,22986,-3346,-508,-2380,5693,-1423,-8310,143,439,-333,1,0,40,10,880,0,53298,1
2,31220,30597,31641,60236,22991,-3638,453,-3238,7196,-712,-7725,149,439,-331,1,0,40,10,920,0,53298,1
2,31319,30596,31646,60237,22995,-3436,319,-2851,7952,-1595,-6176,172,450,-334,1,0,40,10,960,0,53298,1
1,31414,30602,31660,60238,0,-3537,52,-2851,3156,-1176,-5024,182,438,-342,1,0,40,11,0,0,53298,1
2,31430,30602,31677,60239,22378,-3654,717,-2752,4852,-1328,-3674,193,437,-335,1,0,40,11,40,0,53298,1
2,31347,30602,31681,60240,22382,-3650,461,-2650,3591,-1523,-885,174,442,-326,1,0,40,11,80,0,53298,1
2,31276,30602,31687,60241,22388,-3641,-453,-2843,-266,-1064,-188,184,442,-332,1,0,40,11,120,0,53298,1
2,31191,30600,31687,60242,22392,-3738,-178,-2854,486,-577,-142,171,439,-319,1,0,40,11,160,0,53298,1
2,31168,30588,31689,60243,22397,-3572,-110,-3343,-631,110,24,180,446,-332,1,0,40,11,200,0,53298,1
2,31220,30581,31687,60244,22401,-3362,181,-3695,-261,1756,1091,183,443,-343,1,0,40,11,240,0,53298,1
2,31350,30583,31690,60245,22406,-3192,-540,-3647,-666,3970,2265,181,443,-343,1,0,40,11,280,0,53298,1
2,31507,30590,31705,60246,22411,-3224,-592,-3130,680,6127,2413,172,440,-358,1,0,40,11,320,0,53298,1
2,31668,30594,31707,60247,22416,-3344,-112,-2516,3602,6938,2930,169,437,-359,1,0,40,11,360,0,53298,1
2,31660,30590,31700,60248,22422,-3653,170,-2417,2208,6146,3194,167,433,-373,1,0,40,11,400,0,53298,1
2,31594,30577,31697,60249,22426,-3556,-183,-2924,-2768,4038,3134,171,431,-367,1,0,40,11,440,0,53298,1
2,31546,30572,31694,60250,22431,-3505,-312,-2680,-5443,1790,3221,153,423,-367,1,0,40,11,480,0,53298,1
2,31515,30576,31679,60251,22435,-3287,136,-2550,-7141,339,3719,145,421,-369,1,0,40,11,520,0,53298,1
2,31482,30572,31669,60252,22440,-2873,15,-3185,-7287,-436,4641,139,421,-367,1,0,40,11,560,0,53298,1
2,31456,30573,31671,60253,22443,-3152,-21,-2876,-4331,209,5379,125,431,-371,1,0,40,11,600,0,53298,1
2,31414,30576,31689,60254,22447,-3259,463,-3051,-2967,616,5733,115,413,-367,1,0,40,11,640,0,53298,1
2,31394,30583,31696,60255,22452,-3211,328,-2945,-3287,589,5774,112,418,-368,1,0,40,11,680,0,53298,1
2,31396,30575,31703,60256,22457,-3233,869,-3234,-3350,319,5306,99,421,-367,1,0,40,11,720,0,53298,1
2,31428,30577,31708,60257,22462,-2712,1004,-4159,-3930,627,5704,92,416,-368,1,0,40,11,760,0,53298,1
2,31268,30593,31723,60258,22466,-2987,511,-3969,-4116,2583,6075,85,409,-359,1,0,40,11,800,0,53298,1
2,31073,30599,31700,60259,22471,-3862,1370,-3164,-6254,-1651,6388,68,400,-344,1,0,40,11,840,0,53298,1
2,30975,30595,31683,60260,22476,-2708,-275,-2370,-12729,-1712,4251,62,402,-342,1,0,40,11,880,0,53298,1
2,30928,30592,31675,60261,22481,-2565,70,-2522,-7609,-2265,1418,64,400,-344,1,0,40,11,920,0,53298,1
2,30906,30588,31668,60262,22486,-2126,1359,-2113,-1971,-1699,308,59,403,-339,1,0,40,11,960,0,53298,1
1,30910,30589,31666,60263,0,-2844,1102,-2042,-1519,-1751,509,73,401,-333,1,0,40,12,0,0,53298,1
2,30923,30593,31661,60264,21877,-3048,957,-2593,-1436,-2907,-148,64,408,-332,1,0,40,12,40,0,53298,1
2,30945,30585,31663,60265,21881,-2854,1493,-2823,-1448,-2510,-1400,62,406,-322,1,0,40,12,80,0,53298,1
2,30972,30583,31664,60266,21885,-3065,1449,-2241,55,-2012,-1280,71,411,-321,1,0,40,12,120,0,53298,1
2,31002,30587,31674,60267,21889,-3206,8,-2853,623,-2684,-1793,69,411,-317,1,0,40,12,160,0,53298,1
2,31094,30594,31698,60268,21893,-3281,127,-2673,2801,-1761,-3942,80,410,-312,1,0,40,12,200,0,53298,1
2,31422,30592,31668,60269,21897,-3927,839,-1546,5560,-1461,-6002,85,409,-311,1,0,40,12,240,0,53298,1
2,32133,30593,31621,60270,21901,-3660,1193,-2340,-598,-6553,-5616,81,419,-305,1,0,40,12,280,0,53298,1
2,32278,30592,31636,60271,21906,-3210,1428,-2149,-2309,-2822,-9085,101,429,-309,1,0,40,12,320,0,53298,1
2,31849,30593,31637,60272,21911,-3379,662,-2731,986,-2552,-8143,111,441,-309,1,0,40,12,360,0,53298,1
2,31553,30598,31645,60273,21916,-3519,615,-2734,3536,-2520,-7692,120,442,-304,1,0,40,12,400,0,53298,1
2,31381,30593,31650,60274,21922,-3716,816,-3041,6064,-1599,-6432,133,447,-309,1,0,40,12,440,0,53298,1
2,31434,30590,31644,60275,21927,-3393,8,-2820,4801,-571,-6874,148,444,-304,1,0,40,12,480,0,53298,1
2,31586,30590,31651,60276,21933,-3997,289,-2206,5012,-135,-7032,150,448,-302,1,0,40,12,520,0,53298,1
2,31743,30600,31658,60277,21939,-3319,1566,-2795,4572,342,-5457,157,447,-297,1,0,40,12,560,0,53298,1
2,31663,30612,31666,60278,21944,-3500,1224,-2907,3668,1792,-2347,160,442,-308,1,0,40,12,600,0,53298,1
2,31580,30609,31680,60279,21951,-3841,-162,-2768,1770,3233,-1198,159,443,-317,1,0,40,12,640,0,53298,1
2,31498,30555,31685,60280,21957,-4069,-314,-2018,4283,3716,-1584,163,447,-321,1,0,40,12,680,0,53298,1
2,31387,30080,31685,60281,21962,-3826,-316,-1946,4806,2293,-2112,171,443,-323,1,0,40,12,720,0,53298,1
2,31303,31744,31652,60282,21968,-3392,349,-3039,2989,1425,-1775,170,448,-326,1,0,40,12,760,0,53298,1
2,31369,30582,31711,60283,21974,-3355,1048,-3460,2737,2610,-298,180,450,-338,1,0,40,12,800,0,53298,1
2,31485,30103,31691,60284,21979,-3452,618,-3368,-177,4191,1583,173,445,-337,1,0,40,12,840,0,53298,1
2,31766,30585,31698,60285,21984,-3427,406,-2945,-789,5223,3689,158,436,-344,1,0,40,12,880,0,53298,1
2,32084,30519,31707,60286,21990,-3481,188,-2389,674,5248,5486,165,435,-357,1,0,40,12,920,0,53298,1
2,32032,30364,31699,60287,21995,-3873,195,-1179,255,3177,6353,141,429,-361,1,0,40,12,960,0,53298,1
1,31862,30415,31693,60288,0,-3254,-77,-3065,-7145,528,5484,136,438,-356,1,0,40,13,0,0,53298,1
2,31734,30357,31689,60289,21378,-3129,969,-2917,-7154,78,5849,126,426,-352,1,0,40,13,40,0,53298,1
2,31636,30302,31705,60290,21383,-3352,-17,-2809,-7260,155,7495,116,434,-352,1,0,40,13,80,0,53298,1
2,31714,30451,31715,60291,21387,-3416,354,-3526,-4740,1078,7976,100,422,-342,1,0,40,13,120,0,53298,1
2,32007,30491,31721,60292,21392,-3364,965,-3602,-455,2585,7795,84,412,-348,1,0,40,13,160,0,53298,1
2,32308,30543,31719,60293,21396,-3660,259,-3362,-2159,3017,7082,70,414,-354,1,0,40,13,200,0,53298,1
2,31724,30476,31716,60294,21401,-3650,1379,-1621,-3185,1604,5077,81,407,-349,1,0,40,13,240,0,53298,1
2,31149,30360,31702,60295,21405,-2662,1405,-2503,-6183,-737,4578,65,405,-355,1,0,40,13,280,0,53298,1
2,30995,30267,31697,60296,21410,-2812,629,-2199,-7856,-1727,5094,61,399,-339,1,0,40,13,320,0,53298,1
2,30932,30183,31695,60297,21415,-2789,437,-2165,-6682,-2382,4298,59,393,-333,1,0,40,13,360,0,53298,1
2,30900,30217,31666,60298,21419,-2969,565,-2372,-4405,-2527,2442,47,395,-325,1,0,40,13,400,0,53298,1
2,30898,30228,31660,60299,21424,-2959,-445,-2042,-2097,-2595,-178,49,397,-323,1,0,40,13,440,0,53298,1
2,30924,30230,31664,60300,21429,-3033,322,-2313,1589,-2848,-3123,56,398,-322,1,0,40,13,480,0,53298,1
2,30990,30233,31651,60301,21432,-3075,1027,-2401,3914,-3442,-4909,73,405,-317,1,0,40,13,520,0,53298,1
2,31171,30241,31649,60302,21437,-3089,289,-2788,2139,-3688,-6741,66,414,-310,1,0,40,13,560,0,53298,1
2,31586,30243,31654,60303,21441,-3157,1350,-2972,3480,-2736,-7292,86,424,-322,1,0,40,13,600,0,53298,1
2,31771,30253,31661,60304,21445,-3133,2164,-2698,4340,-2213,-5820,96,428,-312,1,0,40,13,640,0,53298,1
2,31886,30251,31664,60305,21449,-3268,1317,-3200,2533,-1542,-4884,90,424,-318,1,0,40,13,680,0,53298,1
2,31727,30272,31667,60306,21453,-3275,1640,-3257,4368,-186,-3487,89,429,-313,1,0,40,13,720,0,53298,1
2,31551,30235,31660,60307,21456,-3565,560,-2978,2055,1368,-2904,102,430,-318,1,0,40,13,760,0,53298,1
2,31424,30180,31658,60308,21460,-3804,131,-2657,469,2004,-3539,108,432,-334,1,0,40,13,800,0,53298,1
2,31368,30212,31658,60309,21464,-3632,268,-2569,2197,1241,-4144,122,432,-330,1,0,40,13,840,0,53298,1
2,31384,30246,31657,60310,21468,-3426,-107,-2648,1630,1083,-4641,121,425,-337,1,0,40,13,880,0,53298,1
2,31482,30268,31662,60311,21473,-3492,-722,-2484,5039,1793,-5337,133,429,-347,1,0,40,13,920,0,53298,1
2,31600,30362,31664,60312,21479,-3508,-343,-2092,7802,1519,-6465,148,442,-348,1,0,40,13,960,0,53298,1
1,31665,30450,31668,60313,0,-3720,69,-2035,6468,324,-7362,160,444,-340,1,0,40,14,0,0,53298,1
2,31567,30496,31676,60314,20879,-3253,1173,-2806,5486,335,-5951,169,443,-345,1,0,40,14,40,0,53298,1
2,31470,30127,31672,60315,20885,-3164,761,-3123,4371,1307,-3903,168,436,-334,1,0,40,14,80,0,53298,1
2,31356,30239,31640,60316,20890,-3360,-21,-2646,2055,1741,-2731,181,443,-349,1,0,40,14,120,0,53298,1
2,31290,30061,31649,60317,20895,-3430,-891,-2463,-285,602,-2268,177,443,-355,1,0,40,14,160,0,53298,1
2,31281,30012,31649,60318,20900,-3326,-425,-3192,-281,-248,-1854,183,443,-345,1,0,40,14,200,0,53298,1
2,31353,30021,31660,60319,20906,-2961,323,-3851,-98,672,-1322,181,447,-349,1,0,40,14,240,0,53298,1
2,31597,29973,31675,60320,20911,-3242,-256,-3741,-169,2780,188,180,436,-358,1,0,40,14,280,0,53298,1
2,31962,29916,31686,60321,20916,-3744,467,-2768,4794,4309,2497,182,432,-364,1,0,40,14,320,0,53298,1
2,32287,30053,31687,60322,20922,-3543,418,-3054,2366,4438,3335,169,425,-371,1,0,40,14,360,0,53298,1
2,32257,30128,31695,60323,20927,-3780,-555,-2362,-716,4025,4052,171,427,-367,1,0,40,14,400,0,53298,1
2,32080,30122,31689,60324,20932,-3551,-354,-2912,-3372,2622,3774,163,431,-379,1,0,40,14,440,0,53298,1
2,31850,30120,31674,60325,20936,-3247,247,-2932,-4667,1669,4061,149,429,-377,1,0,40,14,480,0,53298,1
2,31728,30115,31675,60326,20940,-2969,101,-3261,-5321,884,5337,150,426,-382,1,0,40,14,520,0,53298,1
2,31615,30069,31678,60327,20944,-2809,551,-3111,-4433,956,6692,130,420,-358,1,0,40,14,560,0,53298,1
2,31612,30087,31680,60328,20949,-3093,464,-3164,-4960,1237,8033,117,425,-377,1,0,40,14,600,0,53298,1
2,31711,30093,31688,60329,20954,-2995,248,-4132,-5937,1977,8395,109,417,-373,1,0,40,14,640,0,53298,1
2,31600,30086,31694,60330,20959,-3399,237,-3628,-3912,2699,8299,89,409,-377,1,0,40,14,680,0,53298,1
2,31199,30034,31688,60331,20964,-3735,1057,-1220,-5537,-446,7222,86,416,-362,1,0,40,14,720,0,53298,1
2,30966,29995,31676,60332,20969,-2321,-152,-3414,-12614,-1087,4783,73,401,-357,1,0,40,14,760,0,53298,1
2,30880,29991,31669,60333,20973,-3006,459,-2217,-7967,-1671,4131,68,404,-354,1,0,40,14,800,0,53298,1
2,30863,30010,31668,60334,20977,-2661,144,-2158,-7585,-2062,3121,67,403,-333,1,0,40,14,840,0,53298,1
2,30856,30021,31666,60335,20982,-2570,228,-2221,-3274,-2703,1029,62,396,-340,1,0,40,14,880,0,53298,1
2,30870,30019,31665,60336,20987,-2410,368,-2767,143,-2840,-1412,63,403,-341,1,0,40,14,920,0,53298,1
2,30901,30021,31660,60337,20991,-2860,873,-2802,1678,-1709,-3528,69,405,-337,1,0,40,14,960,0,53298,1
1,31008,30020,31658,60338,0,-2920,-6,-2829,2079,-1448,-5543,71,415,-341,1,0,40,15,0,0,53298,1
2,31328,30025,31664,60339,20381,-3457,2579,-2001,5605,-1827,-6362,86,420,-344,1,0,40,15,40,0,53298,1
2,31699,30023,31650,60340,20386,-3066,1842,-3624,1893,-3200,-4847,95,415,-335,1,0,40,15,80,0,53298,1
2,31619,30028,31655,60341,20392,-3065,542,-3434,1058,-494,-3254,96,420,-346,1,0,40,15,120,0,53298,1
2,31512,30053,31663,60342,20398,-3802,917,-2320,4429,213,-2772,100,418,-338,1,0,40,15,160,0,53298,1
2,31446,30073,31659,60343,20403,-3529,367,-2630,2750,-1629,-3624,99,431,-327,1,0,40,15,200,0,53298,1
2,31348,30155,31664,60344,20409,-3326,333,-2772,2442,-1934,-4033,103,427,-333,1,0,40,15,240,0,53298,1
2,31315,30175,31658,60345,20414,-3377,829,-2527,3217,-2043,-4091,111,439,-335,1,0,40,15,280,0,53298,1
2,31342,30151,31652,60346,20419,-3360,242,-2313,633,-2319,-4164,136,434,-332,1,0,40,15,320,0,53298,1
2,31424,30087,31634,60347,20424,-3659,-690,-2225,-182,-3069,-5167,132,436,-324,1,0,40,15,360,0,53298,1
2,31608,30077,31640,60348,20430,-3529,-935,-2551,274,-3554,-7360,143,447,-327,1,0,40,15,400,0,53298,1
2,31581,30097,31660,60349,20437,-3760,529,-2146,6080,-2776,-8089,156,446,-316,1,0,40,15,440,0,53298,1
2,31322,30028,31660,60350,20442,-3812,1545,-2233,7022,-3505,-6223,160,448,-316,1,0,40,15,480,0,53298,1
2,31170,29964,31670,60351,20448,-3591,312,-3142,-1412,-3012,-4435,168,456,-312,1,0,40,15,520,0,53298,1
2,31071,29942,31665,60352,20455,-3962,542,-2796,-152,-1755,-3011,180,454,-304,1,0,40,15,560,0,53298,1
2,31035,30016,31663,60353,20462,-3765,-232,-2713,-1839,-1423,-2129,179,455,-311,1,0,40,15,600,0,53298,1
2,31031,29878,31655,60354,20470,-3560,-291,-3205,-1721,-367,-1806,181,455,-305,1,0,40,15,640,0,53298,1
2,31057,30485,31670,60355,20478,-3105,165,-3538,2360,1837,-709,181,453,-311,1,0,40,15,680,0,53298,1
2,31110,30502,31675,60356,20487,-3334,-35,-3364,4053,4688,654,179,451,-327,1,0,40,15,720,0,53298,1
2,31223,30562,31684,60357,20494,-3842,120,-2253,7211,6444,1695,174,448,-332,1,0,40,15,760,0,53298,1
2,31293,30591,31687,60358,20501,-4019,215,-2129,5637,5946,1889,180,442,-330,1,0,40,15,800,0,53298,1
2,31337,30574,31691,60359,20508,-3817,-120,-2139,689,4067,2223,180,438,-344,1,0,40,15,840,0,53298,1
2,31432,30593,31687,60360,20515,-3496,-93,-2874,-3279,2510,2494,158,430,-346,1,0,40,15,880,0,53298,1
2,31575,30587,31695,60361,20522,-3277,35,-2911,-3200,2456,3220,159,441,-355,1,0,40,15,920,0,53298,1
2,31643,30575,31701,60362,20528,-3787,744,-1064,-326,1409,5178,153,437,-347,1,0,40,15,960,0,53298,1
1,31585,30564,31688,60363,0,-3573,114,-2489,-5861,-1242,6468,143,431,-345,1,0,40,16,0,1,53298,1
2,31607,30529,31693,60364,19882,-3415,531,-2696,-8576,-2817,7585,131,435,-339,1,0,40,16,40,1,53298,1
2,31815,30482,31709,60365,19887,-3254,892,-3037,-7791,-3573,8800,105,427,-335,1,0,40,16,80,1,53298,1
2,32336,30485,31725,60366,19894,-3515,484,-3200,-5543,-2283,9552,95,427,-323,1,0,40,16,120,1,53298,1
2,33837,30487,31722,60367,19900,-4021,76,-2457,-2053,-1230,8248,89,427,-329,1,0,40,16,160,1,53298,1
2,35783,30416,31716,60368,19906,-4329,580,-2049,-3507,-933,4941,86,414,-320,1,0,40,16,200,1,53298,1
2,36415,30430,31715,60369,19912,-3448,843,-2496,-6437,-1352,2208,79,421,-309,1,0,40,16,240,1,53298,1
2,36836,30397,31732,60370,19918,-3018,1603,-2984,-3690,-952,2146,76,426,-312,1,0,40,16,280,1,53298,1
2,35908,30276,31750,60371,19924,-2943,1569,-2848,-2206,-35,4011,69,413,-311,1,0,40,16,320,1,53298,1
2,34063,30391,31768,60372,19929,-3309,1221,-2249,1982,459,6137,57,413,-303,1,0,40,16,360,1,53298,1
2,32312,30381,31770,60373,19934,-3355,765,-2640,-1223,-538,5755,54,406,-318,1,0,40,16,400,1,53298,1
2,31694,30346,31768,60374,19939,-3002,351,-2020,-4612,-362,3299,56,400,-310,1,0,40,16,440,1,53298,1
2,31428,30309,31740,60375,19944,-2875,187,-2030,-3144,-251,1055,55,399,-305,1,0,40,16,480,1,53298,1
2,31543,30317,31733,60376,19949,-2920,42,-1922,-1131,-474,-1037,54,400,-304,1,0,40,16,520,1,53298,1
2,31994,30305,31682,60377,19954,-2838,622,-2147,1147,-567,-2187,58,402,-300,1,0,40,16,560,1,53298,1
2,32727,30296,31655,60378,19959,-3740,587,-2411,3993,-968,-3156,66,412,-306,1,0,40,16,600,1,53298,1
2,32474,30304,31643,60379,19964,-3739,891,-2580,3040,-1266,-6157,77,419,-305,1,0,40,16,640,1,53298,1
2,31985,30285,31667,60380,19968,-3240,1376,-2481,177,175,-9536,85,423,-309,1,0,40,16,680,1,53298,1
2,31619,30285,31675,60381,19972,-3284,953,-2535,1944,215,-8182,99,425,-317,1,0,40,16,720,1,53298,1
2,31447,30252,31673,60382,19978,-3363,399,-2566,3238,579,-7900,103,429,-317,1,0,40,16,760,1,53298,1
2,31355,30254,31672,60383,19984,-3498,380,-2608,4602,1299,-8115,124,432,-318,1,0,40,16,800,1,53298,1
2,31382,30261,31670,60384,19989,-3754,335,-2157,6931,1480,-8279,128,446,-322,1,0,40,16,840,1,53298,1
2,31504,30277,31665,60385,19995,-3758,-372,-2396,4873,314,-9026,139,437,-317,1,0,40,16,880,1,53298,1
2,31854,30258,31668,60386,19999,-3745,-557,-2704,4816,212,-9501,161,445,-323,1,0,40,16,920,1,53298,1
2,31968,30279,31686,60387,20004,-3943,365,-2170,10269,215,-8739,179,445,-317,1,0,40,16,960,1,53298,1
1,31609,30333,31684,60388,0,-4492,1758,-2251,10242,-1956,-6246,191,445,-325,1,0,40,17,0,1,53298,1
2,31330,30329,31680,60389,19382,-3842,393,-3204,-1527,-2884,-4481,192,444,-312,1,0,40,17,40,1,53298,1
2,31248,30340,31676,60390,19387,-3492,-330,-3262,-2548,-1140,-3168,189,449,-315,1,0,40,17,80,1,53298,1
2,31235,29977,31670,60391,19394,-3415,-507,-2970,392,714,-2437,200,456,-318,1,0,40,17,120,1,53298,1
2,31263,30376,31660,60392,19401,-3485,-530,-2758,3235,2202,-1857,193,449,-323,1,0,40,17,160,1,53298,1
2,31340,30444,31690,60393,19408,-3395,-471,-2730,5331,2749,-702,199,451,-329,1,0,40,17,200,1,53298,1
2,31404,31014,31651,60394,19414,-3417,-317,-2922,5234,3096,-6,199,441,-331,1,0,40,17,240,1,53298,1
2,31482,29984,31679,60395,19421,-3728,-468,-2608,3808,3355,593,207,451,-343,1,0,40,17,280,1,53298,1
2,31570,30319,31695,60396,19428,-3573,-429,-2648,1417,3336,1011,193,447,-339,1,0,40,17,320,1,53298,1
2,31577,31958,31648,60397,19434,-3396,-32,-2917,334,3121,1482,191,443,-347,1,0,40,17,360,1,53298,1
2,31560,29966,31656,60398,19440,-3423,-815,-2662,-278,3455,2661,190,454,-354,1,0,40,17,400,1,53298,1
2,31542,29983,31660,60399,19446,-3165,-208,-2944,708,3516,3823,190,438,-348,1,0,40,17,440,1,53298,1
2,31661,30251,31668,60400,19451,-3014,-497,-3297,-1323,3778,4876,188,440,-360,1,0,40,17,480,1,53298,1
2,31931,30355,31677,60401,19456,-3274,-973,-2780,-2033,4253,5806,169,433,-367,1,0,40,17,520,1,53298,1
2,31934,30505,31697,60402,19462,-4118,-142,-1520,-2614,2298,5516,150,442,-362,1,0,40,17,560,1,53298,1
2,31802,30498,31695,60403,19468,-3168,-69,-3263,-10616,215,4141,149,425,-363,1,0,40,17,600,1,53298,1
2,31720,30487,31689,60404,19473,-2940,105,-3168,-9914,-281,4539,133,439,-369,1,0,40,17,640,1,53298,1
2,31700,30494,31695,60405,19479,-3015,213,-3017,-6420,493,5564,134,434,-362,1,0,40,17,680,1,53298,1
2,31785,30505,31702,60406,19484,-3217,639,-3210,-2293,1092,6690,119,421,-375,1,0,40,17,720,1,53298,1
2,32044,30503,31710,60407,19489,-3494,480,-3424,-2118,1659,7545,109,421,-369,1,0,40,17,760,1,53298,1
2,32625,30504,31717,60408,19495,-3832,336,-3401,-3896,1808,7089,92,422,-364,1,0,40,17,800,1,53298,1
2,33016,30509,31708,60409,19500,-3516,474,-3329,-5787,1128,5816,93,413,-357,1,0,40,17,840,1,53298,1
2,33099,30500,31699,60410,19506,-3067,255,-3505,-5137,1053,5020,78,414,-358,1,0,40,17,880,1,53298,1
2,31757,30473,31707,60411,19511,-2932,983,-2618,-2580,1792,4463,82,412,-354,1,0,40,17,920,1,53298,1
2,31135,30466,31695,60412,19516,-2825,615,-2436,-5001,-82,4429,69,405,-349,1,0,40,17,960,1,53298,1
1,31002,30465,31690,60413,0,-3318,-854,-1639,-8118,-1310,2908,62,410,-350,1,0,40,18,0,0,53298,1
2,31003,30440,31681,60414,18883,-2801,-1074,-1905,-5584,-2778,-1133,69,399,-337,1,0,40,18,40,0,53298,1
2,31065,30432,31675,60415,18889,-2692,308,-2029,2670,-3207,-4510,80,410,-332,1,0,40,18,80,0,53298,1
2,31242,30436,31675,60416,18894,-3060,527,-2704,5098,-3488,-6202,80,416,-332,1,0,40,18,120,0,53298,1
2,31514,30437,31669,60417,18898,-3286,616,-2603,5081,-3724,-7579,95,427,-345,1,0,40,18,160,0,53298,1
2,31706,30443,31673,60418,18903,-3276,1420,-2985,2174,-3992,-8081,111,429,-337,1,0,40,18,200,0,53298,1
2,31575,30441,31679,60419,18908,-3393,728,-3543,2761,-3612,-7449,118,434,-330,1,0,40,18,240,0,53298,1
2,31442,30459,31677,60420,18913,-3459,493,-2965,4567,-2450,-6794,125,439,-327,1,0,40,18,280,0,53298,1
2,31378,30462,31684,60421,18919,-3636,282,-3183,3687,-1756,-6841,145,429,-329,1,0,40,18,320,0,53298,1
2,31313,30474,31686,60422,18924,-3619,715,-2987,3326,-1085,-6103,135,437,-315,1,0,40,18,360,0,53298,1
2,31310,30480,31687,60423,18929,-3489,-45,-2740,1674,-452,-5106,152,438,-328,1,0,40,18,400,0,53298,1
2,31385,30514,31683,60424,18934,-3597,-562,-2837,2060,89,-5061,157,437,-329,1,0,40,18,440,0,53298,1
2,31503,30519,31692,60425,18939,-3806,-477,-2478,5457,406,-5395,172,448,-332,1,0,40,18,480,0,53298,1
2,31654,30495,31700,60426,18944,-3587,-285,-2855,7340,395,-5675,182,442,-338,1,0,40,18,520,0,53298,1
2,31656,30471,31704,60427,18950,-3590,1104,-2625,7094,-19,-4576,189,439,-327,1,0,40,18,560,0,53298,1
2,31605,30500,31711,60428,18957,-3292,-34,-3286,539,292,-2708,184,446,-334,1,0,40,18,600,0,53298,1
2,31565,30381,31709,60429,18963,-3514,-116,-2982,2172,1685,-1282,200,454,-338,1,0,40,18,640,0,53298,1
2,31491,29968,31680,60430,18969,-3557,-386,-2714,3018,2307,-352,187,447,-345,1,0,40,18,680,0,53298,1
2,31477,30248,31717,60431,18975,-3493,-1283,-2686,2419,2291,-70,189,447,-343,1,0,40,18,720,0,53298,1
2,31501,30397,31718,60432,18982,-3340,-300,-3018,3427,1989,-137,198,444,-352,1,0,40,18,760,0,53298,1
2,31630,30419,31709,60433,18989,-2917,316,-3812,1513,2397,1190,196,450,-350,1,0,40,18,800,0,53298,1
2,31922,30411,31717,60434,18995,-3102,-295,-3627,1089,4519,3166,185,445,-363,1,0,40,18,840,0,53298,1
2,32419,30406,31716,60435,19001,-3428,-356,-2748,2299,6078,4317,177,433,-359,1,0,40,18,880,0,53298,1
2,32632,30381,31730,60436,19008,-3658,283,-2213,628,5172,4991,172,434,-368,1,0,40,18,920,0,53298,1
2,32240,30378,31730,60437,19015,-3530,252,-2190,-6000,2497,5617,157,441,-373,1,0,40,18,960,0,53298,1
