sensorStatus,cap1,cap2,cap3,counter,microseconds_since_last_tick,accX,accY,accZ,gyroX,gyroY,gyroZ,magnetX,magnetY,magnetZ,day,hour,min,sec,msec,sync,battery_fuel,crc_good
1,32142,35235,32485,94439,19242,-4316,-231,-1405,6,-3,24,156,568,-216,1,1,2,59,40,0,53298,1
2,32137,35239,32480,94440,19257,-4345,-251,-1407,5,11,34,156,576,-218,1,1,2,59,80,0,53298,1
2,32140,35239,32480,94441,19274,-4325,-238,-1399,14,10,24,152,568,-214,1,1,2,59,120,0,53298,1
2,32143,35233,32484,94442,19290,-4314,-226,-1401,11,-5,16,150,574,-216,1,1,2,59,160,0,53298,1
2,32149,35246,32490,94443,19306,-4320,-240,-1420,0,-5,11,151,567,-213,1,1,2,59,200,0,53298,1
2,32144,35237,32483,94444,19321,-4325,-238,-1400,9,-15,22,143,571,-219,1,1,2,59,240,0,53298,1
2,32142,35234,32482,94445,19337,-4328,-238,-1404,8,-6,31,151,565,-217,1,1,2,59,280,0,53298,1
2,32142,35234,32485,94446,19353,-4321,-245,-1393,5,4,27,150,574,-212,1,1,2,59,320,0,53298,1
2,32144,35233,32481,94447,19369,-4324,-241,-1413,2,6,23,145,565,-209,1,1,2,59,360,0,53298,1
2,32138,35235,32481,94448,19385,-4313,-235,-1409,12,-5,9,152,570,-210,1,1,2,59,400,0,53298,1
2,32143,35233,32478,94449,19399,-4331,-245,-1400,3,-2,11,147,569,-223,1,1,2,59,440,0,53298,1
2,32138,35234,32480,94450,19414,-4310,-240,-1395,-10,-2,7,147,577,-213,1,1,2,59,480,0,53298,1
2,32138,35234,32479,94451,19429,-4327,-238,-1395,10,-2,20,147,573,-211,1,1,2,59,520,0,53298,1
2,32142,35232,32476,94452,19445,-4322,-232,-1398,14,2,13,140,562,-214,1,1,2,59,560,0,53298,1
2,32140,35230,32478,94453,19460,-4314,-240,-1409,-6,-7,6,155,571,-221,1,1,2,59,600,0,53298,1
2,32141,35229,32476,94454,19477,-4310,-239,-1415,-11,-22,-26,151,579,-205,1,1,2,59,640,0,53298,1
2,32137,35237,32478,94455,19493,-4325,-246,-1401,-12,-21,-53,152,566,-218,1,1,2,59,680,0,53298,1
2,32142,35230,32478,94456,19509,-4333,-244,-1402,-25,-8,-47,144,582,-214,1,1,2,59,720,0,53298,1
2,32138,35225,32482,94457,19524,-4329,-239,-1382,7,-8,10,150,572,-218,1,1,2,59,760,0,53298,1
2,32137,35232,32477,94458,19539,-4330,-239,-1394,46,4,64,146,570,-212,1,1,2,59,800,0,53298,1
2,32141,35234,32481,94459,19554,-4331,-236,-1400,44,29,96,136,576,-212,1,1,2,59,840,0,53298,1
2,32141,35232,32478,94460,19570,-4320,-246,-1413,57,27,69,141,567,-209,1,1,2,59,880,0,53298,1
2,32141,35231,32482,94461,19585,-4321,-238,-1426,-3,-3,39,149,565,-209,1,1,2,59,920,0,53298,1
2,32143,35235,32483,94462,19601,-4323,-253,-1409,-54,-27,27,143,573,-211,1,1,2,59,960,0,53298,1
1,32146,35233,32479,94463,0,-4340,-252,-1404,-100,-55,43,153,571,-217,1,1,3,0,0,0,53298,1
2,32147,35236,32485,94464,18771,-4321,-244,-1403,-124,-104,114,148,572,-202,1,1,3,0,40,0,53298,1
2,32145,35238,32482,94465,18786,-4307,-299,-1505,-169,-130,216,156,576,-216,1,1,3,0,80,0,53298,1
2,32155,35231,32487,94466,18802,-4270,-315,-1565,-39,-241,582,149,559,-211,1,1,3,0,120,0,53298,1
2,32201,35252,32505,94467,18817,-4075,-442,-2146,-1522,-14,207,145,573,-211,1,1,3,0,160,0,53298,1
2,32370,35332,32602,94468,18833,-4195,-761,-1954,-2820,386,-459,149,585,-221,1,1,3,0,200,0,53298,1
2,32647,35385,32659,94469,18849,-4263,-335,-1921,-112,730,-27,140,598,-220,1,1,3,0,240,0,53298,1
2,33626,35394,32662,94470,18865,-4210,335,-1595,5486,771,1046,142,602,-232,1,1,3,0,280,0,53298,1
2,34145,35342,32636,94471,18882,-4791,2114,1206,8278,-244,2487,130,602,-230,1,1,3,0,320,0,53298,1
2,33479,35323,32638,94472,18899,-3951,583,-2177,-1378,131,3337,127,593,-243,1,1,3,0,360,0,53298,1
2,33014,35301,32640,94473,18915,-4070,292,-1945,-4586,2459,3573,118,596,-244,1,1,3,0,400,0,53298,1
2,32570,35273,32643,94474,18931,-4275,252,-1390,-3683,3448,4315,102,590,-244,1,1,3,0,440,0,53298,1
2,32238,35241,32637,94475,18946,-4267,-235,-1888,-2624,2927,5038,90,582,-258,1,1,3,0,480,0,53298,1
2,32105,35220,32627,94476,18962,-4315,-328,-1623,695,2523,5027,80,580,-262,1,1,3,0,520,0,53298,1
2,32055,35210,32616,94477,18978,-4387,-117,-970,882,2236,3787,71,573,-271,1,1,3,0,560,0,53298,1
2,32042,35203,32612,94478,18995,-4448,-470,-1041,-2072,1630,1809,69,573,-263,1,1,3,0,600,0,53298,1
2,31836,30890,32384,94479,19011,-4496,-587,-1410,-2860,671,-410,63,571,-269,1,1,3,0,640,0,53298,1
2,32002,34693,32533,94480,19028,-4352,-457,-1177,-766,-503,-1801,82,582,-266,1,1,3,0,680,0,53298,1
2,32466,35225,32633,94481,19044,-4457,-465,-1347,-283,-1538,-3332,89,575,-261,1,1,3,0,720,0,53298,1
2,33183,34622,32490,94482,19060,-4380,-22,-1148,-201,-2650,-4865,99,587,-259,1,1,3,0,760,0,53298,1
2,34133,35210,32629,94483,19077,-4179,-88,-1520,-501,-3241,-5428,120,590,-246,1,1,3,0,800,0,53298,1
2,33877,35550,32702,94484,19093,-4207,-183,-1793,-101,-3068,-5755,135,589,-251,1,1,3,0,840,0,53298,1
2,33358,35656,32642,94485,19110,-4223,-156,-2051,90,-2234,-6152,151,597,-251,1,1,3,0,880,0,53298,1
2,32705,35668,32602,94486,19126,-4191,294,-1953,2117,-1691,-5556,173,599,-243,1,1,3,0,920,0,53298,1
2,32469,35670,32614,94487,19143,-4112,717,-1912,4165,-1268,-3831,177,617,-239,1,1,3,0,960,0,53298,1
1,32426,35695,32622,94488,0,-3923,1098,-1934,4223,-247,-1619,191,607,-259,1,1,3,1,0,1,53298,1
2,32585,35773,32619,94489,18302,-4031,1136,-1511,4024,934,1252,180,616,-250,1,1,3,1,40,1,53298,1
2,32935,35833,32615,94490,18319,-4163,669,-1270,1473,1678,3336,167,617,-255,1,1,3,1,80,1,53298,1
2,33660,35788,32606,94491,18336,-4174,427,-1348,66,1831,5026,154,596,-252,1,1,3,1,120,1,53298,1
2,34185,35593,32599,94492,18353,-4279,199,-1559,-1282,1957,5951,127,609,-255,1,1,3,1,160,1,53298,1
2,34370,35424,32580,94493,18370,-4323,-22,-1767,-2190,2192,6220,107,599,-263,1,1,3,1,200,1,53298,1
2,33989,35320,32585,94494,18387,-4234,-168,-2122,-1772,2712,6123,90,592,-260,1,1,3,1,240,1,53298,1
2,33062,35250,32594,94495,18403,-4271,-132,-1906,356,3400,5864,74,578,-282,1,1,3,1,280,1,53298,1
2,32347,35212,32590,94496,18419,-4506,16,-1157,1498,2860,5413,66,576,-272,1,1,3,1,320,1,53298,1
2,32066,35205,32595,94497,18434,-4390,-222,-1388,623,2235,4352,55,565,-291,1,1,3,1,360,1,53298,1
2,32006,35198,32598,94498,18450,-4230,-236,-1242,236,1198,2728,51,565,-289,1,1,3,1,400,1,53298,1
2,31980,35198,32604,94499,18467,-4167,-377,-1367,-774,607,985,41,563,-295,1,1,3,1,440,1,53298,1
2,31979,35190,32595,94500,18484,-4281,-416,-1456,-482,-468,-622,50,564,-280,1,1,3,1,480,1,53298,1
2,31991,35196,32601,94501,18501,-4211,-101,-1625,278,-1392,-2219,61,569,-285,1,1,3,1,520,1,53298,1
2,32060,35211,32610,94502,18519,-4347,-72,-1435,455,-2204,-3395,71,577,-275,1,1,3,1,560,1,53298,1
2,32216,35229,32612,94503,18537,-4492,-189,-1512,-1568,-2542,-4947,90,588,-268,1,1,3,1,600,1,53298,1
2,32724,35258,32623,94504,18554,-4454,-77,-1397,-2768,-2778,-6489,103,595,-269,1,1,3,1,640,1,53298,1
2,33950,35295,32610,94505,18571,-4287,525,-1157,-2863,-3408,-7036,119,597,-247,1,1,3,1,680,1,53298,1
2,34254,35390,32598,94506,18589,-4302,-176,-1713,-3013,-3244,-6928,147,599,-239,1,1,3,1,720,1,53298,1
2,33845,35514,32587,94507,18605,-4412,-297,-1624,-1246,-3013,-6864,163,613,-227,1,1,3,1,760,1,53298,1
2,33349,35728,32595,94508,18622,-4391,-372,-1798,-1304,-2433,-7151,190,606,-236,1,1,3,1,800,1,53298,1
2,32823,35779,32627,94509,18639,-4278,-13,-1551,1256,-2288,-6422,208,598,-238,1,1,3,1,840,1,53298,1
2,32465,35752,32637,94510,18656,-4190,373,-1456,4069,-2343,-4631,231,605,-241,1,1,3,1,880,1,53298,1
2,32368,35712,32645,94511,18673,-4058,633,-1521,4088,-1751,-2694,231,611,-235,1,1,3,1,920,1,53298,1
2,32405,35753,32655,94512,18690,-3994,842,-1632,2737,-557,-508,230,614,-228,1,1,3,1,960,1,53298,1
1,32647,35838,32639,94513,0,-4127,452,-1393,1041,549,1759,218,614,-242,1,1,3,2,0,0,53298,1
2,33110,35895,32627,94514,17832,-4175,252,-1460,-44,1205,3830,197,603,-237,1,1,3,2,40,0,53298,1
2,33997,35833,32620,94515,17849,-4341,46,-1282,76,1511,5406,172,610,-220,1,1,3,2,80,0,53298,1
2,34516,35597,32607,94516,17866,-4369,15,-1445,-180,1729,6268,155,599,-233,1,1,3,2,120,0,53298,1
2,34618,35440,32600,94517,17883,-4436,-258,-1800,-1323,2349,6366,134,600,-234,1,1,3,2,160,0,53298,1
2,33817,35357,32605,94518,17899,-4269,-387,-2218,-1102,3355,6266,108,596,-234,1,1,3,2,200,0,53298,1
2,32800,35302,32609,94519,17916,-4434,-6,-1576,988,4240,6325,105,591,-253,1,1,3,2,240,0,53298,1
2,32225,35256,32596,94520,17933,-4610,-240,-1454,895,3681,6288,89,595,-259,1,1,3,2,280,0,53298,1
2,32029,35240,32590,94521,17949,-4557,-259,-1239,594,3150,5318,70,584,-258,1,1,3,2,320,0,53298,1
2,31977,35229,32582,94522,17966,-4369,-425,-1254,-897,2584,3477,65,577,-275,1,1,3,2,360,0,53298,1
2,31964,35219,32574,94523,17983,-4367,-598,-1131,-1811,1896,1510,65,563,-275,1,1,3,2,400,0,53298,1
2,31969,35222,32575,94524,17999,-4338,-636,-1167,-576,492,-194,63,579,-271,1,1,3,2,440,0,53298,1
2,31997,35233,32583,94525,18015,-4317,-149,-1176,1002,-860,-1518,71,581,-279,1,1,3,2,480,0,53298,1
2,32094,35235,32585,94526,18031,-4489,-247,-1177,-270,-1712,-3041,84,588,-264,1,1,3,2,520,0,53298,1
2,32356,35258,32585,94527,18049,-4591,-423,-1290,-2769,-2284,-5141,99,607,-259,1,1,3,2,560,0,53298,1
2,33224,35299,32588,94528,18065,-4495,-274,-1213,-2782,-2959,-6760,124,598,-248,1,1,3,2,600,0,53298,1
2,34384,35347,32585,94529,18082,-4288,214,-1241,-900,-4130,-6792,140,600,-230,1,1,3,2,640,0,53298,1
2,34175,35482,32584,94530,18099,-4251,-198,-1705,-101,-4181,-6447,158,602,-232,1,1,3,2,680,0,53298,1
2,33821,35655,32591,94531,18116,-4355,-184,-1872,454,-3467,-6524,181,603,-225,1,1,3,2,720,0,53298,1
2,33246,35808,32605,94532,18133,-4352,157,-1757,331,-2539,-6326,197,611,-231,1,1,3,2,760,0,53298,1
2,32921,35834,32619,94533,18151,-4234,546,-1548,3126,-2355,-4347,212,614,-226,1,1,3,2,800,0,53298,1
2,32855,35851,32627,94534,18169,-4101,809,-1566,3406,-1656,-2023,216,608,-224,1,1,3,2,840,0,53298,1
2,33000,35875,32620,94535,18187,-4133,635,-1208,1649,-447,161,209,607,-231,1,1,3,2,880,0,53298,1
2,33202,35851,32610,94536,18205,-4219,42,-1186,-1263,426,1630,208,598,-228,1,1,3,2,920,0,53298,1
2,33618,35811,32604,94537,18223,-4201,-220,-1605,-2196,1010,2659,186,604,-218,1,1,3,2,960,0,53298,1
1,34079,35687,32599,94538,0,-4370,-268,-1447,-660,1334,3578,180,612,-236,1,1,3,3,0,0,53298,1
2,34438,35553,32591,94539,17362,-4477,-315,-1448,228,1409,4151,163,589,-215,1,1,3,3,40,0,53298,1
2,34655,35432,32591,94540,17380,-4369,-239,-1484,49,1794,4179,143,609,-217,1,1,3,3,80,0,53298,1
2,34447,35363,32592,94541,17398,-4293,-193,-1597,-448,2337,4063,137,605,-219,1,1,3,3,120,0,53298,1
2,33667,35319,32597,94542,17416,-4342,-136,-1449,-457,2907,4048,130,602,-230,1,1,3,3,160,0,53298,1
2,33014,35284,32594,94543,17434,-4452,-198,-1247,-37,2825,3962,107,595,-247,1,1,3,3,200,0,53298,1
2,32617,35267,32593,94544,17453,-4458,-306,-1226,334,2296,3491,101,597,-239,1,1,3,3,240,0,53298,1
2,32428,35254,32591,94545,17470,-4461,-396,-1114,66,1664,2482,96,596,-250,1,1,3,3,280,0,53298,1
2,32423,35260,32590,94546,17487,-4428,-521,-1144,-514,1054,1119,102,594,-258,1,1,3,3,320,0,53298,1
2,32518,35266,32596,94547,17504,-4299,-369,-1295,16,296,-97,104,600,-254,1,1,3,3,360,0,53298,1
2,32797,35275,32597,94548,17521,-4378,-252,-1256,704,-405,-968,101,597,-255,1,1,3,3,400,0,53298,1
2,33266,35296,32599,94549,17537,-4484,-185,-1199,-374,-913,-2028,106,604,-244,1,1,3,3,440,0,53298,1
2,33947,35321,32596,94550,17554,-4442,-106,-1213,-1654,-1478,-3084,125,595,-247,1,1,3,3,480,0,53298,1
2,34208,35364,32590,94551,17571,-4346,-158,-1359,-1585,-1969,-3555,133,599,-243,1,1,3,3,520,0,53298,1
2,34196,35425,32592,94552,17589,-4277,-189,-1472,-998,-2096,-3766,149,599,-231,1,1,3,3,560,0,53298,1
2,34034,35497,32596,94553,17606,-4299,-219,-1519,-311,-1989,-3757,151,595,-221,1,1,3,3,600,0,53298,1
2,33886,35613,32592,94554,17622,-4320,-169,-1545,-20,-1740,-3747,157,597,-221,1,1,3,3,640,0,53298,1
2,33659,35689,32596,94555,17639,-4317,-23,-1477,657,-1567,-3385,177,615,-233,1,1,3,3,680,0,53298,1
2,33399,35735,32606,94556,17657,-4253,83,-1445,1200,-1362,-2680,193,601,-233,1,1,3,3,720,0,53298,1
2,33279,35763,32603,94557,17674,-4205,171,-1524,1103,-900,-1811,193,603,-237,1,1,3,3,760,0,53298,1
2,33304,35769,32602,94558,17692,-4145,348,-1497,1152,-294,-607,185,601,-227,1,1,3,3,800,0,53298,1
2,33506,35750,32601,94559,17709,-4249,209,-1341,659,257,806,186,594,-220,1,1,3,3,840,0,53298,1
2,33763,35705,32593,94560,17727,-4273,20,-1430,-151,552,1937,183,607,-225,1,1,3,3,880,0,53298,1
2,34156,35614,32590,94561,17745,-4254,7,-1387,-46,768,2863,173,597,-229,1,1,3,3,920,0,53298,1
2,34363,35484,32595,94562,17762,-4296,-49,-1475,156,1064,3581,152,602,-222,1,1,3,3,960,0,53298,1
1,34324,35390,32593,94563,0,-4266,-25,-1601,430,1585,4001,149,601,-227,1,1,3,4,0,0,53298,1
2,33741,35328,32599,94564,16893,-4245,-80,-1754,708,2279,4305,129,595,-245,1,1,3,4,40,0,53298,1
2,32953,35283,32596,94565,16909,-4370,19,-1370,1001,2723,4458,124,606,-244,1,1,3,4,80,0,53298,1
2,32343,35265,32596,94566,16926,-4502,-153,-1404,400,2607,4353,101,597,-243,1,1,3,4,120,0,53298,1
2,32163,35249,32595,94567,16942,-4491,-270,-1279,-171,2246,3641,105,587,-263,1,1,3,4,160,0,53298,1
2,32096,35242,32593,94568,16958,-4442,-495,-1263,-864,1836,2409,89,593,-257,1,1,3,4,200,0,53298,1
2,32097,35242,32600,94569,16975,-4438,-688,-1183,-1059,1170,875,98,590,-262,1,1,3,4,240,0,53298,1
2,32149,35250,32601,94570,16991,-4409,-571,-1233,-820,221,-841,95,585,-247,1,1,3,4,280,0,53298,1
2,32306,35262,32603,94571,17007,-4508,-569,-1139,-834,-731,-2540,101,605,-263,1,1,3,4,320,0,53298,1
2,32954,35284,32604,94572,17023,-4489,-532,-1139,-1567,-1583,-4368,117,599,-243,1,1,3,4,360,0,53298,1
2,33824,35337,32604,94573,17040,-4356,18,-924,-1048,-2674,-5386,145,599,-245,1,1,3,4,400,0,53298,1
2,34114,35406,32604,94574,17056,-4306,-249,-1389,-580,-3302,-5460,159,599,-239,1,1,3,4,440,0,53298,1
2,33843,35509,32599,94575,17073,-4412,-362,-1638,-171,-3171,-5679,167,605,-233,1,1,3,4,480,0,53298,1
2,33526,35693,32612,94576,17091,-4434,-275,-1797,-165,-2560,-5958,192,606,-228,1,1,3,4,520,0,53298,1
2,33072,35782,32619,94577,17108,-4337,231,-1693,1598,-2177,-5144,206,606,-230,1,1,3,4,560,0,53298,1
2,32889,35816,32624,94578,17125,-4116,638,-1573,3956,-1871,-3006,217,609,-235,1,1,3,4,600,0,53298,1
2,32914,35840,32621,94579,17141,-3968,804,-1555,3220,-843,-825,224,612,-230,1,1,3,4,640,0,53298,1
2,33173,35859,32626,94580,17157,-4114,607,-1132,1704,221,1417,201,605,-233,1,1,3,4,680,0,53298,1
2,33474,35819,32612,94581,17173,-4158,114,-1405,-914,906,2951,181,615,-223,1,1,3,4,720,0,53298,1
2,33920,35735,32604,94582,17189,-4240,-78,-1592,-1277,1381,4136,182,608,-230,1,1,3,4,760,0,53298,1
2,34467,35593,32591,94583,17205,-4455,-197,-1470,-332,1648,5006,156,604,-228,1,1,3,4,800,0,53298,1
2,34671,35444,32591,94584,17222,-4465,-372,-1636,149,1875,5299,143,597,-229,1,1,3,4,840,0,53298,1
2,34527,35367,32594,94585,17238,-4392,-326,-1672,242,2404,5000,125,593,-241,1,1,3,4,880,0,53298,1
2,33639,35313,32598,94586,17254,-4373,-215,-1461,-199,3047,4380,108,600,-240,1,1,3,4,920,0,53298,1
2,32894,35284,32597,94587,17270,-4463,-263,-1219,-372,2900,3903,112,592,-246,1,1,3,4,960,0,53298,1
1,32421,35264,32597,94588,0,-4502,-402,-1224,250,2234,3333,101,593,-253,1,1,3,5,0,1,53298,1
2,32305,35250,32592,94589,16423,-4553,-507,-1041,44,1394,2067,96,594,-254,1,1,3,5,40,1,53298,1
2,32317,35251,32591,94590,16439,-4506,-732,-1052,-1532,632,48,101,585,-259,1,1,3,5,80,1,53298,1
2,32490,35272,32600,94591,16456,-4358,-535,-1218,-1534,-307,-1817,100,596,-252,1,1,3,5,120,1,53298,1
2,32845,35292,32604,94592,16472,-4446,-463,-1203,-358,-1259,-3065,112,600,-242,1,1,3,5,160,1,53298,1
2,33696,35319,32600,94593,16488,-4464,-206,-1171,-384,-1953,-4183,134,592,-250,1,1,3,5,200,1,53298,1
2,34142,35373,32600,94594,16503,-4390,47,-1182,-520,-2622,-4683,146,602,-230,1,1,3,5,240,1,53298,1
2,34124,35442,32599,94595,16520,-4316,-141,-1513,-1087,-2770,-4832,157,593,-223,1,1,3,5,280,1,53298,1
2,33948,35545,32608,94596,16536,-4294,-195,-1647,-706,-2501,-4775,170,600,-228,1,1,3,5,320,1,53298,1
2,33746,35677,32607,94597,16552,-4273,-25,-1593,219,-2122,-4374,186,602,-232,1,1,3,5,360,1,53298,1
2,33562,35755,32616,94598,16569,-4207,246,-1591,1639,-1856,-3244,199,601,-227,1,1,3,5,400,1,53298,1
2,33489,35791,32614,94599,16585,-4093,517,-1597,2398,-1225,-1647,194,610,-232,1,1,3,5,440,1,53298,1
2,33608,35794,32613,94600,16601,-4109,624,-1469,1944,-239,190,201,601,-225,1,1,3,5,480,1,53298,1
2,33796,35753,32605,94601,16618,-4254,205,-1278,167,548,1804,181,607,-223,1,1,3,5,520,1,53298,1
2,34129,35645,32602,94602,16635,-4246,-57,-1506,-1045,1010,2851,162,602,-222,1,1,3,5,560,1,53298,1
2,34401,35539,32602,94603,16652,-4318,-115,-1466,-221,1266,3699,161,603,-227,1,1,3,5,600,1,53298,1
2,34538,35447,32598,94604,16667,-4345,-150,-1549,374,1571,4274,153,593,-231,1,1,3,5,640,1,53298,1
2,34308,35363,32601,94605,16683,-4288,-156,-1744,551,2126,4471,131,597,-239,1,1,3,5,680,1,53298,1
2,33576,35323,32606,94606,16698,-4359,-60,-1499,780,2846,4403,116,594,-238,1,1,3,5,720,1,53298,1
2,32685,35294,32607,94607,16713,-4519,-108,-1230,503,2935,4202,105,595,-249,1,1,3,5,760,1,53298,1
2,32326,35274,32604,94608,16729,-4495,-243,-1242,348,2444,3752,106,590,-252,1,1,3,5,800,1,53298,1
2,32179,35255,32599,94609,16745,-4384,-344,-1252,7,1843,2779,89,593,-263,1,1,3,5,840,1,53298,1
2,32109,35252,32599,94610,16761,-4324,-495,-1313,-519,1357,1496,83,587,-247,1,1,3,5,880,1,53298,1
2,32107,35254,32598,94611,16777,-4335,-536,-1241,-349,674,220,91,589,-265,1,1,3,5,920,1,53298,1
2,32147,35250,32595,94612,16792,-4355,-382,-1305,-367,-104,-1109,100,600,-268,1,1,3,5,960,1,53298,1
1,32237,35258,32597,94613,0,-4458,-256,-1211,-446,-799,-2269,101,589,-263,1,1,3,6,0,1,53298,1
2,32440,35274,32602,94614,15954,-4486,-313,-1222,-1102,-1421,-3450,113,605,-253,1,1,3,6,40,1,53298,1
2,32997,35295,32601,94615,15970,-4446,-345,-1258,-1229,-1951,-4504,134,604,-246,1,1,3,6,80,1,53298,1
2,33690,35335,32603,94616,15987,-4346,-105,-1218,-538,-2575,-4999,143,605,-233,1,1,3,6,120,1,53298,1
2,34108,35384,32601,94617,16004,-4305,42,-1272,184,-3114,-4828,165,605,-239,1,1,3,6,160,1,53298,1
2,34078,35483,32603,94618,16021,-4315,-85,-1559,-226,-3080,-4550,177,601,-235,1,1,3,6,200,1,53298,1
2,33980,35575,32606,94619,16038,-4322,-77,-1679,-24,-2603,-4157,184,604,-226,1,1,3,6,240,1,53298,1
2,33817,35664,32613,94620,16055,-4296,113,-1603,412,-2024,-3400,192,600,-224,1,1,3,6,280,1,53298,1
2,33752,35721,32616,94621,16072,-4179,263,-1599,1474,-1519,-1949,192,612,-222,1,1,3,6,320,1,53298,1
2,33822,35719,32610,94622,16089,-4113,383,-1567,1707,-666,-336,191,607,-221,1,1,3,6,360,1,53298,1
2,33977,35691,32611,94623,16106,-4247,168,-1283,761,280,1077,188,600,-222,1,1,3,6,400,1,53298,1
2,34110,35612,32605,94624,16123,-4283,-106,-1508,-728,932,2048,185,599,-233,1,1,3,6,440,1,53298,1
2,34275,35537,32602,94625,16140,-4308,-163,-1500,-340,1360,2866,170,602,-224,1,1,3,6,480,1,53298,1
2,34380,35458,32596,94626,16156,-4318,-183,-1498,382,1666,3510,158,600,-224,1,1,3,6,520,1,53298,1
2,34297,35382,32596,94627,16172,-4299,-150,-1582,662,2033,3929,149,603,-231,1,1,3,6,560,1,53298,1
2,33840,35341,32599,94628,16189,-4349,-101,-1476,453,2597,4056,138,598,-228,1,1,3,6,600,1,53298,1
2,33252,35303,32603,94629,16206,-4465,-167,-1361,-74,2814,3997,124,592,-234,1,1,3,6,640,1,53298,1
2,32792,35290,32598,94630,16224,-4469,-239,-1279,104,2610,3772,112,600,-250,1,1,3,6,680,1,53298,1
2,32504,35276,32596,94631,16241,-4464,-357,-1189,-31,2200,3134,110,596,-248,1,1,3,6,720,1,53298,1
2,32437,35271,32596,94632,16257,-4434,-513,-1147,-721,1616,2022,104,596,-260,1,1,3,6,760,1,53298,1
2,32476,35275,32599,94633,16274,-4439,-621,-1077,-1206,807,554,107,585,-249,1,1,3,6,800,1,53298,1
2,32663,35281,32603,94634,16291,-4356,-447,-1206,-1001,-109,-840,115,593,-255,1,1,3,6,840,1,53298,1
2,32963,35303,32604,94635,16308,-4443,-427,-1157,-592,-942,-1961,114,606,-248,1,1,3,6,880,1,53298,1
2,33433,35321,32598,94636,16324,-4469,-419,-1253,-1072,-1545,-3164,130,594,-248,1,1,3,6,920,1,53298,1
2,33958,35364,32596,94637,16341,-4398,-207,-1187,-594,-2135,-3941,139,607,-245,1,1,3,6,960,1,53298,1
1,34054,35417,32595,94638,0,-4357,-230,-1383,-357,-2595,-4240,154,600,-232,1,1,3,7,0,1,53298,1
2,33977,35486,32595,94639,15484,-4350,-240,-1517,-216,-2665,-4401,158,600,-216,1,1,3,7,40,1,53298,1
2,33851,35604,32604,94640,15501,-4371,-179,-1570,-114,-2420,-4438,177,605,-213,1,1,3,7,80,1,53298,1
2,33650,35680,32609,94641,15519,-4311,-24,-1555,388,-2072,-4059,192,602,-228,1,1,3,7,120,1,53298,1
2,33485,35720,32611,94642,15535,-4206,195,-1564,1517,-1655,-2947,204,606,-228,1,1,3,7,160,1,53298,1
2,33482,35739,32617,94643,15552,-4135,373,-1566,1573,-914,-1565,208,606,-222,1,1,3,7,200,1,53298,1
2,33577,35722,32612,94644,15569,-4179,387,-1336,1031,-62,138,209,609,-227,1,1,3,7,240,1,53298,1
2,33745,35675,32607,94645,15585,-4291,-1,-1349,-734,587,1432,197,603,-231,1,1,3,7,280,1,53298,1
2,33942,35604,32601,94646,15601,-4286,-146,-1484,-1001,944,2385,174,600,-226,1,1,3,7,320,1,53298,1
2,34155,35524,32600,94647,15617,-4342,-172,-1420,-170,1216,3170,176,594,-226,1,1,3,7,360,1,53298,1
2,34217,35433,32594,94648,15634,-4350,-179,-1496,100,1593,3646,156,596,-236,1,1,3,7,400,1,53298,1
2,34108,35372,32597,94649,15651,-4299,-185,-1589,298,2033,3915,152,606,-236,1,1,3,7,440,1,53298,1
2,33590,35331,32601,94650,15667,-4312,-112,-1493,828,2499,4160,135,603,-231,1,1,3,7,480,1,53298,1
2,32994,35296,32601,94651,15684,-4374,-125,-1352,1199,2548,4307,109,595,-237,1,1,3,7,520,1,53298,1
2,32554,35272,32597,94652,15700,-4394,-127,-1306,1571,2285,4260,120,594,-242,1,1,3,7,560,1,53298,1
2,32283,35258,32596,94653,15716,-4479,-213,-1202,811,1983,3609,101,593,-255,1,1,3,7,600,1,53298,1
2,32201,35254,32595,94654,15733,-4483,-452,-1270,-760,1580,2354,107,595,-253,1,1,3,7,640,1,53298,1
2,32196,35255,32592,94655,15750,-4428,-640,-1264,-1092,948,947,100,594,-262,1,1,3,7,680,1,53298,1
2,32260,35256,32595,94656,15766,-4324,-501,-1278,-286,103,-430,94,592,-260,1,1,3,7,720,1,53298,1
2,32418,35268,32594,94657,15782,-4413,-347,-1154,75,-692,-1608,102,594,-254,1,1,3,7,760,1,53298,1
2,32904,35288,32598,94658,15799,-4568,-448,-1175,-1577,-1186,-3174,114,596,-230,1,1,3,7,800,1,53298,1
2,33573,35327,32593,94659,15816,-4503,-398,-1180,-2334,-1865,-4603,136,600,-250,1,1,3,7,840,1,53298,1
2,33972,35380,32588,94660,15833,-4415,-236,-1160,-1475,-2697,-5251,150,606,-244,1,1,3,7,880,1,53298,1
2,33807,35467,32591,94661,15849,-4383,-482,-1444,-913,-3141,-5591,169,611,-235,1,1,3,7,920,1,53298,1
2,33524,35638,32603,94662,15865,-4408,-553,-1637,-345,-2948,-6095,189,605,-231,1,1,3,7,960,1,53298,1
1,32999,35732,32616,94663,0,-4420,-221,-1553,507,-2631,-6265,208,610,-230,1,1,3,8,0,1,53298,1
2,32687,35737,32631,94664,15016,-4313,235,-1500,2735,-2598,-5014,233,601,-225,1,1,3,8,40,1,53298,1
2,32571,35735,32646,94665,15032,-4132,523,-1618,2913,-1952,-3229,247,615,-227,1,1,3,8,80,1,53298,1
2,32649,35756,32641,94666,15048,-4041,751,-1535,2069,-833,-977,237,611,-229,1,1,3,8,120,1,53298,1
2,32866,35795,32630,94667,15064,-4182,222,-1258,301,248,1232,235,601,-227,1,1,3,8,160,1,53298,1
2,33245,35785,32620,94668,15080,-4214,10,-1371,-767,846,2926,212,604,-228,1,1,3,8,200,1,53298,1
2,33874,35696,32607,94669,15097,-4280,-62,-1445,-402,1260,4310,195,597,-227,1,1,3,8,240,1,53298,1
2,34199,35510,32597,94670,15112,-4417,-155,-1481,-416,1795,5193,183,605,-227,1,1,3,8,280,1,53298,1
2,34028,35386,32594,94671,15128,-4452,-373,-1731,-637,2478,5539,148,602,-232,1,1,3,8,320,1,53298,1
2,33401,35316,32602,94672,15144,-4317,-335,-1896,9,3326,5551,134,606,-226,1,1,3,8,360,1,53298,1
2,32651,35275,32602,94673,15159,-4491,-103,-1086,1291,3632,5598,126,604,-240,1,1,3,8,400,1,53298,1
2,32197,35254,32593,94674,15175,-4487,-271,-1342,1185,3290,5496,112,594,-252,1,1,3,8,440,1,53298,1
2,32075,35240,32592,94675,15190,-4508,-273,-1180,998,2799,4722,101,597,-255,1,1,3,8,480,1,53298,1
2,32030,35234,32589,94676,15206,-4447,-437,-1211,-442,2508,3291,93,589,-265,1,1,3,8,520,1,53298,1
2,32021,35232,32587,94677,15221,-4404,-632,-1223,-825,1804,1750,98,592,-264,1,1,3,8,560,1,53298,1
2,32046,35246,32589,94678,15237,-4326,-463,-1319,178,715,323,88,594,-262,1,1,3,8,600,1,53298,1
2,32108,35243,32590,94679,15253,-4377,-293,-1211,1081,-309,-804,87,605,-257,1,1,3,8,640,1,53298,1
2,32348,35264,32594,94680,15268,-4504,-291,-1181,-559,-948,-2308,96,598,-264,1,1,3,8,680,1,53298,1
2,32867,35290,32601,94681,15284,-4523,-293,-1135,-2564,-1567,-3971,110,600,-264,1,1,3,8,720,1,53298,1
2,33828,35320,32594,94682,15300,-4421,-205,-1149,-2388,-2544,-4846,132,598,-246,1,1,3,8,760,1,53298,1
2,34073,35402,32590,94683,15316,-4351,-331,-1367,-1243,-3269,-5158,145,599,-243,1,1,3,8,800,1,53298,1
2,33905,35515,32593,94684,15333,-4366,-448,-1573,-470,-3374,-5545,161,605,-233,1,1,3,8,840,1,53298,1
2,33545,35660,32600,94685,15350,-4397,-401,-1665,-114,-3001,-6008,182,608,-224,1,1,3,8,880,1,53298,1
2,33185,35770,32607,94686,15366,-4404,-79,-1600,851,-2719,-5827,198,610,-228,1,1,3,8,920,1,53298,1
2,32942,35797,32622,94687,15383,-4258,335,-1562,3061,-2619,-4396,226,614,-228,1,1,3,8,960,1,53298,1
1,32893,35818,32636,94688,0,-4083,613,-1603,3030,-1806,-2612,223,603,-237,1,1,3,9,0,1,53298,1
2,33024,35830,32630,94689,14547,-4094,650,-1356,1660,-651,-543,219,609,-227,1,1,3,9,40,1,53298,1
2,33319,35819,32621,94690,14564,-4183,105,-1346,-775,208,1228,205,617,-233,1,1,3,9,80,1,53298,1
2,33713,35751,32612,94691,14580,-4217,-45,-1569,-1295,808,2655,196,598,-220,1,1,3,9,120,1,53298,1
2,34177,35631,32608,94692,14597,-4342,-77,-1451,-395,1270,3878,180,610,-222,1,1,3,9,160,1,53298,1
2,34466,35500,32602,94693,14613,-4429,-200,-1548,-84,1748,4760,161,597,-225,1,1,3,9,200,1,53298,1
2,34309,35381,32601,94694,14629,-4338,-218,-1683,25,2477,5039,144,610,-226,1,1,3,9,240,1,53298,1
2,33636,35327,32605,94695,14645,-4293,-178,-1757,404,3339,5214,131,601,-235,1,1,3,9,280,1,53298,1
2,32650,35283,32606,94696,14661,-4454,-77,-1240,842,3684,5324,121,609,-239,1,1,3,9,320,1,53298,1
2,32255,35268,32605,94697,14675,-4481,-261,-1399,913,3393,5224,103,597,-257,1,1,3,9,360,1,53298,1
2,32081,35246,32598,94698,14690,-4523,-201,-1188,801,2978,4442,89,589,-267,1,1,3,9,400,1,53298,1
2,32035,35236,32597,94699,14705,-4427,-347,-1296,-887,2603,3118,84,590,-270,1,1,3,9,440,1,53298,1
2,32022,35238,32594,94700,14721,-4295,-424,-1329,-1010,1965,1881,84,590,-264,1,1,3,9,480,1,53298,1
2,32047,35243,32593,94701,14736,-4306,-385,-1335,-165,1109,815,80,588,-272,1,1,3,9,520,1,53298,1
2,32102,35246,32599,94702,14751,-4367,-181,-1306,-220,371,-269,87,593,-273,1,1,3,9,560,1,53298,1
2,32231,35260,32604,94703,14767,-4466,-427,-1316,-1860,-140,-1881,88,594,-270,1,1,3,9,600,1,53298,1
2,32699,35280,32601,94704,14782,-4425,-355,-1111,-2770,-980,-3654,110,592,-268,1,1,3,9,640,1,53298,1
2,33409,35311,32598,94705,14798,-4314,-93,-981,-2215,-2284,-4570,124,610,-254,1,1,3,9,680,1,53298,1
2,34011,35371,32591,94706,14814,-4332,-505,-1443,-1652,-3077,-5117,129,597,-245,1,1,3,9,720,1,53298,1
2,33928,35498,32595,94707,14830,-4372,-416,-1536,-203,-3339,-5746,150,610,-240,1,1,3,9,760,1,53298,1
2,33637,35644,32602,94708,14846,-4408,-463,-1749,192,-3103,-6326,168,602,-236,1,1,3,9,800,1,53298,1
2,33104,35756,32610,94709,14861,-4383,-67,-1819,894,-2814,-6463,193,599,-245,1,1,3,9,840,1,53298,1
2,32816,35792,32617,94710,14877,-4208,467,-1634,3801,-2797,-4933,219,605,-243,1,1,3,9,880,1,53298,1
2,32756,35812,32621,94711,14894,-4024,743,-1706,3813,-2043,-2914,215,613,-243,1,1,3,9,920,1,53298,1
2,32963,35847,32621,94712,14910,-4018,822,-1504,2815,-818,-520,220,612,-238,1,1,3,9,960,1,53298,1
1,33349,35859,32620,94713,0,-4112,407,-1342,662,255,1572,202,614,-236,1,1,3,10,0,0,53298,1
2,34154,35800,32606,94714,14078,-4183,188,-1519,-333,888,3361,175,619,-219,1,1,3,10,40,0,53298,1
2,34935,35577,32597,94715,14094,-4338,19,-1482,-9,1278,4799,165,605,-223,1,1,3,10,80,0,53298,1
2,35511,35423,32595,94716,14110,-4497,-340,-1685,95,1704,5525,151,611,-229,1,1,3,10,120,0,53298,1
2,34510,35344,32601,94717,14126,-4384,-425,-1903,-74,2579,5321,136,600,-240,1,1,3,10,160,0,53298,1
2,33185,35294,32605,94718,14142,-4367,-199,-1627,-147,3559,4846,110,590,-236,1,1,3,10,200,0,53298,1
2,32426,35257,32600,94719,14157,-4529,-163,-1166,-643,3451,4639,116,600,-260,1,1,3,10,240,0,53298,1
2,32138,35247,32594,94720,14171,-4585,-362,-1137,-793,2897,4108,99,599,-261,1,1,3,10,280,0,53298,1
2,32085,35238,32594,94721,14186,-4596,-666,-1055,-1901,2151,2460,89,593,-255,1,1,3,10,320,0,53298,1
2,32107,35238,32594,94722,14200,-4480,-920,-1107,-3028,1194,181,96,590,-260,1,1,3,10,360,0,53298,1
2,32242,35255,32597,94723,14215,-4323,-621,-1191,-1164,-168,-1411,106,592,-262,1,1,3,10,400,0,53298,1
2,32644,35273,32603,94724,14229,-4439,-553,-1221,127,-1212,-2698,114,600,-258,1,1,3,10,440,0,53298,1
2,33960,35313,32600,94725,14244,-4449,-27,-944,-783,-2055,-4127,124,596,-244,1,1,3,10,480,0,53298,1
2,34719,35377,32593,94726,14259,-4390,-392,-1533,-1664,-2804,-4687,148,600,-240,1,1,3,10,520,0,53298,1
2,34425,35485,32593,94727,14274,-4267,-236,-1575,-472,-2835,-5041,164,602,-230,1,1,3,10,560,0,53298,1
2,33969,35631,32600,94728,14289,-4289,-393,-1837,372,-2382,-5115,176,596,-230,1,1,3,10,600,0,53298,1
2,33646,35814,32602,94729,14305,-4247,23,-1823,1500,-1932,-4804,189,611,-233,1,1,3,10,640,0,53298,1
2,33428,35872,32613,94730,14321,-4138,609,-1526,3874,-1733,-3123,198,604,-240,1,1,3,10,680,0,53298,1
2,33468,35898,32607,94731,14336,-4078,833,-1503,3922,-1226,-884,200,614,-232,1,1,3,10,720,0,53298,1
2,33720,35883,32614,94732,14351,-4230,585,-1215,1794,-238,1005,190,616,-220,1,1,3,10,760,0,53298,1
2,34193,35816,32602,94733,14366,-4184,190,-1446,-741,546,2278,180,610,-230,1,1,3,10,800,0,53298,1
2,34773,35632,32601,94734,14381,-4245,-33,-1571,-1033,1046,3353,171,611,-229,1,1,3,10,840,0,53298,1
2,35310,35484,32591,94735,14397,-4355,-195,-1584,0,1273,4260,151,605,-229,1,1,3,10,880,0,53298,1
2,35343,35394,32594,94736,14412,-4431,-316,-1727,-53,1711,4489,135,597,-227,1,1,3,10,920,0,53298,1
2,34357,35327,32595,94737,14428,-4306,-285,-1815,-457,2570,4090,124,602,-238,1,1,3,10,960,0,53298,1
1,33259,35291,32605,94738,0,-4357,-140,-1402,-368,3057,3749,111,603,-249,1,1,3,11,0,0,53298,1
2,32544,35270,32604,94739,13610,-4477,-285,-1233,-315,2886,3495,100,596,-250,1,1,3,11,40,0,53298,1
2,32369,35251,32599,94740,13625,-4648,-485,-1051,-879,2209,2492,93,597,-245,1,1,3,11,80,0,53298,1
2,32439,35264,32595,94741,13640,-4640,-827,-1025,-3032,1405,404,108,594,-260,1,1,3,11,120,0,53298,1
2,32680,35273,32593,94742,13656,-4372,-640,-1219,-2575,192,-1480,113,595,-261,1,1,3,11,160,0,53298,1
2,33257,35297,32599,94743,13670,-4312,-534,-1143,-281,-988,-2560,121,595,-259,1,1,3,11,200,0,53298,1
2,34252,35330,32594,94744,13685,-4298,-130,-1099,379,-1797,-3493,135,613,-243,1,1,3,11,240,0,53298,1
2,34415,35412,32597,94745,13699,-4310,-151,-1362,92,-2250,-4059,134,604,-234,1,1,3,11,280,0,53298,1
2,34189,35506,32596,94746,13714,-4342,-195,-1576,60,-2354,-4389,158,600,-242,1,1,3,11,320,0,53298,1
2,33915,35642,32598,94747,13728,-4327,-178,-1803,-45,-2062,-4545,170,610,-238,1,1,3,11,360,0,53298,1
2,33655,35774,32600,94748,13743,-4242,220,-1689,1473,-1872,-3852,184,600,-240,1,1,3,11,400,0,53298,1
2,33521,35812,32607,94749,13758,-4112,551,-1639,3007,-1442,-2242,189,607,-231,1,1,3,11,440,0,53298,1
2,33630,35820,32610,94750,13774,-4058,741,-1572,2725,-592,-411,188,612,-234,1,1,3,11,480,0,53298,1
2,33853,35780,32607,94751,13789,-4208,379,-1273,1007,226,1268,189,615,-251,1,1,3,11,520,0,53298,1
2,34314,35695,32600,94752,13804,-4176,84,-1586,-633,612,2453,170,614,-236,1,1,3,11,560,0,53298,1
2,34764,35540,32600,94753,13821,-4205,46,-1488,90,798,3596,143,597,-225,1,1,3,11,600,0,53298,1
2,35012,35421,32589,94754,13837,-4304,-62,-1661,459,1084,4485,137,603,-235,1,1,3,11,640,0,53298,1
2,34481,35352,32595,94755,13852,-4313,-197,-1924,326,1861,4655,126,600,-242,1,1,3,11,680,0,53298,1
2,33431,35295,32606,94756,13867,-4407,-61,-1650,309,2858,4364,110,596,-246,1,1,3,11,720,0,53298,1
2,32657,35275,32604,94757,13883,-4516,-149,-1288,-454,3036,4021,96,604,-254,1,1,3,11,760,0,53298,1
2,32285,35255,32595,94758,13898,-4525,-384,-1204,-529,2441,3441,86,602,-244,1,1,3,11,800,0,53298,1
2,32226,35245,32594,94759,13914,-4520,-627,-1099,-1377,1685,1928,94,594,-266,1,1,3,11,840,0,53298,1
2,32326,35255,32597,94760,13928,-4422,-811,-1189,-2473,868,-203,98,584,-260,1,1,3,11,880,0,53298,1
2,32587,35268,32594,94761,13944,-4323,-607,-1201,-754,-312,-1704,98,586,-256,1,1,3,11,920,0,53298,1
2,33268,35295,32596,94762,13960,-4303,-452,-1173,512,-1417,-2891,127,593,-245,1,1,3,11,960,0,53298,1
1,34404,35340,32593,94763,0,-4326,-51,-1048,738,-2449,-3811,127,607,-245,1,1,3,12,0,0,53298,1
2,34418,35427,32590,94764,13141,-4352,-277,-1433,519,-3018,-4355,145,603,-245,1,1,3,12,40,0,53298,1
2,33979,35545,32594,94765,13156,-4368,-259,-1758,1235,-3028,-4695,151,609,-229,1,1,3,12,80,0,53298,1
2,33666,35731,32612,94766,13172,-4315,88,-1953,1563,-2375,-4717,177,605,-239,1,1,3,12,120,0,53298,1
2,33387,35813,32613,94767,13188,-4232,557,-1811,1684,-1582,-3820,177,611,-225,1,1,3,12,160,0,53298,1
2,33260,35824,32612,94768,13204,-4064,943,-1592,2776,-1079,-1571,171,603,-237,1,1,3,12,200,0,53298,1
2,33445,35825,32614,94769,13220,-4047,767,-1626,1913,-106,844,168,626,-238,1,1,3,12,240,0,53298,1
2,33769,35789,32604,94770,13236,-4168,372,-1392,-258,865,2379,164,616,-244,1,1,3,12,280,0,53298,1
2,34382,35681,32600,94771,13252,-4214,126,-1545,-1220,1411,3622,145,603,-231,1,1,3,12,320,0,53298,1
2,34788,35491,32598,94772,13268,-4295,-24,-1581,-705,1659,4573,133,605,-237,1,1,3,12,360,0,53298,1
2,34726,35388,32598,94773,13283,-4337,-128,-1683,-606,2023,4978,117,593,-247,1,1,3,12,400,0,53298,1
2,33676,35318,32605,94774,13298,-4257,-298,-2043,-988,2776,4777,104,598,-246,1,1,3,12,440,0,53298,1
2,32757,35278,32603,94775,13314,-4473,-122,-1277,-349,3295,4248,96,596,-258,1,1,3,12,480,0,53298,1
2,32235,35254,32600,94776,13330,-4539,-484,-1197,-595,2487,3572,76,590,-250,1,1,3,12,520,0,53298,1
2,32117,35245,32595,94777,13346,-4464,-466,-965,-8,1285,2350,89,573,-261,1,1,3,12,560,0,53298,1
2,32104,35243,32591,94778,13362,-4393,-746,-1101,-1315,306,416,78,586,-260,1,1,3,12,600,0,53298,1
2,32174,35249,32596,94779,13377,-4388,-675,-1367,-1394,-597,-1558,86,590,-262,1,1,3,12,640,0,53298,1
2,32346,35265,32598,94780,13393,-4477,-369,-1230,35,-1481,-2895,97,595,-243,1,1,3,12,680,0,53298,1
2,32852,35286,32605,94781,13409,-4605,-441,-1388,-979,-2024,-4457,117,599,-245,1,1,3,12,720,0,53298,1
2,34061,35323,32600,94782,13425,-4514,125,-1003,-1430,-2722,-5743,130,600,-238,1,1,3,12,760,0,53298,1
2,34349,35403,32593,94783,13441,-4334,-255,-1437,-2000,-3401,-5964,151,593,-239,1,1,3,12,800,0,53298,1
2,34074,35509,32600,94784,13456,-4220,-325,-1621,-880,-3329,-5961,170,602,-234,1,1,3,12,840,0,53298,1
2,33660,35685,32606,94785,13471,-4259,-222,-1736,479,-2682,-5811,192,604,-218,1,1,3,12,880,0,53298,1
2,33336,35775,32620,94786,13488,-4299,112,-1714,1379,-2055,-5078,203,603,-225,1,1,3,12,920,0,53298,1
2,33157,35810,32624,94787,13504,-4272,584,-1619,2677,-1694,-3295,217,617,-225,1,1,3,12,960,0,53298,1
1,33302,35839,32631,94788,0,-4099,845,-1579,2527,-877,-968,213,609,-223,1,1,3,13,0,1,53298,1
2,33577,35805,32621,94789,12673,-4176,578,-1124,1174,132,1346,207,609,-225,1,1,3,13,40,1,53298,1
2,34124,35703,32613,94790,12689,-4073,247,-1526,-974,904,3060,187,605,-221,1,1,3,13,80,1,53298,1
2,34524,35508,32605,94791,12704,-4199,137,-1489,-817,1495,4594,162,600,-218,1,1,3,13,120,1,53298,1
2,34319,35391,32607,94792,12719,-4328,-158,-1802,-432,2110,5745,147,603,-217,1,1,3,13,160,1,53298,1
2,33437,35312,32607,94793,12735,-4393,-301,-1957,337,3092,6191,128,598,-238,1,1,3,13,200,1,53298,1
2,32627,35275,32607,94794,12750,-4646,-148,-999,393,3736,5849,105,599,-225,1,1,3,13,240,1,53298,1
2,32213,35258,32600,94795,12766,-4570,-525,-1278,-648,3370,5213,102,594,-252,1,1,3,13,280,1,53298,1
2,32130,35254,32600,94796,12782,-4649,-604,-973,-357,2517,3973,91,589,-251,1,1,3,13,320,1,53298,1
2,32128,35253,32599,94797,12798,-4546,-858,-1043,-1523,1708,1899,86,590,-254,1,1,3,13,360,1,53298,1
2,32235,35255,32601,94798,12813,-4458,-725,-1255,-1411,632,-297,97,587,-261,1,1,3,13,400,1,53298,1
2,32514,35278,32607,94799,12829,-4478,-749,-1226,-855,-298,-2269,106,598,-248,1,1,3,13,440,1,53298,1
2,33265,35310,32601,94800,12845,-4467,-488,-1087,-919,-1128,-4152,117,585,-247,1,1,3,13,480,1,53298,1
2,34140,35363,32591,94801,12860,-4282,84,-902,-470,-2462,-4922,132,594,-242,1,1,3,13,520,1,53298,1
2,34087,35454,32597,94802,12876,-4253,-314,-1513,-328,-2922,-5109,145,609,-235,1,1,3,13,560,1,53298,1
2,33771,35578,32601,94803,12893,-4342,-254,-1649,663,-2650,-5430,162,612,-226,1,1,3,13,600,1,53298,1
2,33437,35732,32603,94804,12909,-4373,-14,-1707,690,-2166,-5444,182,606,-232,1,1,3,13,640,1,53298,1
2,33188,35785,32614,94805,12925,-4265,442,-1677,2170,-2157,-4157,199,609,-233,1,1,3,13,680,1,53298,1
2,33164,35816,32614,94806,12941,-4076,803,-1622,3255,-1637,-2027,204,606,-244,1,1,3,13,720,1,53298,1
2,33381,35818,32611,94807,12958,-4081,775,-1404,2255,-547,267,187,607,-233,1,1,3,13,760,1,53298,1
2,33704,35765,32610,94808,12975,-4132,401,-1346,148,390,2118,186,602,-230,1,1,3,13,800,1,53298,1
2,34300,35634,32607,94809,12990,-4131,197,-1624,-564,1143,3635,166,604,-222,1,1,3,13,840,1,53298,1
2,34562,35454,32601,94810,13006,-4319,81,-1538,258,1563,4968,151,603,-229,1,1,3,13,880,1,53298,1
2,33952,35357,32605,94811,13021,-4355,-160,-1903,108,2114,5673,134,594,-236,1,1,3,13,920,1,53298,1
2,32985,35291,32611,94812,13037,-4395,-247,-1937,217,3187,5681,113,599,-241,1,1,3,13,960,1,53298,1
1,32344,35267,32606,94813,0,-4647,-73,-966,-423,3605,5246,94,592,-252,1,1,3,14,0,0,53298,1
2,32086,35248,32598,94814,12205,-4552,-517,-1288,-1414,3215,4551,91,593,-253,1,1,3,14,40,0,53298,1
2,32040,35238,32595,94815,12222,-4549,-630,-991,-907,2271,3103,82,584,-248,1,1,3,14,80,0,53298,1
2,32040,35242,32596,94816,12238,-4460,-907,-1106,-1619,1318,1035,82,588,-252,1,1,3,14,120,0,53298,1
2,32089,35247,32598,94817,12254,-4276,-642,-1332,-246,-62,-839,89,583,-255,1,1,3,14,160,0,53298,1
2,32233,35260,32596,94818,12270,-4401,-484,-1215,890,-1056,-2323,107,583,-261,1,1,3,14,200,0,53298,1
2,32856,35278,32606,94819,12287,-4478,-409,-1259,-467,-1573,-4090,107,603,-247,1,1,3,14,240,0,53298,1
2,33795,35327,32604,94820,12302,-4491,125,-918,-808,-2370,-5250,147,595,-241,1,1,3,14,280,0,53298,1
2,34106,35393,32600,94821,12318,-4403,-206,-1342,-980,-3283,-5376,148,602,-234,1,1,3,14,320,0,53298,1
2,33795,35494,32599,94822,12333,-4341,-250,-1513,38,-3360,-5435,159,603,-231,1,1,3,14,360,0,53298,1
2,33503,35640,32604,94823,12349,-4368,-194,-1686,87,-2856,-5558,184,594,-236,1,1,3,14,400,0,53298,1
2,33261,35747,32614,94824,12365,-4325,30,-1766,53,-2280,-5160,195,611,-237,1,1,3,14,440,0,53298,1
2,33094,35801,32619,94825,12380,-4197,452,-1675,1784,-1905,-3549,197,609,-229,1,1,3,14,480,0,53298,1
2,33169,35824,32621,94826,12396,-4045,786,-1495,3406,-1198,-1085,209,609,-225,1,1,3,14,520,0,53298,1
2,33426,35816,32621,94827,12411,-4192,515,-1233,1646,-28,974,198,604,-226,1,1,3,14,560,0,53298,1
2,33733,35731,32613,94828,12427,-4166,130,-1547,-1166,940,2234,183,605,-229,1,1,3,14,600,0,53298,1
2,34121,35604,32608,94829,12443,-4215,-19,-1590,-1050,1525,3427,176,610,-230,1,1,3,14,640,0,53298,1
2,34348,35473,32602,94830,12459,-4333,-118,-1580,-16,1793,4559,156,596,-230,1,1,3,14,680,0,53298,1
2,34095,35358,32604,94831,12474,-4337,-214,-1757,296,2231,5179,134,604,-232,1,1,3,14,720,0,53298,1
2,33364,35315,32610,94832,12490,-4361,-264,-1859,225,3277,5166,131,587,-239,1,1,3,14,760,0,53298,1
2,32478,35281,32607,94833,12506,-4569,-134,-1086,208,3799,4794,118,602,-244,1,1,3,14,800,0,53298,1
2,32187,35255,32607,94834,12522,-4456,-436,-1342,146,3381,4369,96,598,-258,1,1,3,14,840,0,53298,1
2,32073,35243,32597,94835,12538,-4449,-466,-1137,958,2531,3395,90,596,-260,1,1,3,14,880,0,53298,1
2,32031,35246,32597,94836,12554,-4440,-635,-1128,167,1726,1882,93,595,-255,1,1,3,14,920,0,53298,1
2,32039,35247,32595,94837,12570,-4492,-680,-1014,-388,705,63,95,599,-265,1,1,3,14,960,0,53298,1
1,32104,35250,32602,94838,0,-4382,-434,-1233,-979,-288,-1732,105,595,-265,1,1,3,15,0,1,53298,1
2,32237,35262,32604,94839,11738,-4464,-366,-1110,-684,-1359,-3021,110,606,-258,1,1,3,15,40,1,53298,1
2,32600,35285,32605,94840,11753,-4511,-353,-1207,-1537,-2171,-4296,130,606,-256,1,1,3,15,80,1,53298,1
2,33591,35310,32599,94841,11770,-4487,-202,-1114,-1650,-2877,-5295,146,612,-242,1,1,3,15,120,1,53298,1
2,34054,35383,32602,94842,11786,-4408,-67,-1224,-1272,-3552,-5592,169,603,-233,1,1,3,15,160,1,53298,1
2,33872,35489,32605,94843,11803,-4364,-347,-1612,-1210,-3627,-5614,185,603,-227,1,1,3,15,200,1,53298,1
2,33505,35666,32610,94844,11820,-4340,-399,-1740,-486,-3080,-5655,193,607,-229,1,1,3,15,240,1,53298,1
2,33143,35746,32625,94845,11837,-4328,-103,-1680,276,-2489,-5289,214,604,-236,1,1,3,15,280,1,53298,1
2,32857,35768,32635,94846,11854,-4160,309,-1682,2414,-2203,-3604,232,612,-226,1,1,3,15,320,1,53298,1
2,32851,35785,32639,94847,11871,-3989,760,-1758,2972,-1228,-1358,223,607,-227,1,1,3,15,360,1,53298,1
2,33033,35806,32628,94848,11888,-4085,490,-1498,1835,277,1043,213,605,-215,1,1,3,15,400,1,53298,1
2,33483,35797,32619,94849,11905,-4107,199,-1423,913,1194,3005,189,613,-227,1,1,3,15,440,1,53298,1
2,34107,35683,32614,94850,11921,-4214,112,-1452,1079,1729,4623,184,600,-228,1,1,3,15,480,1,53298,1
2,34793,35526,32606,94851,11936,-4534,-142,-1321,1304,2002,5789,154,610,-226,1,1,3,15,520,1,53298,1
2,34999,35405,32597,94852,11952,-4626,-441,-1482,375,2366,5867,145,603,-229,1,1,3,15,560,1,53298,1
2,33915,35316,32598,94853,11968,-4374,-341,-1534,-362,2918,5322,131,597,-233,1,1,3,15,600,1,53298,1
2,32702,35280,32600,94854,11983,-4461,-289,-1021,-707,2825,5106,108,604,-224,1,1,3,15,640,1,53298,1
2,32291,35254,32600,94855,12000,-4423,-279,-1224,66,2356,4849,97,597,-239,1,1,3,15,680,1,53298,1
2,32129,35239,32595,94856,12015,-4557,-276,-1195,-190,1801,3855,97,585,-245,1,1,3,15,720,1,53298,1
2,32063,35227,32590,94857,12030,-4456,-274,-1235,-1524,1538,2459,83,589,-243,1,1,3,15,760,1,53298,1
2,32056,35232,32585,94858,12046,-4393,-401,-1344,-1586,942,1262,84,574,-244,1,1,3,15,800,1,53298,1
2,32077,35230,32588,94859,12062,-4378,-382,-1456,-1171,259,75,90,586,-230,1,1,3,15,840,1,53298,1
2,32168,35253,32606,94860,12078,-4490,-111,-1384,-1197,-155,-1031,99,585,-249,1,1,3,15,880,1,53298,1
2,32335,35265,32612,94861,12094,-4453,-371,-1423,-2667,-256,-2471,107,593,-245,1,1,3,15,920,1,53298,1
2,32759,35292,32618,94862,12110,-4409,-416,-1315,-2869,-516,-3927,120,594,-240,1,1,3,15,960,1,53298,1
1,33860,35338,32621,94863,0,-4298,-217,-1052,-2011,-1115,-4794,129,593,-239,1,1,3,16,0,1,53298,1
2,34400,35393,32611,94864,11270,-4239,-146,-1132,-1214,-2038,-5019,145,597,-235,1,1,3,16,40,1,53298,1
2,34121,35486,32615,94865,11286,-4316,-417,-1360,-1387,-2377,-5424,166,598,-226,1,1,3,16,80,1,53298,1
2,33779,35677,32621,94866,11302,-4488,-736,-1443,-1003,-2361,-6049,184,600,-234,1,1,3,16,120,1,53298,1
2,33271,35792,32637,94867,11318,-4579,-527,-1354,-144,-2383,-6642,202,606,-226,1,1,3,16,160,1,53298,1
2,32730,35800,32646,94868,11335,-4518,-203,-1280,2147,-2800,-6220,227,605,-231,1,1,3,16,200,1,53298,1
2,32491,35745,32675,94869,11351,-4315,88,-1385,2900,-2677,-5350,239,601,-229,1,1,3,16,240,1,53298,1
2,32417,35715,32700,94870,11367,-4133,598,-1319,3581,-2071,-3620,254,604,-220,1,1,3,16,280,1,53298,1
2,32520,35764,32700,94871,11384,-3945,733,-1582,2190,-1005,-1175,259,613,-217,1,1,3,16,320,1,53298,1
2,32785,35860,32673,94872,11399,-4114,188,-1370,772,36,1328,244,610,-226,1,1,3,16,360,1,53298,1
2,33390,35916,32656,94873,11415,-4289,117,-1171,508,392,3453,217,605,-215,1,1,3,16,400,1,53298,1
2,34124,35840,32635,94874,11431,-4362,75,-1229,465,516,5084,196,608,-214,1,1,3,16,440,1,53298,1
2,35134,35617,32615,94875,11447,-4413,-147,-1571,-526,1212,5973,183,601,-219,1,1,3,16,480,1,53298,1
2,35477,35466,32615,94876,11464,-4557,-426,-1723,-887,2289,6255,159,597,-213,1,1,3,16,520,1,53298,1
2,34039,35354,32623,94877,11481,-4435,-349,-1802,-786,3374,6138,142,602,-220,1,1,3,16,560,1,53298,1
2,32872,35305,32624,94878,11497,-4384,-222,-1442,488,3760,6372,122,582,-226,1,1,3,16,600,1,53298,1
2,32260,35274,32616,94879,11513,-4431,-97,-1255,1411,3788,6433,103,587,-239,1,1,3,16,640,1,53298,1
2,32111,35259,32614,94880,11529,-4533,-223,-1222,48,3509,5680,87,583,-245,1,1,3,16,680,1,53298,1
2,32045,35253,32610,94881,11544,-4567,-378,-1224,-1588,3197,4299,85,579,-243,1,1,3,16,720,1,53298,1
2,32027,35247,32610,94882,11560,-4527,-610,-1252,-1950,2549,2579,84,580,-258,1,1,3,16,760,1,53298,1
2,32036,35247,32606,94883,11575,-4480,-664,-1212,-1017,1446,821,81,585,-263,1,1,3,16,800,1,53298,1
2,32086,35252,32615,94884,11591,-4340,-166,-1229,462,441,-589,85,587,-259,1,1,3,16,840,1,53298,1
2,32206,35271,32612,94885,11607,-4535,-271,-1205,150,-19,-1956,95,583,-249,1,1,3,16,880,1,53298,1
2,32535,35288,32614,94886,11622,-4498,-421,-1219,-2093,-327,-3986,104,602,-256,1,1,3,16,920,1,53298,1
2,33479,35316,32612,94887,11638,-4348,105,-799,-1925,-1569,-5229,128,604,-258,1,1,3,16,960,1,53298,1
1,34187,35368,32602,94888,0,-4228,-409,-1357,-1855,-2877,-5464,148,596,-244,1,1,3,17,0,0,53298,1
2,34184,35466,32602,94889,10803,-4222,-298,-1384,-74,-3369,-5778,158,594,-232,1,1,3,17,40,0,53298,1
2,33856,35665,32614,94890,10819,-4377,-433,-1563,713,-3329,-6007,180,596,-224,1,1,3,17,80,0,53298,1
2,33395,35823,32639,94891,10836,-4486,-289,-1713,550,-2993,-6425,191,607,-225,1,1,3,17,120,0,53298,1
2,32943,35860,32648,94892,10853,-4372,310,-1690,3033,-2839,-5513,214,612,-230,1,1,3,17,160,0,53298,1
2,32826,35875,32654,94893,10870,-4105,816,-1592,4799,-2300,-3436,227,603,-229,1,1,3,17,200,0,53298,1
2,32972,35910,32660,94894,10886,-4048,1036,-1635,3634,-1198,-864,221,601,-225,1,1,3,17,240,0,53298,1
2,33400,35927,32651,94895,10902,-4168,561,-1162,1417,-15,1505,213,605,-219,1,1,3,17,280,0,53298,1
2,33935,35848,32643,94896,10919,-4126,263,-1505,-962,768,3239,192,606,-218,1,1,3,17,320,0,53298,1
2,34820,35667,32636,94897,10937,-4245,153,-1548,-1021,1301,4861,179,605,-213,1,1,3,17,360,0,53298,1
2,35235,35459,32626,94898,10954,-4351,-29,-1755,-869,1891,6071,149,589,-219,1,1,3,17,400,0,53298,1
2,34398,35371,32636,94899,10969,-4339,-203,-2090,-748,2944,6570,129,595,-231,1,1,3,17,440,0,53298,1
2,32779,35316,32636,94900,10985,-4491,-45,-1496,152,4081,6676,110,596,-238,1,1,3,17,480,0,53298,1
2,32240,35277,32629,94901,11001,-4520,-223,-1425,650,4041,6615,89,587,-255,1,1,3,17,520,0,53298,1
2,32073,35260,32620,94902,11017,-4629,-226,-1105,662,3533,5938,82,584,-254,1,1,3,17,560,0,53298,1
2,32000,35250,32615,94903,11032,-4495,-447,-1355,-1220,3121,4252,71,575,-261,1,1,3,17,600,0,53298,1
2,31990,35247,32613,94904,11048,-4432,-493,-1077,-1642,2447,2378,72,580,-270,1,1,3,17,640,0,53298,1
2,31987,35247,32614,94905,11064,-4387,-750,-1202,-1483,1365,506,70,574,-268,1,1,3,17,680,0,53298,1
2,32006,35251,32613,94906,11080,-4106,20,-1473,358,306,-1049,76,582,-262,1,1,3,17,720,0,53298,1
2,32037,35261,32623,94907,11096,-4312,147,-1633,689,-29,-2077,81,591,-271,1,1,3,17,760,0,53298,1
2,32124,35260,32629,94908,11111,-4437,218,-1683,-1572,190,-3541,97,587,-273,1,1,3,17,800,0,53298,1
2,32255,35276,32628,94909,11127,-4241,275,-1525,-3386,208,-4316,112,594,-270,1,1,3,17,840,0,53298,1
2,32478,35291,32629,94910,11144,-4034,494,-1338,-2923,-541,-3847,123,593,-273,1,1,3,17,880,0,53298,1
2,32890,35313,32635,94911,11159,-4054,147,-1433,-2552,-1071,-3065,123,595,-269,1,1,3,17,920,0,53298,1
2,33313,35348,32629,94912,11175,-4220,13,-1385,-2167,-1298,-2856,131,585,-261,1,1,3,17,960,0,53298,1
1,33725,35381,32633,94913,0,-4317,-345,-1573,-2541,-1210,-3264,147,589,-257,1,1,3,18,0,0,53298,1
2,33930,35458,32630,94914,10336,-4253,-364,-1603,292,-1548,-3301,156,590,-258,1,1,3,18,40,0,53298,1
2,33960,35539,32637,94915,10351,-4263,-198,-1216,2999,-1879,-3223,170,598,-256,1,1,3,18,80,0,53298,1
2,33746,35633,32641,94916,10367,-4192,-207,-1469,1992,-1939,-3511,179,603,-251,1,1,3,18,120,0,53298,1
2,33533,35764,32653,94917,10383,-4172,-85,-1423,2404,-2063,-3384,188,600,-252,1,1,3,18,160,0,53298,1
2,33325,35819,32653,94918,10399,-4159,87,-1523,2641,-2044,-2917,190,600,-244,1,1,3,18,200,0,53298,1
2,33328,35860,32657,94919,10415,-4096,469,-1613,4080,-1924,-1581,191,611,-243,1,1,3,18,240,0,53298,1
2,33494,35893,32655,94920,10431,-4143,780,-1312,4488,-1497,292,191,611,-237,1,1,3,18,280,0,53298,1
2,33684,35881,32653,94921,10447,-4295,674,-1119,1776,-1073,1931,182,608,-234,1,1,3,18,320,0,53298,1
2,34282,35832,32654,94922,10463,-4314,208,-1616,-2117,-413,3024,163,601,-221,1,1,3,18,360,0,53298,1
2,35222,35691,32646,94923,10480,-4662,-184,-1533,-1844,189,3973,142,590,-208,1,1,3,18,400,0,53298,1
2,36636,35551,32636,94924,10496,-4606,-177,-1640,-798,582,4241,137,597,-215,1,1,3,18,440,0,53298,1
2,35952,35424,32634,94925,10511,-3845,3,-1821,-1920,1210,3964,124,576,-210,1,1,3,18,480,0,53298,1
2,34210,35352,32653,94926,10526,-4191,311,-1805,-216,2096,4909,106,590,-224,1,1,3,18,520,0,53298,1
2,32685,35305,32647,94927,10542,-4296,167,-1433,288,2808,5461,85,579,-231,1,1,3,18,560,0,53298,1
2,32253,35275,32639,94928,10557,-4461,53,-1424,589,2888,5650,81,577,-239,1,1,3,18,600,0,53298,1
2,32099,35255,32630,94929,10572,-4554,-387,-1533,-53,2626,4781,68,574,-232,1,1,3,18,640,0,53298,1
2,32045,35242,32617,94930,10587,-4473,-560,-1283,-410,2313,2978,75,571,-249,1,1,3,18,680,0,53298,1
2,32043,35245,32618,94931,10603,-4422,-620,-1062,-395,1552,863,75,571,-249,1,1,3,18,720,0,53298,1
2,32101,35240,32624,94932,10618,-4222,-301,-1266,155,489,-1026,77,577,-261,1,1,3,18,760,0,53298,1
2,32230,35270,32633,94933,10633,-4528,-203,-1134,629,-334,-2422,88,582,-254,1,1,3,18,800,0,53298,1
2,32608,35291,32642,94934,10649,-4593,-449,-1276,-1567,-773,-4351,101,589,-247,1,1,3,18,840,0,53298,1
2,33783,35333,32642,94935,10665,-4489,-121,-947,-1331,-1712,-5929,122,588,-254,1,1,3,18,880,0,53298,1
2,34403,35398,32633,94936,10681,-4268,-21,-1159,-708,-3007,-6305,132,592,-236,1,1,3,18,920,0,53298,1
2,34156,35504,32640,94937,10697,-4296,-220,-1386,-389,-3273,-6585,157,595,-235,1,1,3,18,960,0,53298,1
1,33616,35707,32646,94938,0,-4562,-570,-1614,-793,-2956,-7245,183,605,-241,1,1,3,19,0,1,53298,1
2,33074,35775,32650,94939,9868,-4670,-197,-1709,-681,-2553,-7841,205,599,-227,1,1,3,19,40,1,53298,1
2,32793,35773,32658,94940,9884,-4283,536,-1598,3071,-2736,-6552,230,594,-238,1,1,3,19,80,1,53298,1
2,32930,35795,32666,94941,9900,-4023,1069,-1542,3566,-2191,-4198,232,598,-240,1,1,3,19,120,1,53298,1
2,33211,35762,32655,94942,9916,-3981,927,-1121,1595,-1419,-1243,233,597,-221,1,1,3,19,160,1,53298,1
2,33667,35638,32648,94943,9933,-3842,585,-1520,-1807,-320,1451,223,599,-225,1,1,3,19,200,1,53298,1
2,33768,35433,32645,94944,9950,-4027,137,-1492,-1549,550,4028,201,595,-225,1,1,3,19,240,1,53298,1
2,33308,35349,32650,94945,9967,-4044,266,-2104,-51,1456,5842,179,595,-217,1,1,3,19,280,1,53298,1
2,32500,35301,32643,94946,9984,-4498,-67,-1483,569,2423,6814,150,596,-228,1,1,3,19,320,1,53298,1
2,32204,35274,32632,94947,10001,-4731,-66,-1338,-331,2907,7131,137,589,-223,1,1,3,19,360,1,53298,1
2,32070,35250,32620,94948,10018,-4596,-255,-1450,-237,3114,6890,107,589,-225,1,1,3,19,400,1,53298,1
2,32020,35241,32611,94949,10034,-4518,-241,-1347,1161,3071,6485,96,582,-238,1,1,3,19,440,1,53298,1
2,32005,35242,32610,94950,10051,-4498,-297,-1271,1142,2973,5635,85,579,-247,1,1,3,19,480,1,53298,1
2,32009,35246,32615,94951,10067,-4568,-374,-1104,1065,2402,4467,73,577,-255,1,1,3,19,520,1,53298,1
2,32029,35245,32620,94952,10084,-4469,-292,-1252,20,1540,2787,66,574,-246,1,1,3,19,560,1,53298,1
2,32058,35249,32615,94953,10100,-4522,-431,-1216,-537,757,1080,71,571,-255,1,1,3,19,600,1,53298,1
2,32180,35256,32615,94954,10116,-4439,-616,-1222,-1407,234,-1090,82,576,-256,1,1,3,19,640,1,53298,1
2,32435,35279,32620,94955,10131,-4343,-513,-1098,-925,-641,-2943,88,580,-250,1,1,3,19,680,1,53298,1
2,33140,35310,32627,94956,10147,-4362,-393,-1123,-501,-1586,-4434,105,589,-245,1,1,3,19,720,1,53298,1
2,34439,35375,32626,94957,10164,-4428,-16,-996,-200,-2656,-5478,124,598,-246,1,1,3,19,760,1,53298,1
2,34399,35471,32630,94958,10180,-4448,-211,-1379,-661,-3359,-6099,141,599,-225,1,1,3,19,800,1,53298,1
2,33834,35622,32639,94959,10197,-4461,-306,-1600,-682,-3387,-6748,165,601,-221,1,1,3,19,840,1,53298,1
2,33298,35793,32643,94960,10214,-4473,-196,-1560,-54,-3118,-7132,183,593,-225,1,1,3,19,880,1,53298,1
2,32841,35800,32645,94961,10231,-4392,119,-1433,1571,-3182,-6546,201,599,-223,1,1,3,19,920,1,53298,1
2,32587,35785,32667,94962,10248,-4238,552,-1499,3143,-3165,-4946,217,603,-227,1,1,3,19,960,1,53298,1
1,32604,35796,32667,94963,0,-4019,909,-1652,2837,-2152,-2845,216,604,-218,1,1,3,20,0,1,53298,1
2,32802,35838,32658,94964,9402,-4086,929,-1378,1982,-716,-84,221,609,-219,1,1,3,20,40,1,53298,1
2,33387,35859,32653,94965,9419,-4091,513,-1465,-180,494,2338,199,597,-217,1,1,3,20,80,1,53298,1
2,34137,35704,32640,94966,9436,-4147,368,-1510,-117,1259,4612,172,596,-216,1,1,3,20,120,1,53298,1
2,34690,35508,32638,94967,9452,-4303,243,-1499,-219,1973,6252,156,588,-216,1,1,3,20,160,1,53298,1
2,33972,35379,32645,94968,9468,-4329,-108,-2042,-731,2970,7173,126,592,-206,1,1,3,20,200,1,53298,1
2,32830,35340,32657,94969,9485,-4536,-70,-1550,637,4255,7620,105,583,-227,1,1,3,20,240,1,53298,1
2,32211,35303,32652,94970,9501,-4687,-259,-1309,995,4093,7522,92,584,-234,1,1,3,20,280,1,53298,1
2,32079,35283,32642,94971,9518,-4703,-294,-1042,736,3572,6600,75,577,-239,1,1,3,20,320,1,53298,1
2,32025,35271,32633,94972,9534,-4461,-411,-1290,-311,3045,4940,67,575,-239,1,1,3,20,360,1,53298,1
2,32003,35267,32629,94973,9550,-4446,-364,-1106,-945,2648,3067,61,573,-247,1,1,3,20,400,1,53298,1
2,32002,35268,32632,94974,9565,-4521,-593,-1084,-1339,1847,1194,72,572,-270,1,1,3,20,440,1,53298,1
2,32027,35273,32634,94975,9581,-4366,-115,-1264,-1651,861,-941,72,564,-260,1,1,3,20,480,1,53298,1
2,32070,35281,32633,94976,9597,-4407,-195,-1208,-1979,-105,-2596,78,578,-256,1,1,3,20,520,1,53298,1
2,32173,35285,32640,94977,9612,-4346,-427,-1186,-1506,-1120,-3852,95,587,-255,1,1,3,20,560,1,53298,1
2,32601,35310,32643,94978,9628,-4350,-482,-1194,-1046,-1931,-5180,105,583,-241,1,1,3,20,600,1,53298,1
2,33485,35368,32643,94979,9644,-4328,-258,-1068,-395,-2674,-6391,131,581,-243,1,1,3,20,640,1,53298,1
2,34155,35450,32646,94980,9660,-4316,45,-1019,1080,-3822,-6530,147,593,-233,1,1,3,20,680,1,53298,1
2,33828,35586,32658,94981,9676,-4440,-160,-1477,417,-4261,-6551,168,598,-216,1,1,3,20,720,1,53298,1
2,33312,35789,32669,94982,9691,-4535,-293,-1804,-247,-3718,-6963,191,601,-219,1,1,3,20,760,1,53298,1
2,32836,35823,32680,94983,9707,-4505,155,-1761,1406,-3065,-6584,208,610,-230,1,1,3,20,800,1,53298,1
2,32536,35784,32688,94984,9723,-4288,702,-1693,3588,-2539,-4703,223,605,-219,1,1,3,20,840,1,53298,1
2,32528,35805,32688,94985,9738,-4027,1098,-1713,4061,-1483,-1908,224,602,-220,1,1,3,20,880,1,53298,1
2,32780,35863,32681,94986,9754,-4029,977,-1372,2432,166,1060,213,609,-225,1,1,3,20,920,1,53298,1
2,33185,35907,32669,94987,9769,-4100,469,-1325,-598,1361,3294,196,606,-212,1,1,3,20,960,1,53298,1
1,33860,35821,32659,94988,0,-4184,256,-1423,-1087,1956,5290,170,600,-214,1,1,3,21,0,1,53298,1
2,34650,35597,32657,94989,8935,-4384,124,-1531,-833,2315,6785,146,590,-208,1,1,3,21,40,1,53298,1
2,34281,35410,32651,94990,8951,-4383,-66,-1998,-1277,3015,7463,134,584,-216,1,1,3,21,80,1,53298,1
2,32759,35338,32655,94991,8966,-4389,-154,-2027,-294,4347,7691,99,585,-231,1,1,3,21,120,1,53298,1
2,32209,35295,32644,94992,8981,-4705,-73,-1189,1073,4428,7680,80,582,-246,1,1,3,21,160,1,53298,1
2,32046,35278,32630,94993,8997,-4591,-194,-1254,611,4192,6987,66,564,-256,1,1,3,21,200,1,53298,1
2,31978,35264,32632,94994,9012,-4334,-331,-1543,429,3829,5561,55,565,-261,1,1,3,21,240,1,53298,1
2,31964,35256,32626,94995,9027,-4475,-356,-1117,-322,3319,3816,58,564,-274,1,1,3,21,280,1,53298,1
2,31965,35262,32622,94996,9043,-4518,-607,-1123,-846,2271,1885,45,557,-267,1,1,3,21,320,1,53298,1
2,31973,35261,32623,94997,9059,-4292,-385,-1199,413,504,-218,63,571,-275,1,1,3,21,360,1,53298,1
2,32002,35273,32626,94998,9074,-4270,-106,-1133,371,-924,-1873,67,573,-271,1,1,3,21,400,1,53298,1
2,32060,35283,32634,94999,9089,-4424,-129,-1225,-1213,-1769,-3655,77,585,-275,1,1,3,21,440,1,53298,1
2,32324,35300,32636,95000,9105,-4565,-432,-1345,-2006,-2510,-5379,91,579,-259,1,1,3,21,480,1,53298,1
2,33142,35346,32645,95001,9121,-4459,-365,-1454,-2179,-2955,-7115,105,589,-247,1,1,3,21,520,1,53298,1
2,34204,35415,32637,95002,9136,-4365,310,-1095,-728,-3690,-7832,129,599,-235,1,1,3,21,560,1,53298,1
2,33728,35577,32642,95003,9152,-4259,-3,-1580,309,-4472,-7034,155,587,-231,1,1,3,21,600,1,53298,1
2,33245,35738,32652,95004,9168,-4363,-293,-1863,-296,-3729,-7130,180,588,-216,1,1,3,21,640,1,53298,1
2,32629,35780,32660,95005,9185,-4473,24,-1695,-706,-2724,-7477,204,600,-222,1,1,3,21,680,1,53298,1
2,32370,35676,32669,95006,9201,-4402,492,-1360,2012,-2772,-5912,214,610,-222,1,1,3,21,720,1,53298,1
2,32271,35626,32682,95007,9218,-4201,667,-1561,2865,-2550,-3598,222,604,-212,1,1,3,21,760,1,53298,1
2,32289,35635,32681,95008,9235,-3990,734,-1765,1114,-1093,-1557,226,604,-222,1,1,3,21,800,1,53298,1
2,32407,35718,32670,95009,9252,-4042,389,-1440,-444,617,685,211,605,-227,1,1,3,21,840,1,53298,1
2,32840,35817,32661,95010,9268,-4054,191,-1584,-591,1536,2886,188,606,-220,1,1,3,21,880,1,53298,1
2,33604,35842,32659,95011,9285,-4241,139,-1359,1190,1906,4986,181,601,-209,1,1,3,21,920,1,53298,1
2,34341,35662,32647,95012,9302,-4438,208,-1016,1741,1757,6382,162,596,-230,1,1,3,21,960,1,53298,1
1,34830,35484,32645,95013,0,-4371,17,-1680,13,2100,6849,143,587,-231,1,1,3,22,0,1,53298,1
2,34020,35361,32636,95014,8469,-4280,-128,-2074,-425,3195,7007,117,599,-239,1,1,3,22,40,1,53298,1
2,32795,35300,32635,95015,8486,-4518,112,-1444,940,4341,7095,98,592,-240,1,1,3,22,80,1,53298,1
2,32172,35250,32621,95016,8502,-4688,-224,-1416,1016,3777,6957,72,580,-254,1,1,3,22,120,1,53298,1
2,32061,35250,32621,95017,8518,-4649,-191,-1036,1066,2997,6088,64,574,-260,1,1,3,22,160,1,53298,1
2,32006,35243,32614,95018,8533,-4458,-330,-1298,-1089,2572,4244,63,569,-269,1,1,3,22,200,1,53298,1
2,31996,35239,32614,95019,8548,-4319,-266,-1146,-1965,2067,2266,53,559,-275,1,1,3,22,240,1,53298,1
2,31997,35231,32607,95020,8564,-4202,-280,-1175,-654,925,982,60,564,-262,1,1,3,22,280,1,53298,1
2,32011,35245,32614,95021,8579,-3987,164,-1512,1009,-280,23,50,564,-264,1,1,3,22,320,1,53298,1
2,32040,35246,32620,95022,8595,-4086,473,-1564,1463,-772,-437,54,570,-262,1,1,3,22,360,1,53298,1
2,32076,35254,32623,95023,8611,-4263,376,-1686,-835,-517,-1192,64,568,-258,1,1,3,22,400,1,53298,1
2,32219,35268,32627,95024,8626,-4224,130,-1751,-2241,-251,-2088,73,579,-259,1,1,3,22,440,1,53298,1
2,32597,35295,32635,95025,8641,-4164,74,-1592,-1574,-358,-2572,78,580,-250,1,1,3,22,480,1,53298,1
2,33983,35330,32640,95026,8657,-4184,267,-1330,-1198,-741,-2971,81,583,-251,1,1,3,22,520,1,53298,1
2,36092,35391,32622,95027,8675,-4109,606,-1220,-922,-1776,-2797,83,581,-237,1,1,3,22,560,1,53298,1
2,35124,35519,32624,95028,8690,-4231,18,-1649,-1659,-1708,-3114,100,574,-250,1,1,3,22,600,1,53298,1
2,33857,35714,32629,95029,8706,-4325,-281,-1673,-1277,-1344,-4058,109,593,-253,1,1,3,22,640,1,53298,1
2,33133,35854,32638,95030,8722,-4289,-345,-1753,-131,-1113,-4688,131,589,-241,1,1,3,22,680,1,53298,1
2,32626,35805,32650,95031,8737,-4299,116,-1526,1872,-1388,-4660,136,608,-244,1,1,3,22,720,1,53298,1
2,32383,35739,32652,95032,8754,-4222,672,-1368,3677,-1650,-3597,150,616,-236,1,1,3,22,760,1,53298,1
2,32382,35736,32648,95033,8770,-4073,888,-1574,2636,-1230,-2350,146,610,-230,1,1,3,22,800,1,53298,1
2,32521,35806,32651,95034,8786,-4057,857,-1436,1137,-355,-776,147,599,-241,1,1,3,22,840,1,53298,1
2,32962,35870,32648,95035,8802,-4091,542,-1304,-51,-97,927,145,605,-231,1,1,3,22,880,1,53298,1
2,33798,35894,32639,95036,8817,-4025,461,-1760,-7,-17,2593,132,590,-238,1,1,3,22,920,1,53298,1
2,35069,35685,32633,95037,8832,-4257,359,-1385,527,215,3826,114,602,-222,1,1,3,22,960,1,53298,1
1,35739,35440,32625,95038,0,-4275,175,-1877,91,698,4477,111,593,-235,1,1,3,23,0,0,53298,1
2,34249,35348,32636,95039,8003,-4069,79,-2264,-223,1835,4536,91,589,-233,1,1,3,23,40,0,53298,1
2,32547,35304,32635,95040,8019,-4267,343,-1646,522,3146,4734,81,581,-249,1,1,3,23,80,0,53298,1
2,32137,35268,32623,95041,8035,-4482,18,-1494,-125,2699,4950,68,570,-252,1,1,3,23,120,0,53298,1
2,32023,35257,32617,95042,8052,-4364,61,-1349,578,2282,4605,56,578,-258,1,1,3,23,160,0,53298,1
2,31980,35249,32611,95043,8067,-4211,-37,-1498,-479,2121,3456,50,562,-262,1,1,3,23,200,0,53298,1
2,31969,35250,32613,95044,8084,-4227,-224,-1531,-1788,1917,2046,49,569,-275,1,1,3,23,240,0,53298,1
2,31968,35249,32609,95045,8100,-4274,-231,-1320,-395,1160,890,46,564,-268,1,1,3,23,280,0,53298,1
2,31979,35247,32618,95046,8116,-4083,154,-1475,568,179,-335,57,567,-263,1,1,3,23,320,0,53298,1
2,32000,35250,32620,95047,8133,-4221,135,-1483,-98,-447,-1215,58,562,-264,1,1,3,23,360,0,53298,1
2,32053,35261,32616,95048,8150,-4390,48,-1356,-1681,-761,-2439,76,570,-266,1,1,3,23,400,0,53298,1
2,32158,35270,32621,95049,8168,-4356,-282,-1352,-2161,-1376,-3733,73,579,-253,1,1,3,23,440,0,53298,1
2,32463,35298,32635,95050,8184,-4336,-355,-1212,-1061,-2138,-4875,96,580,-252,1,1,3,23,480,0,53298,1
2,33757,35330,32639,95051,8201,-4456,-327,-1111,-917,-2868,-6116,106,590,-242,1,1,3,23,520,0,53298,1
2,34863,35422,32639,95052,8217,-4596,143,-792,-1062,-3891,-7002,131,595,-225,1,1,3,23,560,0,53298,1
2,34288,35555,32643,95053,8234,-4648,-403,-1409,-2286,-4499,-7597,152,600,-222,1,1,3,23,600,0,53298,1
2,33658,35791,32657,95054,8250,-4662,-530,-1591,-2313,-4230,-8622,186,598,-222,1,1,3,23,640,0,53298,1
2,33090,35850,32675,95055,8267,-4521,-252,-1614,-514,-3821,-8891,208,600,-226,1,1,3,23,680,0,53298,1
2,32725,35838,32729,95056,8284,-4264,297,-1546,3148,-3694,-7541,237,603,-219,1,1,3,23,720,0,53298,1
2,32357,31888,32411,95057,8301,-3529,1893,-2473,3380,-2595,-5240,248,602,-212,1,1,3,23,760,0,53298,1
2,32469,31887,32328,95058,8316,-3811,1600,-999,3201,-399,-1328,246,604,-212,1,1,3,23,800,0,53298,1
2,32770,32002,32273,95059,8332,-4233,505,-1004,1782,582,1657,230,614,-224,1,1,3,23,840,0,53298,1
2,33239,32003,32255,95060,8348,-4123,201,-1693,-2180,1612,3606,209,595,-217,1,1,3,23,880,0,53298,1
2,33804,32044,32245,95061,8364,-4253,161,-1596,-1172,2395,5517,186,594,-220,1,1,3,23,920,0,53298,1
2,33954,31903,32241,95062,8380,-4314,-13,-1737,-368,3033,7147,160,600,-222,1,1,3,23,960,0,53298,1
1,33243,31880,32248,95063,7536,-4309,-159,-2189,1410,4113,8377,133,597,-235,1,1,3,24,0,0,53298,1
2,32091,31840,32250,95064,7552,-4738,229,-880,3619,5144,8980,109,593,-235,1,1,3,24,40,0,53298,1
2,31760,31733,32247,95065,7568,-4692,-165,-1263,1918,5056,8722,90,586,-262,1,1,3,24,80,0,53298,1
2,31660,31855,32231,95066,7584,-4692,-239,-1055,1370,4188,7647,79,583,-271,1,1,3,24,120,0,53298,1
2,31608,31892,32226,95067,7599,-4443,-369,-1253,-143,3639,5876,59,577,-271,1,1,3,24,160,0,53298,1
2,31597,31902,32223,95068,7615,-4409,-560,-1231,-933,2670,3932,56,570,-278,1,1,3,24,200,0,53298,1
2,31605,31696,32220,95069,7615,-4455,-638,-1152,-366,1545,2062,48,576,-270,1,1,3,24,240,0,53298,1
2,31595,31867,32226,95070,7645,-4370,-473,-1267,323,70,29,53,575,-273,1,1,3,24,280,0,53298,1
2,31634,31776,32233,95071,7645,-4315,-102,-1230,-22,-1018,-1835,62,572,-274,1,1,3,24,320,0,53298,1
2,31695,31738,32230,95072,7661,-4444,-192,-1281,-1584,-1722,-3599,87,579,-259,1,1,3,24,360,0,53298,1
2,31856,32057,32231,95073,7677,-4472,-524,-1461,-2547,-2414,-5484,96,584,-262,1,1,3,24,400,0,53298,1
2,32400,32171,32231,95074,7693,-4422,-547,-1477,-1828,-2940,-7206,117,601,-241,1,1,3,24,440,0,53298,1
2,33939,32058,32235,95075,7710,-4493,-192,-1234,-419,-3658,-8137,137,591,-239,1,1,3,24,480,0,53298,1
2,33659,32371,32231,95076,7727,-4508,216,-1265,639,-4713,-7832,167,597,-235,1,1,3,24,520,0,53298,1
2,33160,32395,32235,95077,7745,-4718,-422,-1906,-112,-4294,-7850,192,604,-228,1,1,3,24,560,0,53298,1
2,32645,32672,32242,95078,7763,-4499,-327,-2031,-693,-2869,-8636,222,606,-228,1,1,3,24,600,0,53298,1
2,32321,32670,32262,95079,7781,-4205,176,-1812,989,-1739,-7944,257,603,-229,1,1,3,24,640,0,53298,1
2,32268,32879,32273,95080,7799,-3851,939,-1569,6493,-1785,-4527,259,601,-231,1,1,3,24,680,0,53298,1
2,32500,32826,32261,95081,7817,-3599,1056,-1678,5445,-438,-1444,266,608,-232,1,1,3,24,720,0,53298,1
2,32909,32815,32252,95082,7834,-3986,782,-994,2018,1096,1243,250,616,-222,1,1,3,24,760,0,53298,1
2,33465,32730,32240,95083,7851,-4231,512,-1191,-1473,1721,3727,227,613,-241,1,1,3,24,800,0,53298,1
2,33787,32611,32230,95084,7867,-4367,237,-1802,-2159,2200,5958,192,616,-240,1,1,3,24,840,0,53298,1
2,33486,32364,32230,95085,7884,-4559,107,-1725,-1354,2826,7666,167,605,-239,1,1,3,24,880,0,53298,1
2,32453,31895,32243,95086,7901,-4355,-236,-2390,-620,3911,8769,129,615,-251,1,1,3,24,920,0,53298,1
2,31881,31791,32248,95087,7918,-4720,47,-989,1584,4732,9258,95,595,-261,1,1,3,24,960,0,53298,1
1,31675,31699,32240,95088,7071,-4580,-400,-1490,549,4611,8964,73,587,-257,1,1,3,25,0,1,53298,1
2,31618,31825,32235,95089,7087,-4529,-367,-1328,365,4108,7753,68,572,-274,1,1,3,25,40,1,53298,1
2,31606,31658,32231,95090,7105,-4460,-396,-1042,-1142,3527,5896,56,570,-280,1,1,3,25,80,1,53298,1
2,31591,31770,32224,95091,7122,-4362,-673,-1463,-1805,2613,3976,45,563,-295,1,1,3,25,120,1,53298,1
2,31604,31617,32235,95092,7139,-4388,-586,-1340,540,1126,2335,44,562,-284,1,1,3,25,160,1,53298,1
2,31616,31545,32249,95093,7155,-4215,-210,-1471,994,-53,351,56,574,-282,1,1,3,25,200,1,53298,1
2,31640,31773,32257,95094,7172,-4264,-60,-1395,87,-853,-1300,53,571,-275,1,1,3,25,240,1,53298,1
2,31691,31695,32272,95095,7189,-4396,-270,-1408,-1565,-1344,-3017,62,566,-270,1,1,3,25,280,1,53298,1
2,31808,32002,32268,95096,7206,-4458,-294,-1425,-2192,-2057,-4769,77,593,-265,1,1,3,25,320,1,53298,1
2,32111,31965,32280,95097,7224,-4474,-565,-1447,-2056,-2600,-6548,103,589,-253,1,1,3,25,360,1,53298,1
2,32977,31995,32273,95098,7241,-4454,-401,-1377,-1384,-3133,-8043,127,599,-249,1,1,3,25,400,1,53298,1
2,33678,32257,32274,95099,7259,-4415,361,-906,-72,-4003,-8458,164,604,-246,1,1,3,25,440,1,53298,1
2,33336,32293,32266,95100,7277,-4463,-209,-1515,-73,-4589,-7991,174,616,-236,1,1,3,25,480,1,53298,1
2,32963,32063,32286,95101,7295,-4488,-324,-1746,-534,-4021,-8290,221,619,-229,1,1,3,25,520,1,53298,1
2,32462,31937,32309,95102,7313,-4468,-50,-1760,-808,-3222,-8336,235,615,-235,1,1,3,25,560,1,53298,1
2,32249,32003,32329,95103,7331,-4289,480,-1575,2305,-3032,-6360,257,603,-229,1,1,3,25,600,1,53298,1
2,32206,32021,32344,95104,7348,-4044,825,-1708,4349,-2452,-3288,267,603,-229,1,1,3,25,640,1,53298,1
2,32392,31961,32343,95105,7366,-3882,865,-1647,2710,-703,-474,255,597,-227,1,1,3,25,680,1,53298,1
2,32705,32075,32312,95106,7384,-3985,472,-1376,-22,947,1991,242,614,-220,1,1,3,25,720,1,53298,1
2,33288,31945,32289,95107,7402,-4174,238,-1454,-1034,1788,4280,207,613,-235,1,1,3,25,760,1,53298,1
2,33700,31888,32281,95108,7419,-4253,119,-1747,-600,2287,6300,185,599,-229,1,1,3,25,800,1,53298,1
2,33595,31748,32285,95109,7437,-4388,-4,-1587,-345,2876,7652,154,598,-230,1,1,3,25,840,1,53298,1
2,32660,31717,32284,95110,7455,-4319,-291,-2273,-353,3872,8426,129,603,-245,1,1,3,25,880,1,53298,1
2,31997,31648,32280,95111,7473,-4654,23,-1068,2076,4927,8823,110,592,-248,1,1,3,25,920,1,53298,1
2,31758,31739,32274,95112,7473,-4690,-236,-1267,1597,4698,8638,80,590,-262,1,1,3,25,960,1,53298,1
1,31672,31638,32274,95113,6605,-4653,-375,-1242,464,3942,7430,64,578,-280,1,1,3,26,0,0,53298,1
2,31643,31721,32266,95114,6621,-4469,-440,-1135,-470,3450,5555,61,563,-275,1,1,3,26,40,0,53298,1
2,31630,31833,32262,95115,6638,-4422,-773,-1318,-1311,2523,3455,57,571,-267,1,1,3,26,80,0,53298,1
2,31631,31897,32260,95116,6654,-4460,-666,-1064,93,1050,1512,55,571,-277,1,1,3,26,120,0,53298,1
2,31645,31760,32271,95117,6671,-4229,-212,-1283,701,-422,-487,48,560,-268,1,1,3,26,160,0,53298,1
2,31695,31514,32282,95118,6688,-4331,-132,-1262,-191,-1558,-2057,68,572,-268,1,1,3,26,200,0,53298,1
2,31785,31221,32300,95119,6706,-4524,-199,-1322,-1924,-2229,-3809,82,584,-262,1,1,3,26,240,0,53298,1
2,31994,31258,32309,95120,6722,-4544,-526,-1477,-2830,-2886,-5651,93,579,-239,1,1,3,26,280,0,53298,1
2,32963,31365,32304,95121,6739,-4472,-567,-1608,-2712,-3165,-7477,123,593,-243,1,1,3,26,320,0,53298,1
2,33845,31464,32305,95122,6756,-4464,134,-1289,-1129,-3601,-8305,146,598,-236,1,1,3,26,360,0,53298,1
2,33281,31343,32310,95123,6774,-4410,190,-1515,241,-4505,-7395,173,589,-237,1,1,3,26,400,0,53298,1
2,32930,31210,32321,95124,6792,-4331,-120,-1918,-778,-3593,-7181,189,605,-215,1,1,3,26,440,0,53298,1
2,32585,31240,32327,95125,6808,-4282,163,-1802,-1327,-2218,-7103,216,596,-236,1,1,3,26,480,0,53298,1
2,32341,31239,32340,95126,6826,-4119,619,-1378,1191,-1857,-5046,219,603,-221,1,1,3,26,520,0,53298,1
2,32364,31210,32337,95127,6843,-3953,707,-1582,2647,-1651,-2111,237,605,-237,1,1,3,26,560,0,53298,1
2,32553,31215,32332,95128,6860,-3961,636,-1536,1423,-266,202,221,599,-227,1,1,3,26,600,0,53298,1
2,32948,31175,32329,95129,6877,-4180,401,-1150,29,891,2280,204,612,-224,1,1,3,26,640,0,53298,1
2,33343,31177,32317,95130,6894,-4232,207,-1401,-462,1227,4176,185,607,-223,1,1,3,26,680,0,53298,1
2,33721,31159,32317,95131,6912,-4258,102,-1586,258,1702,5717,155,599,-227,1,1,3,26,720,0,53298,1
2,33517,31063,32326,95132,6929,-4346,134,-1536,907,2199,6768,131,595,-217,1,1,3,26,760,0,53298,1
2,32687,31065,32322,95133,6947,-4350,-29,-2021,699,3107,7399,116,598,-224,1,1,3,26,800,0,53298,1
2,31966,30987,32324,95134,6963,-4729,9,-1043,1698,3274,7628,101,581,-237,1,1,3,26,840,0,53298,1
2,31789,30946,32315,95135,6980,-4533,-59,-1243,625,3156,7280,69,581,-239,1,1,3,26,880,0,53298,1
2,31728,30949,32313,95136,6998,-4384,-267,-1534,-483,2878,6205,59,569,-255,1,1,3,26,920,0,53298,1
2,31693,30964,32309,95137,6998,-4462,-268,-1332,-560,3006,4871,55,569,-253,1,1,3,26,960,0,53298,1
1,31679,30956,32312,95138,6139,-4529,-616,-1437,-681,2329,3229,52,568,-252,1,1,3,27,0,0,53298,1
2,31680,30966,32313,95139,6155,-4464,-586,-1147,361,1068,1297,54,562,-262,1,1,3,27,40,0,53298,1
2,31695,30950,32320,95140,6171,-4073,-67,-1304,306,-162,-728,59,563,-263,1,1,3,27,80,0,53298,1
2,31727,30923,32333,95141,6188,-4247,62,-1181,-389,-1035,-2018,68,578,-254,1,1,3,27,120,0,53298,1
2,31800,30876,32341,95142,6204,-4493,-171,-1295,-2264,-1418,-3526,83,573,-249,1,1,3,27,160,0,53298,1
2,31919,30863,32343,95143,6221,-4515,-307,-1350,-2914,-2031,-5155,90,584,-246,1,1,3,27,200,0,53298,1
2,32279,30908,32349,95144,6238,-4496,-546,-1481,-2125,-2533,-6603,121,591,-239,1,1,3,27,240,0,53298,1
2,33652,30870,32350,95145,6256,-4436,-441,-1467,-964,-2787,-7848,138,596,-224,1,1,3,27,280,0,53298,1
2,33605,30960,32353,95146,6273,-4387,702,-668,1518,-3619,-7753,153,599,-219,1,1,3,27,320,0,53298,1
2,33095,30974,32353,95147,6290,-4349,-105,-1667,606,-4070,-6740,171,597,-211,1,1,3,27,360,0,53298,1
2,32626,31009,32366,95148,6308,-4270,29,-1840,-658,-2847,-6784,196,600,-230,1,1,3,27,400,0,53298,1
2,32373,30966,32370,95149,6326,-4233,454,-1633,286,-1874,-5673,217,605,-229,1,1,3,27,440,0,53298,1
2,32335,30993,32374,95150,6344,-4075,819,-1529,2966,-1673,-2790,222,602,-228,1,1,3,27,480,0,53298,1
2,32515,30976,32374,95151,6360,-4006,798,-1672,2853,-713,92,211,605,-227,1,1,3,27,520,0,53298,1
2,32834,30955,32366,95152,6378,-4180,477,-1205,909,675,2179,197,605,-213,1,1,3,27,560,0,53298,1
2,33365,30982,32351,95153,6395,-4210,289,-1306,-708,1404,3911,179,605,-225,1,1,3,27,600,0,53298,1
2,33719,30972,32342,95154,6413,-4231,52,-1631,-769,1918,5355,167,593,-211,1,1,3,27,640,0,53298,1
2,33587,30918,32344,95155,6431,-4376,-20,-1719,75,2499,6424,133,589,-227,1,1,3,27,680,0,53298,1
2,32622,30930,32341,95156,6448,-4324,-134,-2053,729,3407,7038,112,588,-226,1,1,3,27,720,0,53298,1
2,32040,30901,32336,95157,6465,-4733,27,-916,1576,3754,7177,99,581,-247,1,1,3,27,760,0,53298,1
2,31803,30903,32335,95158,6482,-4534,-191,-1403,311,3532,6712,87,583,-245,1,1,3,27,800,0,53298,1
2,31739,30901,32324,95159,6498,-4480,-257,-1299,-73,3139,5592,68,580,-260,1,1,3,27,840,0,53298,1
2,31721,30847,32330,95160,6515,-4380,-385,-1382,-825,3004,4058,55,571,-259,1,1,3,27,880,0,53298,1
2,31707,30866,32330,95161,6531,-4424,-497,-1170,-524,2085,2564,58,570,-268,1,1,3,27,920,0,53298,1
2,31712,30940,32319,95162,6531,-4408,-514,-1060,71,812,926,70,570,-258,1,1,3,27,960,0,53298,1
1,31735,30875,32327,95163,5673,-4240,30,-1149,543,-412,-615,69,569,-265,1,1,3,28,0,1,53298,1
2,31776,30898,32337,95164,5689,-4316,-44,-1240,-194,-1164,-1928,71,577,-257,1,1,3,28,40,1,53298,1
2,31848,30909,32339,95165,5704,-4453,-96,-1207,-824,-1801,-3115,84,584,-248,1,1,3,28,80,1,53298,1
2,32094,30898,32345,95166,5720,-4490,-393,-1369,-1840,-2290,-4606,105,581,-251,1,1,3,28,120,1,53298,1
2,32638,30920,32345,95167,5736,-4464,-452,-1446,-1970,-2606,-6155,117,591,-231,1,1,3,28,160,1,53298,1
2,33621,30949,32345,95168,5752,-4486,-213,-1338,-1017,-3005,-7085,139,597,-229,1,1,3,28,200,1,53298,1
2,33595,30956,32346,95169,5768,-4403,447,-1033,656,-3751,-6888,156,594,-222,1,1,3,28,240,1,53298,1
2,33214,31003,32349,95170,5784,-4372,-60,-1645,-77,-3766,-6299,180,606,-220,1,1,3,28,280,1,53298,1
2,32917,31020,32360,95171,5800,-4310,-33,-1807,-490,-2697,-6165,192,590,-226,1,1,3,28,320,1,53298,1
2,32637,31081,32363,95172,5816,-4214,349,-1590,402,-1801,-5189,206,604,-222,1,1,3,28,360,1,53298,1
2,32616,31050,32367,95173,5833,-4086,642,-1590,2265,-1438,-2776,217,609,-225,1,1,3,28,400,1,53298,1
2,32863,31011,32364,95174,5850,-3984,790,-1687,2402,-478,-163,198,598,-232,1,1,3,28,440,1,53298,1
2,33158,30989,32364,95175,5867,-4189,575,-1139,1085,709,2103,193,593,-225,1,1,3,28,480,1,53298,1
2,33509,30959,32353,95176,5884,-4235,391,-1417,-724,1483,3972,173,601,-221,1,1,3,28,520,1,53298,1
2,33822,30932,32350,95177,5901,-4311,196,-1574,-1109,2177,5441,151,599,-219,1,1,3,28,560,1,53298,1
2,33581,30903,32345,95178,5918,-4344,38,-1733,-577,2838,6547,138,598,-216,1,1,3,28,600,1,53298,1
2,32817,30880,32353,95179,5934,-4326,-79,-1898,443,3677,7280,112,584,-230,1,1,3,28,640,1,53298,1
2,32063,30867,32345,95180,5951,-4573,18,-1075,1956,3700,7596,98,588,-232,1,1,3,28,680,1,53298,1
2,31858,30859,32340,95181,5968,-4585,-88,-1159,1302,3513,7216,72,574,-246,1,1,3,28,720,1,53298,1
2,31784,30851,32333,95182,5984,-4518,-348,-1223,-368,2998,5801,63,577,-257,1,1,3,28,760,1,53298,1
2,31747,30830,32331,95183,6000,-4496,-525,-1278,-1388,2499,3996,65,563,-259,1,1,3,28,800,1,53298,1
2,31743,30815,32334,95184,6017,-4587,-694,-1233,-1033,1531,2089,55,563,-259,1,1,3,28,840,1,53298,1
2,31765,30832,32336,95185,6034,-4473,-540,-1233,-471,217,-114,69,561,-253,1,1,3,28,880,1,53298,1
2,31819,30817,32341,95186,6050,-4458,-194,-1110,-604,-894,-2081,75,571,-249,1,1,3,28,920,1,53298,1
2,31927,30825,32347,95187,6050,-4453,-379,-1212,-2001,-1609,-4039,83,575,-249,1,1,3,28,960,1,53298,1
1,32327,30832,32342,95188,5207,-4436,-566,-1261,-2139,-2253,-5845,116,580,-248,1,1,3,29,0,1,53298,1
2,33163,30824,32349,95189,5225,-4393,-536,-1343,-1377,-2815,-7416,131,583,-235,1,1,3,29,40,1,53298,1
2,33674,30865,32346,95190,5243,-4440,8,-1172,622,-3582,-8053,151,591,-227,1,1,3,29,80,1,53298,1
2,33215,30904,32355,95191,5261,-4414,151,-1436,1478,-4327,-7537,172,604,-224,1,1,3,29,120,1,53298,1
2,32868,30915,32361,95192,5279,-4400,96,-1832,74,-3531,-7330,182,600,-222,1,1,3,29,160,1,53298,1
2,32553,30834,32381,95193,5296,-4313,408,-1813,93,-2458,-6531,207,599,-221,1,1,3,29,200,1,53298,1
2,32498,30871,32376,95194,5313,-4070,901,-1617,2642,-1708,-3930,210,606,-224,1,1,3,29,240,1,53298,1
2,32662,30884,32376,95195,5331,-3898,1058,-1691,3550,-748,-569,208,602,-220,1,1,3,29,280,1,53298,1
2,33034,30902,32361,95196,5347,-4131,664,-1123,1797,610,2160,199,605,-215,1,1,3,29,320,1,53298,1
2,33406,30875,32358,95197,5364,-4181,394,-1256,-731,1431,4055,179,603,-221,1,1,3,29,360,1,53298,1
2,33795,30885,32350,95198,5381,-4261,169,-1551,-1341,2015,5589,157,591,-221,1,1,3,29,400,1,53298,1
2,33857,30891,32348,95199,5398,-4374,22,-1694,-338,2501,6838,128,596,-220,1,1,3,29,440,1,53298,1
2,33069,30877,32353,95200,5414,-4345,-42,-2043,885,3279,7731,106,582,-230,1,1,3,29,480,1,53298,1
2,32144,30837,32341,95201,5430,-4685,19,-932,2101,3529,8025,90,580,-236,1,1,3,29,520,1,53298,1
2,31881,30817,32338,95202,5447,-4569,-47,-1319,1005,3485,7668,67,569,-233,1,1,3,29,560,1,53298,1
2,31781,30753,32330,95203,5465,-4504,-203,-1415,-717,3245,6382,58,560,-250,1,1,3,29,600,1,53298,1
2,31728,30743,32328,95204,5481,-4434,-324,-1465,-1696,3246,4781,52,562,-258,1,1,3,29,640,1,53298,1
2,31711,30741,32328,95205,5498,-4499,-560,-1311,-872,2475,3294,43,555,-263,1,1,3,29,680,1,53298,1
2,31714,30738,32332,95206,5515,-4467,-613,-1081,180,1204,1373,38,552,-254,1,1,3,29,720,1,53298,1
2,31730,30751,32334,95207,5531,-4258,-59,-1118,-251,-127,-910,52,556,-264,1,1,3,29,760,1,53298,1
2,31769,30723,32335,95208,5548,-4446,-185,-1099,-1808,-1136,-2879,68,564,-246,1,1,3,29,800,1,53298,1
2,31845,30776,32344,95209,5564,-4546,-209,-1185,-3144,-1992,-4837,78,572,-256,1,1,3,29,840,1,53298,1
2,32130,30752,32346,95210,5581,-4522,-603,-1375,-2608,-2766,-6550,116,574,-246,1,1,3,29,880,1,53298,1
2,32836,30793,32350,95211,5597,-4423,-597,-1459,-1131,-3140,-8125,131,587,-233,1,1,3,29,920,1,53298,1
2,33726,30769,32355,95212,5597,-4377,-98,-1420,726,-3439,-8994,153,593,-229,1,1,3,29,960,1,53298,1
1,33233,30803,32359,95213,4742,-4362,665,-1123,2534,-4379,-8257,172,594,-212,1,1,3,30,0,0,53298,1
2,32837,30835,32370,95214,4758,-4405,100,-1783,-443,-3664,-7819,197,607,-219,1,1,3,30,40,0,53298,1
2,32476,30802,32387,95215,4775,-4346,447,-1766,-808,-2560,-7155,212,606,-210,1,1,3,30,80,0,53298,1
2,32391,30768,32398,95216,4792,-4081,924,-1520,2127,-2040,-4417,231,605,-221,1,1,3,30,120,0,53298,1
2,32583,30795,32387,95217,4808,-3856,988,-1740,2813,-1062,-1031,220,598,-224,1,1,3,30,160,0,53298,1
2,32898,30802,32377,95218,4825,-4021,671,-1285,1896,445,1964,205,603,-215,1,1,3,30,200,0,53298,1
2,33313,30785,32367,95219,4842,-4140,562,-1227,258,1496,4301,187,607,-219,1,1,3,30,240,0,53298,1
2,33783,30747,32363,95220,4858,-4343,315,-1535,-583,2203,6204,149,589,-209,1,1,3,30,280,0,53298,1
2,33628,30710,32358,95221,4874,-4472,80,-1796,-369,2950,7502,137,601,-219,1,1,3,30,320,0,53298,1
2,32769,30725,32360,95222,4890,-4421,15,-1883,703,3944,8337,107,583,-237,1,1,3,30,360,0,53298,1
2,32034,30691,32360,95223,4907,-4628,9,-1253,1766,4056,8689,89,583,-237,1,1,3,30,400,0,53298,1
2,31840,30720,32341,95224,4923,-4573,-144,-1302,680,4109,8253,71,569,-249,1,1,3,30,440,0,53298,1
2,31775,30704,32339,95225,4939,-4520,-427,-1379,-835,3934,6771,56,564,-256,1,1,3,30,480,0,53298,1
2,31743,30694,32333,95226,4956,-4558,-609,-1303,-1573,3610,4686,51,563,-259,1,1,3,30,520,0,53298,1
2,31740,30700,32340,95227,4972,-4623,-795,-1046,-1079,2373,2428,49,563,-269,1,1,3,30,560,0,53298,1
2,31768,30700,32333,95228,4989,-4441,-409,-1061,-182,618,3,59,565,-259,1,1,3,30,600,0,53298,1
2,31842,30697,32336,95229,5005,-4449,-392,-1031,-119,-849,-2153,59,565,-255,1,1,3,30,640,0,53298,1
2,32032,30695,32343,95230,5023,-4458,-564,-1142,-1437,-1774,-4492,74,576,-250,1,1,3,30,680,0,53298,1
2,32794,30734,32351,95231,5040,-4427,-655,-1239,-1968,-2485,-6810,109,581,-245,1,1,3,30,720,0,53298,1
2,33670,30749,32346,95232,5056,-4453,-309,-1117,-886,-3357,-8459,128,588,-246,1,1,3,30,760,0,53298,1
2,33411,30776,32358,95233,5074,-4461,324,-1009,1177,-4671,-8749,151,593,-227,1,1,3,30,800,0,53298,1
2,32879,30791,32362,95234,5091,-4471,-141,-1772,233,-4678,-8838,173,593,-219,1,1,3,30,840,0,53298,1
2,32553,30822,32380,95235,5109,-4400,331,-1870,627,-3830,-8649,192,596,-232,1,1,3,30,880,0,53298,1
2,32402,30831,32390,95236,5127,-4234,856,-1709,2225,-3098,-6674,219,607,-223,1,1,3,30,920,0,53298,1
2,32485,30825,32384,95237,5127,-4003,1182,-1738,3608,-2317,-3214,223,609,-225,1,1,3,30,960,0,53298,1
1,32760,30846,32373,95238,4277,-4008,972,-1439,2751,-824,157,216,604,-216,1,1,3,31,0,0,53298,1
2,33218,30859,32358,95239,4294,-4075,629,-1354,-73,672,2608,197,603,-221,1,1,3,31,40,0,53298,1
2,33575,30849,32356,95240,4310,-4150,381,-1610,-1343,1666,4699,164,598,-216,1,1,3,31,80,0,53298,1
2,33629,30835,32345,95241,4327,-4311,86,-1738,-1084,2529,6372,149,593,-217,1,1,3,31,120,0,53298,1
2,32905,30800,32344,95242,4344,-4400,-136,-2023,-327,3450,7459,129,595,-215,1,1,3,31,160,0,53298,1
2,32264,30751,32346,95243,4360,-4675,-402,-826,1034,3369,7928,108,586,-218,1,1,3,31,200,0,53298,1
2,31938,30764,32340,95244,4376,-4559,-131,-1130,1049,3191,7769,90,576,-234,1,1,3,31,240,0,53298,1
2,31824,30718,32336,95245,4392,-4382,-301,-1733,-752,3185,6521,70,568,-242,1,1,3,31,280,0,53298,1
2,31764,30703,32335,95246,4410,-4465,-150,-1349,-1174,3431,5171,62,564,-256,1,1,3,31,320,0,53298,1
2,31722,30706,32331,95247,4427,-4451,-382,-1468,-972,3077,3975,49,561,-241,1,1,3,31,360,0,53298,1
2,31717,30685,32332,95248,4444,-4407,-353,-1259,1165,1943,2810,51,571,-263,1,1,3,31,400,0,53298,1
2,31720,30716,32334,95249,4461,-4343,-317,-983,1025,862,1102,46,560,-258,1,1,3,31,440,0,53298,1
2,31736,30698,32336,95250,4478,-4167,192,-1071,-265,-64,-601,50,568,-264,1,1,3,31,480,0,53298,1
2,31788,30573,32353,95251,4494,-4552,-112,-1110,-1059,-898,-1878,69,573,-253,1,1,3,31,520,0,53298,1
2,31848,30570,32354,95252,4511,-4750,-304,-1208,-3005,-1578,-3937,77,569,-253,1,1,3,31,560,0,53298,1
2,32087,30588,32363,95253,4528,-4612,-693,-1392,-3445,-2424,-6042,100,580,-230,1,1,3,31,600,0,53298,1
2,32751,30636,32361,95254,4544,-4431,-788,-1520,-1848,-2989,-7795,132,588,-226,1,1,3,31,640,0,53298,1
2,33842,30642,32366,95255,4561,-4321,-314,-1460,-54,-3209,-8998,145,587,-229,1,1,3,31,680,0,53298,1
2,33309,30689,32373,95256,4577,-4280,790,-797,3192,-4474,-8262,175,589,-213,1,1,3,31,720,0,53298,1
2,32856,30693,32383,95257,4595,-4329,-139,-1764,-334,-3828,-8057,197,601,-217,1,1,3,31,760,0,53298,1
2,32421,30745,32392,95258,4612,-4362,135,-1706,-432,-2720,-7971,223,601,-223,1,1,3,31,800,0,53298,1
2,32286,30739,32417,95259,4630,-4251,701,-1471,2682,-2534,-5708,242,606,-222,1,1,3,31,840,0,53298,1
2,32378,30762,32429,95260,4648,-3992,841,-1860,3383,-1838,-2544,243,603,-217,1,1,3,31,880,0,53298,1
2,32795,30748,32407,95261,4665,-4027,835,-1511,3461,-272,724,236,606,-224,1,1,3,31,920,0,53298,1
2,33287,30827,32369,95262,4665,-4169,615,-1130,1634,1186,3400,205,607,-213,1,1,3,31,960,0,53298,1
1,33799,30777,32361,95263,3811,-4226,453,-1478,-47,2050,5563,174,600,-214,1,1,3,32,0,1,53298,1
2,33643,30755,32365,95264,3828,-4258,236,-1754,-781,2987,7143,153,595,-211,1,1,3,32,40,1,53298,1
2,32769,30629,32365,95265,3844,-4365,-77,-2171,-139,4132,8419,125,599,-231,1,1,3,32,80,1,53298,1
2,31981,30645,32354,95266,3860,-4796,112,-1024,1231,4943,9157,99,587,-231,1,1,3,32,120,1,53298,1
2,31797,30640,32345,95267,3876,-4514,-133,-1556,787,4669,9270,87,579,-235,1,1,3,32,160,1,53298,1
2,31740,30595,32345,95268,3892,-4535,-151,-1459,839,4612,8502,50,576,-246,1,1,3,32,200,1,53298,1
2,31705,30585,32336,95269,3908,-4618,-186,-1042,-404,4752,6860,48,556,-272,1,1,3,32,240,1,53298,1
2,31697,30591,32341,95270,3924,-4601,-642,-1232,-1430,3894,4822,42,554,-274,1,1,3,32,280,1,53298,1
2,31701,30581,32341,95271,3941,-4509,-597,-1009,646,1780,2981,32,552,-276,1,1,3,32,320,1,53298,1
2,31717,30575,32336,95272,3958,-4266,-527,-1109,911,-60,758,47,547,-273,1,1,3,32,360,1,53298,1
2,31755,30579,32339,95273,3974,-4146,-209,-1158,-239,-1150,-1566,51,561,-273,1,1,3,32,400,1,53298,1
2,31908,30573,32347,95274,3990,-4300,-130,-1263,-1463,-1741,-3516,62,560,-262,1,1,3,32,440,1,53298,1
2,32326,30597,32350,95275,4007,-4539,-417,-1374,-1490,-2535,-5117,76,576,-250,1,1,3,32,480,1,53298,1
2,33720,30639,32354,95276,4023,-4577,-358,-1402,-1415,-3282,-7004,100,592,-240,1,1,3,32,520,1,53298,1
2,33942,30636,32354,95277,4040,-4493,849,-648,-1143,-4296,-8166,122,588,-230,1,1,3,32,560,1,53298,1
2,33266,30648,32364,95278,4057,-4517,-398,-1663,-2491,-4844,-8210,150,590,-222,1,1,3,32,600,1,53298,1
2,32792,30668,32383,95279,4075,-4481,-484,-1882,-2244,-4142,-9111,179,595,-227,1,1,3,32,640,1,53298,1
2,32285,30665,32392,95280,4092,-4539,-255,-1630,-2023,-3104,-9731,203,601,-221,1,1,3,32,680,1,53298,1
2,32096,30646,32438,95281,4110,-4445,459,-1247,2464,-3931,-7971,231,597,-223,1,1,3,32,720,1,53298,1
2,32060,30666,32478,95282,4126,-4306,699,-1611,4560,-4400,-5329,249,605,-221,1,1,3,32,760,1,53298,1
2,32180,30707,32482,95283,4142,-3793,877,-2130,2122,-2281,-3210,249,601,-207,1,1,3,32,800,1,53298,1
2,32481,30745,32483,95284,4159,-3985,434,-1303,1149,-315,-327,246,602,-210,1,1,3,32,840,1,53298,1
2,33404,30699,32472,95285,4176,-4080,383,-1279,58,773,2434,224,604,-208,1,1,3,32,880,1,53298,1
2,34322,33973,32385,95286,4193,-4164,331,-1390,1257,1488,4930,201,605,-217,1,1,3,32,920,1,53298,1
2,34727,34003,32391,95287,4193,-4334,399,-1262,1404,2211,6778,173,607,-201,1,1,3,32,960,1,53298,1
1,33905,33952,32398,95288,3347,-4346,118,-1859,-839,3301,7872,145,591,-213,1,1,3,33,0,1,53298,1
2,32648,34088,32422,95289,3363,-4335,-167,-2361,-756,4997,8640,104,600,-230,1,1,3,33,40,1,53298,1
2,31931,34309,32417,95290,3380,-4860,390,-616,1612,5808,9242,84,582,-244,1,1,3,33,80,1,53298,1
2,31802,34338,32410,95291,3397,-4607,-315,-1701,207,5378,9399,65,575,-259,1,1,3,33,120,1,53298,1
2,31752,34326,32401,95292,3414,-4651,-154,-1253,1322,4871,8475,38,560,-268,1,1,3,33,160,1,53298,1
2,31732,34266,32400,95293,3431,-4589,-506,-1313,-1411,4563,6226,35,553,-271,1,1,3,33,200,1,53298,1
2,31718,34154,32401,95294,3447,-4547,-585,-1057,-1358,3635,4006,36,542,-276,1,1,3,33,240,1,53298,1
2,31700,33629,32365,95295,3464,-4526,-626,-974,101,1694,1988,36,552,-282,1,1,3,33,280,1,53298,1
2,31714,32819,32366,95296,3482,-4245,-157,-1020,553,-220,-141,38,548,-278,1,1,3,33,320,1,53298,1
2,31752,32747,32374,95297,3497,-4240,-161,-1228,-682,-1535,-1920,49,559,-267,1,1,3,33,360,1,53298,1
2,31860,32900,32369,95298,3513,-4394,-380,-1344,-1731,-2298,-3861,55,567,-263,1,1,3,33,400,1,53298,1
2,32200,32892,32387,95299,3529,-4470,-451,-1455,-1919,-2959,-5874,79,569,-243,1,1,3,33,440,1,53298,1
2,33618,33100,32390,95300,3546,-4505,-401,-1379,-1795,-3454,-7788,104,582,-240,1,1,3,33,480,1,53298,1
2,34881,32778,32387,95301,3563,-4357,956,-620,-909,-4487,-8692,121,583,-227,1,1,3,33,520,1,53298,1
2,34139,32944,32388,95302,3579,-4435,-462,-1746,-1879,-4638,-8580,148,594,-226,1,1,3,33,560,1,53298,1
2,33531,32785,32403,95303,3596,-4626,-393,-1659,-776,-4074,-9244,181,603,-215,1,1,3,33,600,1,53298,1
2,32779,32931,32410,95304,3613,-4616,-275,-1579,-1188,-3284,-9800,217,609,-221,1,1,3,33,640,1,53298,1
2,32464,32856,32466,95305,3629,-4493,167,-1381,2491,-3623,-8316,245,605,-223,1,1,3,33,680,1,53298,1
2,32409,32798,32531,95306,3646,-4219,557,-1506,4520,-3495,-6026,261,599,-209,1,1,3,33,720,1,53298,1
2,32625,33029,32552,95307,3664,-3929,1064,-1564,3932,-2055,-3376,261,595,-199,1,1,3,33,760,1,53298,1
2,32968,32957,32513,95308,3681,-4308,250,-1065,1078,-546,-443,260,602,-214,1,1,3,33,800,1,53298,1
2,33711,33030,32456,95309,3699,-4114,176,-1481,-355,360,1874,252,606,-206,1,1,3,33,840,1,53298,1
2,34317,32877,32413,95310,3716,-4198,302,-1281,-190,1184,4093,214,606,-208,1,1,3,33,880,1,53298,1
2,34592,32845,32397,95311,3734,-4277,194,-1563,-549,1851,6062,181,609,-203,1,1,3,33,920,1,53298,1
2,33805,32797,32399,95312,3734,-4234,19,-1994,-495,3017,7715,156,590,-210,1,1,3,33,960,1,53298,1
1,32642,32726,32403,95313,2882,-4553,-275,-1879,846,4769,8942,127,597,-221,1,1,3,34,0,0,53298,1
2,31991,32619,32409,95314,2900,-4850,-213,-945,1591,5281,8531,105,593,-229,1,1,3,34,40,0,53298,1
2,31857,32557,32417,95315,2917,-4629,-269,-1174,1613,5066,7636,84,590,-242,1,1,3,34,80,0,53298,1
2,31798,32497,32405,95316,2934,-4479,-31,-1265,1353,4451,6344,60,574,-252,1,1,3,34,120,0,53298,1
2,31767,32499,32397,95317,2950,-4509,-29,-1350,-407,4368,5134,38,562,-258,1,1,3,34,160,0,53298,1
2,31752,32455,32389,95318,2967,-4516,-229,-1518,-1225,3570,3817,39,561,-267,1,1,3,34,200,0,53298,1
2,31752,32431,32385,95319,2983,-4425,-329,-1402,-499,2577,2304,40,554,-272,1,1,3,34,240,0,53298,1
2,31748,32437,32379,95320,3000,-4298,-320,-1156,351,1382,842,38,556,-276,1,1,3,34,280,0,53298,1
2,31765,32388,32380,95321,3016,-4182,99,-1158,308,355,-782,38,566,-262,1,1,3,34,320,0,53298,1
2,31810,32364,32382,95322,3032,-4397,-194,-1169,-829,-392,-836,50,560,-272,1,1,3,34,360,0,53298,1
2,31905,32363,32389,95323,3048,-4545,-336,-1257,-2634,-1128,-3081,52,568,-262,1,1,3,34,400,0,53298,1
2,32172,32337,32399,95324,3065,-4499,-513,-1419,-3104,-2163,-5429,73,577,-247,1,1,3,34,440,0,53298,1
2,33662,32363,32396,95325,3082,-4473,-464,-1410,-2123,-3045,-7239,80,580,-238,1,1,3,34,480,0,53298,1
2,34666,32669,32382,95326,3098,-4593,340,-909,-1224,-3849,-8557,117,589,-235,1,1,3,34,520,0,53298,1
2,33924,32536,32385,95327,3115,-4365,-411,-1861,-2129,-4491,-8507,146,598,-226,1,1,3,34,560,0,53298,1
2,33297,32626,32386,95328,3132,-4347,-389,-1818,-1230,-3635,-9177,169,595,-219,1,1,3,34,600,0,53298,1
2,32770,32720,32405,95329,3149,-4406,-172,-1724,-1160,-2627,-9219,206,606,-230,1,1,3,34,640,0,53298,1
2,32396,33097,32427,95330,3165,-4330,255,-1498,1868,-2695,-8111,220,606,-222,1,1,3,34,680,0,53298,1
2,32223,33028,32430,95331,3183,-4144,725,-1554,4635,-2768,-5294,240,606,-224,1,1,3,34,720,0,53298,1
2,32248,32881,32436,95332,3200,-3990,1043,-1582,3770,-1548,-2764,245,603,-225,1,1,3,34,760,0,53298,1
2,32424,32968,32424,95333,3216,-4027,906,-1248,1511,94,146,240,612,-224,1,1,3,34,800,0,53298,1
2,32760,32935,32408,95334,3233,-4091,411,-1482,-1150,1271,2530,223,607,-229,1,1,3,34,840,0,53298,1
2,33370,32872,32393,95335,3249,-4185,206,-1591,-474,1928,4746,193,607,-233,1,1,3,34,880,0,53298,1
2,34168,32782,32387,95336,3265,-4416,219,-1319,849,2310,6794,164,606,-216,1,1,3,34,920,0,53298,1
2,34566,32669,32389,95337,3265,-4494,141,-1493,552,2604,8005,132,602,-242,1,1,3,34,960,0,53298,1
1,34333,32610,32399,95338,2418,-4465,-33,-1800,-292,4646,8387,106,594,-242,1,1,3,35,0,1,53298,1
2,32942,32569,32401,95339,2435,-4410,-141,-1998,-292,4904,8222,86,590,-236,1,1,3,35,40,1,53298,1
2,32176,32540,32391,95340,2452,-4705,76,-1007,484,4055,7726,63,575,-263,1,1,3,35,80,1,53298,1
2,31881,32526,32388,95341,2469,-4555,-299,-1349,402,3097,6288,55,569,-271,1,1,3,35,120,1,53298,1
2,31809,32495,32378,95342,2486,-4461,-264,-1240,804,2740,4071,33,555,-273,1,1,3,35,160,1,53298,1
2,31782,32516,32378,95343,2503,-4298,-407,-1412,-718,1891,1929,45,559,-281,1,1,3,35,200,1,53298,1
2,31783,32494,32375,95344,2519,-4355,-515,-1258,-1055,420,-142,35,557,-267,1,1,3,35,240,1,53298,1
2,31792,32480,32376,95345,2535,-4340,-528,-1344,-439,-1010,-2068,43,551,-277,1,1,3,35,280,1,53298,1
2,31842,32465,32381,95346,2551,-4436,-269,-1191,325,-1984,-4398,50,566,-264,1,1,3,35,320,1,53298,1
2,32031,32539,32381,95347,2568,-4533,-385,-1193,-1243,-2023,-6925,64,576,-268,1,1,3,35,360,1,53298,1
2,32575,32564,32381,95348,2584,-4555,-500,-1243,-2808,-2603,-8813,89,587,-255,1,1,3,35,400,1,53298,1
2,33934,32593,32379,95349,2600,-4504,-335,-1135,-2488,-3681,-9127,114,588,-250,1,1,3,35,440,1,53298,1
2,33850,32648,32380,95350,2617,-4457,176,-1184,-339,-5115,-9072,135,591,-239,1,1,3,35,480,1,53298,1
2,33468,32737,32386,95351,2634,-4482,-314,-1768,505,-4917,-9235,166,602,-230,1,1,3,35,520,1,53298,1
2,32973,32783,32398,95352,2651,-4615,-226,-2020,1833,-4475,-8581,203,597,-229,1,1,3,35,560,1,53298,1
2,32622,32721,32423,95353,2668,-4488,393,-1811,3537,-3603,-6053,233,605,-225,1,1,3,35,600,1,53298,1
2,32493,32777,32447,95354,2684,-4207,987,-1660,5370,-3401,-2885,258,606,-222,1,1,3,35,640,1,53298,1
2,32629,32945,32444,95355,2701,-3879,1213,-1687,4261,-2293,139,243,609,-213,1,1,3,35,680,1,53298,1
2,32916,32760,32435,95356,2718,-3934,813,-1206,1259,-92,2724,238,600,-222,1,1,3,35,720,1,53298,1
2,33366,32798,32425,95357,2735,-3969,337,-1449,-1106,1019,4904,209,605,-221,1,1,3,35,760,1,53298,1
2,33975,32858,32410,95358,2752,-4166,102,-1543,-910,1651,6434,197,605,-221,1,1,3,35,800,1,53298,1
2,34117,32812,32405,95359,2770,-4383,34,-1414,-608,2520,7244,157,603,-219,1,1,3,35,840,1,53298,1
2,33802,32749,32402,95360,2787,-4350,-106,-1808,-1266,2977,7710,140,604,-228,1,1,3,35,880,1,53298,1
2,32968,32776,32405,95361,2804,-4294,-226,-2186,-872,4257,8066,106,592,-230,1,1,3,35,920,1,53298,1
2,32207,32822,32396,95362,2804,-4784,155,-873,756,4968,8170,88,586,-248,1,1,3,35,960,1,53298,1
1,31865,32848,32395,95363,1953,-4600,-145,-1472,1574,3790,7426,66,582,-258,1,1,3,36,0,1,53298,1
2,31792,32842,32380,95364,1969,-4542,-1,-1243,-728,3808,5869,49,567,-265,1,1,3,36,40,1,53298,1
2,31739,32796,32378,95365,1985,-4352,-237,-1567,-1312,3333,4262,36,568,-272,1,1,3,36,80,1,53298,1
2,31727,32819,32374,95366,2001,-4447,-387,-1300,-397,2191,2653,37,555,-277,1,1,3,36,120,1,53298,1
2,31717,32736,32375,95367,2018,-4480,-599,-1313,1045,441,720,33,551,-269,1,1,3,36,160,1,53298,1
2,31728,32716,32377,95368,2035,-4357,-472,-1083,120,-891,-1188,37,549,-279,1,1,3,36,200,1,53298,1
2,31748,32687,32381,95369,2050,-4275,-55,-1104,-1813,-1854,-3036,55,559,-275,1,1,3,36,240,1,53298,1
2,31797,32699,32386,95370,2066,-4461,-205,-1216,-3067,-2594,-5177,55,565,-265,1,1,3,36,280,1,53298,1
2,31967,32696,32389,95371,2082,-4601,-338,-1383,-2886,-3159,-7227,86,576,-254,1,1,3,36,320,1,53298,1
2,32508,32602,32403,95372,2099,-4524,-670,-1546,-3016,-3380,-9044,99,579,-253,1,1,3,36,360,1,53298,1
2,34033,32608,32403,95373,2116,-4439,-546,-1561,-1711,-4300,-9198,124,584,-232,1,1,3,36,400,1,53298,1
2,33615,32683,32401,95374,2132,-4340,849,-920,659,-4347,-8649,155,599,-237,1,1,3,36,440,1,53298,1
2,32948,32655,32411,95375,2148,-4419,-277,-1665,142,-3653,-9099,185,591,-223,1,1,3,36,480,1,53298,1
2,32360,32636,32421,95376,2166,-4466,-131,-1838,-445,-2819,-8576,212,606,-236,1,1,3,36,520,1,53298,1
2,32121,32671,32440,95377,2183,-4409,185,-1748,-205,-2327,-6421,237,605,-233,1,1,3,36,560,1,53298,1
2,32049,32718,32465,95378,2200,-4232,498,-1806,1437,-1515,-2926,250,604,-222,1,1,3,36,600,1,53298,1
2,32113,32720,32459,95379,2217,-4011,1039,-1627,3886,-291,714,258,610,-220,1,1,3,36,640,1,53298,1
2,32306,32788,32450,95380,2233,-4066,881,-1135,4117,1337,2728,245,609,-219,1,1,3,36,680,1,53298,1
2,32758,32795,32427,95381,2249,-4067,460,-1262,-446,2033,4795,229,607,-237,1,1,3,36,720,1,53298,1
2,33591,32816,32414,95382,2264,-4242,187,-1141,-1369,2066,6497,208,608,-230,1,1,3,36,760,1,53298,1
2,34053,32648,32408,95383,2280,-4361,-34,-1360,-1133,2160,7581,172,604,-228,1,1,3,36,800,1,53298,1
2,33915,32637,32412,95384,2295,-4382,-97,-1639,-431,3010,8136,140,608,-224,1,1,3,36,840,1,53298,1
2,33062,32649,32412,95385,2310,-4280,-291,-2214,-164,4142,8236,114,604,-226,1,1,3,36,880,1,53298,1
2,32225,32911,32405,95386,2325,-4730,-11,-1033,1116,3651,7961,90,586,-234,1,1,3,36,920,1,53298,1
2,31865,32914,32401,95387,2325,-4588,-407,-1596,815,3128,7086,70,574,-252,1,1,3,36,960,1,53298,1
1,31793,32663,32398,95388,1488,-4581,-150,-1495,-563,3028,5490,67,569,-257,1,1,3,37,0,1,53298,1
2,31748,32932,32383,95389,1504,-4355,-331,-1535,-1130,2534,3817,59,567,-257,1,1,3,37,40,1,53298,1
2,31738,32884,32384,95390,1519,-4404,-447,-1276,-327,1544,2181,49,565,-265,1,1,3,37,80,1,53298,1
2,31730,32906,32375,95391,1536,-4395,-582,-1052,1028,75,430,42,560,-262,1,1,3,37,120,1,53298,1
2,31749,32614,32388,95392,1552,-4287,-433,-1491,797,-893,-1173,47,567,-263,1,1,3,37,160,1,53298,1
2,31769,32558,32386,95393,1568,-4253,-35,-1149,-646,-1514,-2580,56,572,-262,1,1,3,37,200,1,53298,1
2,31805,32806,32391,95394,1584,-4455,44,-1229,-3500,-2057,-4442,67,561,-245,1,1,3,37,240,1,53298,1
2,31910,32858,32391,95395,1599,-4914,-116,-1153,-5986,-2558,-6900,75,573,-247,1,1,3,37,280,1,53298,1
2,32128,32648,32405,95396,1615,-4834,-543,-1286,-5091,-2954,-8808,108,578,-238,1,1,3,37,320,1,53298,1
2,32699,32832,32401,95397,1630,-4541,-814,-1616,-2021,-3302,-9693,134,588,-234,1,1,3,37,360,1,53298,1
2,33801,32612,32410,95398,1645,-4362,-421,-1339,1481,-4218,-9015,169,591,-223,1,1,3,37,400,1,53298,1
2,33435,32644,32413,95399,1660,-4249,588,-827,-452,-3878,-8475,197,603,-221,1,1,3,37,440,1,53298,1
2,33040,32727,32425,95400,1675,-4313,-296,-1648,-1818,-2581,-8841,222,598,-230,1,1,3,37,480,1,53298,1
2,32489,32849,32459,95401,1692,-4545,-248,-1700,1442,-2359,-7380,252,602,-218,1,1,3,37,520,1,53298,1
2,32226,32771,32510,95402,1707,-4470,272,-1249,2906,-2156,-4798,272,588,-208,1,1,3,37,560,1,53298,1
2,32152,32786,32530,95403,1723,-4166,489,-1630,1937,-791,-2030,291,583,-213,1,1,3,37,600,1,53298,1
2,32218,32767,32510,95404,1739,-3970,343,-1797,1454,697,890,284,594,-210,1,1,3,37,640,1,53298,1
2,32397,32871,32480,95405,1756,-3987,323,-1213,155,1706,3500,282,592,-224,1,1,3,37,680,1,53298,1
2,32899,32881,32459,95406,1772,-4009,113,-1329,1151,2179,5792,256,602,-228,1,1,3,37,720,1,53298,1
2,33503,32812,32440,95407,1789,-4204,-56,-1304,2643,2313,7529,226,612,-216,1,1,3,37,760,1,53298,1
2,33919,32746,32429,95408,1805,-4430,89,-1139,1668,2760,8176,189,605,-227,1,1,3,37,800,1,53298,1
2,33966,32618,32421,95409,1822,-4434,-38,-1540,1058,3963,8312,159,597,-223,1,1,3,37,840,1,53298,1
2,33368,32562,32445,95410,1839,-4349,-61,-2002,1478,5114,8491,131,595,-237,1,1,3,37,880,1,53298,1
2,32311,32576,32450,95411,1854,-4727,0,-1282,1244,4854,8695,109,587,-253,1,1,3,37,920,1,53298,1
2,31974,32534,32449,95412,1854,-4766,-279,-1554,1844,4168,8168,76,574,-252,1,1,3,37,960,1,53298,1
1,31861,32540,32450,95413,1024,-4743,-378,-1398,158,3672,6549,68,580,-260,1,1,3,38,0,0,53298,1
2,31807,32525,32444,95414,1040,-4445,-363,-1027,-1195,3123,4655,56,568,-268,1,1,3,38,40,0,53298,1
2,31791,32434,32436,95415,1055,-4420,-405,-1215,-1713,2018,2729,50,566,-280,1,1,3,38,80,0,53298,1
2,31784,32511,32429,95416,1070,-4397,-646,-1099,-278,204,887,44,556,-274,1,1,3,38,120,0,53298,1
2,31795,32377,32436,95417,1086,-4454,-532,-1219,457,-1324,-947,42,570,-270,1,1,3,38,160,0,53298,1
2,31813,32431,32435,95418,1101,-4280,-255,-1355,-970,-1990,-2899,57,563,-269,1,1,3,38,200,0,53298,1
2,31881,32455,32440,95419,1116,-4558,-129,-1472,-2442,-2298,-5242,68,566,-258,1,1,3,38,240,0,53298,1
2,32015,32425,32450,95420,1131,-4613,-311,-1429,-2147,-2754,-7257,85,579,-255,1,1,3,38,280,0,53298,1
2,32465,32404,32458,95421,1147,-4495,-767,-1363,-1086,-3302,-8748,107,593,-245,1,1,3,38,320,0,53298,1
2,34114,32336,32449,95422,1163,-4489,-378,-784,244,-4522,-9047,132,598,-234,1,1,3,38,360,0,53298,1
2,33911,32361,32445,95423,1179,-4409,646,-1673,-1184,-4559,-8948,174,594,-232,1,1,3,38,400,0,53298,1
2,33354,32315,32457,95424,1195,-4529,-542,-1738,-1129,-3864,-9764,206,602,-222,1,1,3,38,440,0,53298,1
2,32647,32420,32496,95425,1213,-4609,-566,-1648,-782,-3278,-9719,239,605,-231,1,1,3,38,480,0,53298,1
2,32241,34146,32655,95426,1230,-4478,-207,-1450,4519,-3774,-6997,270,596,-220,1,1,3,38,520,0,53298,1
2,32317,34921,32681,95427,1249,-4251,485,-1651,6142,-3158,-3790,285,589,-217,1,1,3,38,560,0,53298,1
2,32173,32295,32653,95428,1268,-4064,855,-1561,2851,-781,-1154,288,592,-210,1,1,3,38,600,0,53298,1
2,32362,32707,32641,95429,1287,-3867,885,-1296,552,763,1792,279,595,-221,1,1,3,38,640,0,53298,1
2,32675,31441,32561,95430,1307,-3929,554,-1511,251,1729,4670,268,608,-218,1,1,3,38,680,0,53298,1
2,33561,31267,32490,95431,1326,-4084,221,-732,1839,2069,7037,232,610,-222,1,1,3,38,720,0,53298,1
2,34300,30997,32506,95432,1344,-4465,216,-1509,181,2487,8351,199,615,-223,1,1,3,38,760,0,53298,1
2,34381,32397,32427,95433,1361,-4389,70,-2270,-2096,3942,8603,167,605,-221,1,1,3,38,800,0,53298,1
2,33525,32555,32406,95434,1378,-4324,-311,-1826,-694,5667,8867,123,597,-221,1,1,3,38,840,0,53298,1
2,32452,32301,32413,95435,1394,-4551,-449,-1366,770,5076,9029,114,596,-230,1,1,3,38,880,0,53298,1
2,31934,32044,32419,95436,1411,-4919,-764,-1146,2612,4437,8170,84,596,-248,1,1,3,38,920,0,53298,1
2,31865,31881,32461,95437,1411,-4704,-570,-1165,1774,3926,6358,63,579,-263,1,1,3,38,960,0,53298,1
1,31800,31928,32428,95438,560,-4793,-557,-939,-1071,3377,3668,52,582,-266,1,1,3,39,0,0,53298,1
2,31722,32314,32363,95439,576,-4863,-750,-1042,-2184,1802,1256,52,578,-270,1,1,3,39,40,0,53298,1
2,31756,32732,32397,95440,591,-4440,-276,-1237,-356,-23,-402,48,578,-266,1,1,3,39,80,0,53298,1
2,31808,32625,32416,95441,607,-4153,-237,-1218,451,-1109,-1708,55,575,-267,1,1,3,39,120,0,53298,1
2,31866,32554,32420,95442,623,-4360,-355,-1300,-1971,-1517,-3862,65,587,-257,1,1,3,39,160,0,53298,1
2,32019,32485,32429,95443,639,-4688,-591,-1297,-3373,-2098,-6066,86,594,-256,1,1,3,39,200,0,53298,1
2,32784,32761,32446,95444,655,-4621,-583,-1185,-3066,-2859,-7843,99,601,-245,1,1,3,39,240,0,53298,1
2,34506,32851,32437,95445,671,-4692,340,-980,-1238,-4435,-8010,126,592,-238,1,1,3,39,280,0,53298,1
2,33979,32897,32415,95446,687,-4471,-734,-1615,-1917,-4193,-8323,160,600,-238,1,1,3,39,320,0,53298,1
2,33297,32794,32434,95447,703,-4471,-766,-1751,-1197,-3456,-9508,187,605,-233,1,1,3,39,360,0,53298,1
2,32578,32960,32465,95448,719,-4468,-299,-1630,-289,-2855,-9759,220,602,-234,1,1,3,39,400,0,53298,1
2,32121,33231,32559,95449,735,-4459,838,-1331,5449,-3437,-7012,252,602,-214,1,1,3,39,440,0,53298,1
2,31997,33190,32582,95450,751,-4269,1058,-1882,4731,-2720,-3909,279,593,-221,1,1,3,39,480,0,53298,1
2,31974,33111,32580,95451,767,-3957,1137,-1829,838,-203,-1131,288,594,-220,1,1,3,39,520,0,53298,1
2,32042,33044,32573,95452,783,-3816,325,-1341,-764,1543,2090,276,592,-214,1,1,3,39,560,0,53298,1
2,32196,33414,32544,95453,800,-4006,345,-1645,158,2171,5090,261,601,-231,1,1,3,39,600,0,53298,1
2,32973,33580,32513,95454,817,-4007,44,-1402,1072,3005,7480,227,611,-223,1,1,3,39,640,0,53298,1
2,34213,33412,32497,95455,832,-4350,252,-1004,1773,2533,9101,186,618,-232,1,1,3,39,680,0,53298,1
2,35056,33303,32488,95456,848,-4543,-165,-1945,-1521,3111,9455,158,612,-230,1,1,3,39,720,0,53298,1
2,35446,33152,32492,95457,864,-4449,-472,-2311,-2374,4666,9059,119,601,-227,1,1,3,39,760,0,53298,1
2,33478,32975,32524,95458,880,-4284,133,-651,-227,5113,9066,100,600,-252,1,1,3,39,800,0,53298,1
2,32293,33046,32500,95459,895,-4781,-556,-1571,-49,4122,8905,68,584,-248,1,1,3,39,840,0,53298,1
2,31945,32819,32498,95460,910,-4706,-278,-952,2084,3114,7373,58,574,-268,1,1,3,39,880,0,53298,1
2,31871,32746,32490,95461,925,-4709,-423,-936,-1189,2773,4631,34,572,-264,1,1,3,39,920,0,53298,1
2,31840,32920,32485,95462,925,-4514,-757,-1218,-2755,1838,2154,44,562,-274,1,1,3,39,960,0,53298,1
1,31833,33018,32476,95463,96,-4302,-678,-1333,-347,119,258,41,553,-279,1,1,3,40,0,1,53298,1
1,31856,32972,32486,95464,112,-4244,-270,-1320,1774,-1319,-1243,52,556,-278,1,1,3,40,40,1,53298,1
1,31930,32942,32500,95465,129,-4449,-215,-1280,652,-2139,-3161,49,565,-267,1,1,3,40,80,1,53298,1
1,32069,32935,32510,95466,147,-4543,-362,-1341,-1713,-2753,-5426,66,572,-252,1,1,3,40,120,1,53298,1
1,32636,32996,32527,95467,165,-4597,-42,-1170,-2573,-3384,-7338,75,579,-243,1,1,3,40,160,1,53298,1
1,35965,32942,32569,95468,183,-4476,436,-1370,-1894,-4491,-7548,97,585,-237,1,1,3,40,200,1,53298,1
1,37125,33776,32491,95469,199,-4346,-254,-1659,-63,-4437,-7466,125,589,-225,1,1,3,40,240,1,53298,1
1,35387,33900,32480,95470,216,-4613,-776,-1663,-4167,-2826,-9193,153,593,-227,1,1,3,40,280,1,53298,1
1,34185,34839,32496,95471,233,-4540,-430,-1453,-2200,-2470,-9821,176,602,-216,1,1,3,40,320,1,53298,1
3,33094,35148,32537,95472,251,-4430,119,-1472,2707,-3152,-8333,205,595,-219,1,1,3,40,360,1,53298,1
3,32422,35050,32567,95473,268,-4168,747,-1477,5225,-2967,-6194,239,601,-219,1,1,3,40,400,1,53298,1
3,32280,34951,32596,95474,285,-4004,1151,-1474,3591,-1758,-3564,259,597,-219,1,1,3,40,440,1,53298,1
0,32309,34995,32595,95475,302,-4004,1151,-1474,3591,-1758,-3564,266,606,-216,1,1,3,40,480,1,53298,1
2,32588,35029,32574,95476,320,-4153,246,-1179,-840,515,2113,255,597,-211,1,1,3,40,520,1,53298,1
2,33119,35003,32542,95477,337,-4204,77,-1484,-808,1077,4266,233,615,-203,1,1,3,40,560,1,53298,1
2,34098,35050,32521,95478,354,-4406,-54,-1207,-651,1589,5731,210,614,-220,1,1,3,40,600,1,53298,1
2,35308,34762,32512,95479,371,-4426,-199,-1586,-1348,2124,6623,184,606,-220,1,1,3,40,640,1,53298,1
2,35736,34559,32513,95480,388,-4241,-406,-2105,-1089,3171,7077,160,604,-222,1,1,3,40,680,1,53298,1
2,33935,34482,32511,95481,406,-4359,-169,-1851,1307,4527,7576,128,592,-226,1,1,3,40,720,1,53298,1
2,32554,34473,32523,95482,423,-4754,-103,-1048,2142,4505,7890,113,585,-227,1,1,3,40,760,1,53298,1
2,32042,34369,32504,95483,440,-4690,-227,-1218,1970,3941,7427,102,590,-244,1,1,3,40,800,1,53298,1
2,31874,34379,32494,95484,457,-4497,-151,-1393,1208,3444,6021,68,576,-246,1,1,3,40,840,1,53298,1
2,31835,34292,32485,95485,474,-4368,-194,-1301,-889,3325,4368,65,563,-253,1,1,3,40,880,1,53298,1
2,31808,34231,32477,95486,490,-4387,-381,-1415,-735,2761,3202,57,571,-269,1,1,3,40,920,1,53298,1
2,31791,34198,32471,95487,490,-4418,-399,-1184,983,1649,2023,51,571,-273,1,1,3,40,960,1,53298,1
1,31800,34243,32472,95488,0,-4247,-25,-990,969,389,347,58,572,-264,1,1,3,41,0,0,53298,1
2,31813,34229,32475,95489,39649,-4273,-64,-952,-267,-907,-1042,56,566,-274,1,1,3,41,40,0,53298,1
2,31842,34172,32472,95490,39666,-4390,-318,-1093,-1003,-2147,-2361,59,567,-261,1,1,3,41,80,0,53298,1
2,31910,34214,32476,95491,39682,-4494,-265,-1161,-408,-3324,-3707,66,568,-256,1,1,3,41,120,0,53298,1
2,32164,34207,32480,95492,39698,-4586,-443,-1367,-350,-4041,-5179,84,582,-250,1,1,3,41,160,0,53298,1
2,32887,34275,32493,95493,39715,-4612,-408,-1549,-1270,-4163,-6907,106,584,-226,1,1,3,41,200,0,53298,1
2,35267,34318,32479,95494,39732,-4600,601,-1024,-1411,-4134,-7897,134,596,-228,1,1,3,41,240,0,53298,1
2,34391,34401,32478,95495,39749,-4629,-333,-1767,-1817,-4258,-7370,148,600,-216,1,1,3,41,280,0,53298,1
2,33409,34452,32483,95496,39767,-4525,-361,-1736,-2037,-3304,-7451,165,589,-211,1,1,3,41,320,0,53298,1
2,32790,34502,32462,95497,39784,-4361,-397,-1754,-2711,-2150,-7784,189,599,-221,1,1,3,41,360,0,53298,1
2,32503,34588,32478,95498,39801,-4193,-97,-1503,-300,-1673,-6702,212,606,-216,1,1,3,41,400,0,53298,1
2,32341,34564,32503,95499,39818,-4076,499,-1206,3956,-1767,-4005,229,607,-211,1,1,3,41,440,0,53298,1
2,32301,34556,32520,95500,39835,-4003,547,-1440,3074,-869,-1782,252,600,-218,1,1,3,41,480,0,53298,1
2,32409,34592,32516,95501,39852,-4102,282,-1425,-425,766,-305,251,603,-217,1,1,3,41,520,0,53298,1
2,32655,34524,32489,95502,39868,-4220,230,-1396,-840,1521,1849,245,603,-223,1,1,3,41,560,0,53298,1
2,33210,34506,32477,95503,39885,-4230,132,-1528,453,1826,4200,222,606,-222,1,1,3,41,600,0,53298,1
2,33789,34367,32459,95504,39902,-4341,257,-1160,1600,2247,6175,204,606,-216,1,1,3,41,640,0,53298,1
2,33898,34248,32457,95505,39918,-4265,58,-1758,371,2913,7366,174,612,-216,1,1,3,41,680,0,53298,1
2,33127,34155,32467,95506,39936,-4407,18,-1737,593,4420,8108,151,603,-233,1,1,3,41,720,0,53298,1
2,32335,34133,32455,95507,39953,-4732,-34,-1184,1726,4465,8694,112,594,-244,1,1,3,41,760,0,53298,1
2,31925,34132,32463,95508,39970,-4713,-60,-1155,2122,4084,8760,102,590,-254,1,1,3,41,800,0,53298,1
2,31839,34118,32457,95509,39987,-4562,-332,-1556,897,3816,7710,75,579,-251,1,1,3,41,840,0,53298,1
1,31791,34055,32443,95510,4,-4600,-385,-1170,-692,3668,5780,68,572,-270,1,1,3,41,880,0,53298,1
1,31772,34013,32447,95511,20,-4495,-633,-1245,-1222,2868,3921,56,560,-268,1,1,3,41,920,0,53298,1
1,31774,34035,32449,95512,36,-4450,-726,-1155,73,1279,2128,40,570,-270,1,1,3,41,960,0,53298,1
1,31777,34003,32448,95513,0,-4391,-383,-1064,52,-74,-87,45,559,-261,1,1,3,42,0,0,53298,1
2,31803,33996,32452,95514,39185,-4429,-411,-1103,-1736,-1221,-2331,64,566,-274,1,1,3,42,40,0,53298,1
2,31852,33989,32457,95515,39201,-4426,-470,-1263,-2838,-2219,-4564,67,565,-265,1,1,3,42,80,0,53298,1
2,32041,34005,32455,95516,39217,-4499,-761,-1407,-2030,-3066,-6442,85,575,-259,1,1,3,42,120,0,53298,1
2,32617,34036,32459,95517,39233,-4558,-730,-1518,-1748,-3482,-8500,95,583,-243,1,1,3,42,160,0,53298,1
2,34192,34064,32453,95518,39249,-4615,776,-632,-42,-4332,-9456,120,596,-234,1,1,3,42,200,0,53298,1
2,33594,34178,32459,95519,39264,-4632,-383,-1660,-44,-4897,-8958,157,603,-227,1,1,3,42,240,0,53298,1
2,32924,34224,32463,95520,39281,-4500,-248,-1812,-384,-4038,-9480,192,606,-230,1,1,3,42,280,0,53298,1
2,32476,34214,32480,95521,39298,-4412,50,-1596,-73,-2966,-9047,217,605,-219,1,1,3,42,320,0,53298,1
2,32174,34212,32518,95522,39316,-4332,265,-1696,875,-2360,-7239,261,605,-227,1,1,3,42,360,0,53298,1
2,32096,34222,32551,95523,39333,-4116,987,-1178,5483,-2272,-3630,273,601,-217,1,1,3,42,400,0,53298,1
2,32124,34201,32557,95524,39350,-3939,645,-1369,3186,-995,-819,279,589,-211,1,1,3,42,440,0,53298,1
2,32233,34272,32548,95525,39368,-4049,272,-1357,-609,526,1137,279,595,-219,1,1,3,42,480,0,53298,1
2,32496,34300,32512,95526,39385,-4116,41,-1450,-979,1323,3434,261,611,-211,1,1,3,42,520,0,53298,1
2,33299,34388,32481,95527,39402,-4315,-52,-1270,1030,1569,5775,239,605,-225,1,1,3,42,560,0,53298,1
2,34191,34204,32459,95528,39419,-4448,54,-1289,2282,1499,7574,201,611,-225,1,1,3,42,600,0,53298,1
2,35058,34003,32463,95529,39436,-4508,-160,-1781,308,2536,7999,171,609,-211,1,1,3,42,640,0,53298,1
2,35211,33835,32478,95530,39452,-4444,-447,-1955,-969,4046,7702,141,605,-217,1,1,3,42,680,0,53298,1
2,33610,33805,32525,95531,39468,-4713,-184,-1163,-518,4934,7514,121,581,-219,1,1,3,42,720,0,53298,1
2,32292,33746,32525,95532,39483,-4532,-517,-1510,115,4278,7396,104,590,-230,1,1,3,42,760,0,53298,1
2,31980,33681,32504,95533,39499,-4476,-269,-1051,2429,3672,6858,78,580,-252,1,1,3,42,800,0,53298,1
2,31868,33683,32483,95534,39515,-4467,-444,-1167,408,3336,5209,77,577,-267,1,1,3,42,840,0,53298,1
2,31815,33660,32473,95535,39531,-4635,-590,-1024,-1841,2519,3108,56,574,-258,1,1,3,42,880,0,53298,1
2,31812,33581,32472,95536,39547,-4612,-729,-1068,-1879,999,1048,56,574,-268,1,1,3,42,920,0,53298,1
2,31820,33782,32461,95537,39563,-4358,-277,-1160,-95,-524,-762,61,577,-259,1,1,3,42,960,0,53298,1
1,31850,33642,32459,95538,0,-4403,-237,-1199,-192,-1449,-2345,60,574,-252,1,1,3,43,0,0,53298,1
2,31933,33717,32474,95539,38722,-4506,-278,-1191,-1854,-1951,-4096,69,577,-245,1,1,3,43,40,0,53298,1
2,32237,33730,32485,95540,38738,-4577,-455,-1259,-3561,-2327,-5953,88,582,-242,1,1,3,43,80,0,53298,1
2,33122,33775,32482,95541,38755,-4551,-236,-1075,-3528,-2881,-7436,112,592,-246,1,1,3,43,120,0,53298,1
2,34621,33836,32463,95542,38771,-4446,-20,-1219,-2320,-3968,-7580,134,594,-234,1,1,3,43,160,0,53298,1
2,34220,33832,32466,95543,38788,-4370,-486,-1563,-1704,-3865,-7743,161,597,-229,1,1,3,43,200,0,53298,1
2,33616,34105,32467,95544,38805,-4473,-473,-1574,-327,-3403,-8079,173,595,-211,1,1,3,43,240,0,53298,1
2,33060,34272,32488,95545,38822,-4499,-125,-1501,359,-2981,-7924,205,597,-223,1,1,3,43,280,0,53298,1
2,32516,34357,32531,95546,38839,-4409,410,-1367,3033,-3050,-6141,246,600,-222,1,1,3,43,320,0,53298,1
2,32358,34940,32632,95547,38856,-3976,820,-1797,3381,-2156,-3539,257,599,-213,1,1,3,43,360,0,53298,1
2,32363,34900,32586,95548,38873,-4099,770,-1270,3205,-526,-558,259,597,-201,1,1,3,43,400,0,53298,1
2,32612,34999,32544,95549,38890,-4154,369,-1191,304,836,1823,258,600,-216,1,1,3,43,440,0,53298,1
2,33032,34925,32501,95550,38908,-4130,152,-1437,-1117,1540,3967,231,599,-207,1,1,3,43,480,0,53298,1
2,33850,34799,32472,95551,38926,-4290,94,-1377,-174,1944,5903,212,598,-216,1,1,3,43,520,0,53298,1
2,34358,34530,32449,95552,38943,-4424,-38,-1639,-314,2490,7278,176,600,-220,1,1,3,43,560,0,53298,1
2,34185,34318,32435,95553,38961,-4369,-316,-2281,97,3767,8097,160,592,-218,1,1,3,43,600,0,53298,1
2,32888,34315,32433,95554,38979,-4641,225,-1119,2206,5254,8545,130,588,-228,1,1,3,43,640,0,53298,1
2,32089,34210,32416,95555,38997,-4652,-221,-1463,1159,5128,8651,95,595,-231,1,1,3,43,680,0,53298,1
2,31852,34221,32408,95556,39016,-4623,-138,-1225,1335,4676,8014,75,585,-235,1,1,3,43,720,0,53298,1
2,31750,34126,32398,95557,39033,-4468,-180,-1225,-211,4563,6467,66,566,-260,1,1,3,43,760,0,53298,1
2,31716,34142,32370,95558,39050,-4377,-543,-1498,-1776,3983,4724,51,571,-275,1,1,3,43,800,0,53298,1
2,31694,34171,32365,95559,39068,-4407,-455,-1125,102,2704,3396,50,568,-284,1,1,3,43,840,0,53298,1
2,31680,34104,32357,95560,39084,-4331,-512,-1153,813,1136,1636,50,562,-282,1,1,3,43,880,0,53298,1
2,31688,34064,32359,95561,39102,-4318,11,-1034,284,-206,-223,46,562,-282,1,1,3,43,920,0,53298,1
2,31722,34078,32369,95562,39119,-4437,-200,-1145,-1896,-1094,-2120,54,560,-280,1,1,3,43,960,0,53298,1
1,31751,34090,32369,95563,0,-4536,-499,-1295,-2952,-1985,-4298,56,572,-272,1,1,3,44,0,0,53298,1
2,31845,34032,32372,95564,38259,-4485,-690,-1399,-2031,-2931,-6190,70,572,-252,1,1,3,44,40,0,53298,1
2,32279,34067,32385,95565,38276,-4442,-556,-1427,-760,-3626,-7920,98,582,-248,1,1,3,44,80,0,53298,1
2,33561,34086,32372,95566,38293,-4451,541,-736,447,-4493,-8870,127,589,-247,1,1,3,44,120,0,53298,1
2,33875,34153,32378,95567,38309,-4498,-389,-1627,-125,-5255,-8429,152,600,-244,1,1,3,44,160,0,53298,1
2,33287,34256,32387,95568,38326,-4571,-407,-1803,-655,-4518,-9072,178,596,-230,1,1,3,44,200,0,53298,1
2,32771,34339,32388,95569,38344,-4597,-192,-1871,-1300,-3417,-9586,206,604,-230,1,1,3,44,240,0,53298,1
2,32282,34495,32432,95570,38361,-4377,335,-1602,1939,-3080,-7904,239,615,-221,1,1,3,44,280,0,53298,1
2,32138,34540,32480,95571,38378,-4102,948,-1459,6024,-3044,-4334,263,609,-215,1,1,3,44,320,0,53298,1
2,32145,34555,32503,95572,38395,-3946,818,-1498,3626,-1431,-1450,272,608,-206,1,1,3,44,360,0,53298,1
2,32330,34625,32501,95573,38412,-4101,350,-1019,-334,287,690,272,596,-214,1,1,3,44,400,0,53298,1
2,32624,34720,32477,95574,38428,-4153,53,-1342,-1969,1043,2744,255,601,-215,1,1,3,44,440,0,53298,1
2,33245,34733,32440,95575,38445,-4309,-98,-1412,-926,1511,4605,237,603,-217,1,1,3,44,480,0,53298,1
2,33772,34621,32418,95576,38462,-4503,-140,-1340,-421,1834,5955,204,616,-218,1,1,3,44,520,0,53298,1
2,33961,34415,32397,95577,38479,-4461,-394,-1802,-1631,2496,6499,179,603,-213,1,1,3,44,560,0,53298,1
2,33636,34284,32394,95578,38497,-4371,-407,-1869,-498,3679,6786,166,590,-224,1,1,3,44,600,0,53298,1
2,32822,34289,32400,95579,38514,-4536,-174,-1131,2036,3926,7291,138,594,-226,1,1,3,44,640,0,53298,1
2,32193,34297,32398,95580,38531,-4563,-104,-1154,3024,3714,7506,118,594,-240,1,1,3,44,680,0,53298,1
2,31900,34286,32395,95581,38548,-4583,-193,-1247,1592,3400,6654,93,585,-239,1,1,3,44,720,0,53298,1
2,31814,34240,32388,95582,38566,-4481,-151,-1300,-470,3346,5247,86,584,-256,1,1,3,44,760,0,53298,1
2,31773,34278,32385,95583,38583,-4383,-226,-1436,-1136,2932,4126,76,578,-266,1,1,3,44,800,0,53298,1
2,31749,34290,32387,95584,38601,-4380,-320,-1380,-335,2184,3193,64,574,-264,1,1,3,44,840,0,53298,1
2,31751,34384,32398,95585,38618,-4429,-341,-1127,392,1353,1999,61,569,-267,1,1,3,44,880,0,53298,1
2,31747,34345,32389,95586,38635,-4283,-123,-1259,-526,485,277,61,563,-271,1,1,3,44,920,0,53298,1
2,31758,34355,32396,95587,38651,-4307,-197,-1190,-923,-449,-1082,59,571,-267,1,1,3,44,960,0,53298,1
1,31784,34309,32389,95588,0,-4395,-308,-1277,-903,-1332,-2376,69,575,-261,1,1,3,45,0,0,53298,1
2,31842,34273,32385,95589,37796,-4397,-445,-1367,-759,-2244,-3735,74,578,-256,1,1,3,45,40,0,53298,1
2,31985,34310,32393,95590,37813,-4367,-470,-1405,-499,-2831,-5202,88,584,-244,1,1,3,45,80,0,53298,1
2,32562,34317,32398,95591,37830,-4461,-339,-1346,-356,-3209,-6453,101,593,-239,1,1,3,45,120,0,53298,1
2,33808,34340,32392,95592,37847,-4558,312,-872,-123,-3793,-7066,124,596,-234,1,1,3,45,160,0,53298,1
2,34235,34393,32388,95593,37863,-4539,-229,-1522,-725,-4370,-6818,152,594,-228,1,1,3,45,200,0,53298,1
2,33593,34458,32390,95594,37880,-4498,-315,-1670,-1208,-3656,-7123,170,610,-214,1,1,3,45,240,0,53298,1
2,33202,34581,32396,95595,37897,-4419,-262,-1618,-1451,-2659,-7301,186,606,-216,1,1,3,45,280,0,53298,1
2,32852,34693,32423,95596,37914,-4337,20,-1440,233,-2368,-6203,220,602,-220,1,1,3,45,320,0,53298,1
2,32560,34720,32456,95597,37932,-4191,429,-1384,2976,-2370,-3881,244,610,-214,1,1,3,45,360,0,53298,1
2,32542,34777,32519,95598,37949,-4112,533,-1502,2640,-1342,-1633,247,607,-203,1,1,3,45,400,0,53298,1
2,32659,34801,32508,95599,37966,-4151,409,-1109,705,-118,384,251,601,-227,1,1,3,45,440,0,53298,1
2,32914,34615,32457,95600,37983,-4150,108,-1447,-1467,769,2246,234,604,-218,1,1,3,45,480,0,53298,1
2,33298,34719,32431,95601,38001,-4187,50,-1540,-637,1484,4058,215,611,-213,1,1,3,45,520,0,53298,1
2,33847,34562,32417,95602,38018,-4359,46,-1411,57,2092,5610,197,607,-223,1,1,3,45,560,0,53298,1
2,33913,34370,32404,95603,38035,-4348,-167,-1894,-196,2882,6672,163,593,-209,1,1,3,45,600,0,53298,1
2,33491,34330,32412,95604,38053,-4464,-121,-1736,984,4155,7295,141,589,-215,1,1,3,45,640,0,53298,1
2,32458,34400,32414,95605,38071,-4653,-12,-1203,1361,4322,7693,126,590,-224,1,1,3,45,680,0,53298,1
2,32005,34348,32410,95606,38089,-4531,-16,-1203,1446,4151,7797,105,593,-241,1,1,3,45,720,0,53298,1
2,31858,34374,32400,95607,38106,-4491,-222,-1475,-18,3945,6972,84,580,-244,1,1,3,45,760,0,53298,1
2,31773,34336,32395,95608,38124,-4443,-322,-1521,-1285,4123,5556,73,573,-251,1,1,3,45,800,0,53298,1
2,31749,34355,32386,95609,38141,-4486,-471,-1331,-1082,3435,4187,55,565,-259,1,1,3,45,840,0,53298,1
2,31729,34295,32377,95610,38158,-4434,-422,-1024,131,2229,2733,46,570,-276,1,1,3,45,880,0,53298,1
2,31715,34270,32365,95611,38175,-4299,-299,-1047,599,681,1069,47,571,-275,1,1,3,45,920,0,53298,1
2,31718,34266,32367,95612,38193,-4271,-99,-1122,88,-466,-388,52,564,-280,1,1,3,45,960,0,53298,1
1,31748,34293,32377,95613,0,-4439,-295,-1181,-881,-1265,-1913,55,567,-265,1,1,3,46,0,1,53298,1
2,31792,34321,32385,95614,37334,-4542,-422,-1311,-1767,-2102,-3876,68,570,-264,1,1,3,46,40,1,53298,1
2,31856,34305,32391,95615,37352,-4514,-576,-1362,-1761,-2951,-5721,87,581,-257,1,1,3,46,80,1,53298,1
2,32148,34333,32395,95616,37370,-4493,-593,-1370,-1468,-3492,-7478,108,590,-246,1,1,3,46,120,1,53298,1
2,32911,34355,32389,95617,37389,-4568,-287,-1176,-965,-3923,-8800,134,598,-228,1,1,3,46,160,1,53298,1
2,33983,34400,32380,95618,37407,-4533,383,-929,490,-5129,-8605,144,592,-218,1,1,3,46,200,1,53298,1
2,33452,34505,32382,95619,37425,-4562,-337,-1557,-597,-5024,-8428,171,597,-217,1,1,3,46,240,1,53298,1
2,32952,34612,32404,95620,37443,-4528,-286,-1635,-1034,-4106,-8817,202,602,-222,1,1,3,46,280,1,53298,1
2,32380,34684,32445,95621,37462,-3894,1118,-1619,-597,-3208,-8059,244,608,-224,1,1,3,46,320,1,53298,1
2,32428,35815,32699,95622,37480,-4214,2455,-1397,-215,-1305,-4913,260,606,-206,1,1,3,46,360,1,53298,1
2,32421,35606,32531,95623,37497,-4100,837,-790,5309,-552,-817,274,604,-212,1,1,3,46,400,1,53298,1
2,32739,35643,32540,95624,37515,-4082,699,-1023,4600,258,2066,262,594,-208,1,1,3,46,440,1,53298,1
2,33094,35639,32494,95625,37533,-4156,197,-1296,-2069,1694,3716,246,612,-206,1,1,3,46,480,1,53298,1
2,33529,35547,32465,95626,37551,-4334,43,-1264,-2351,2223,5430,223,597,-213,1,1,3,46,520,1,53298,1
2,33869,35360,32460,95627,37569,-4409,-187,-1853,-1293,2457,7137,203,603,-217,1,1,3,46,560,1,53298,1
2,33808,35249,32464,95628,37586,-4415,-275,-2147,1460,3423,8471,174,594,-224,1,1,3,46,600,1,53298,1
2,32905,35196,32485,95629,37604,-4752,199,-808,2955,4706,8877,133,595,-223,1,1,3,46,640,1,53298,1
2,32212,35146,32477,95630,37622,-4592,-225,-1486,970,4932,8645,106,596,-238,1,1,3,46,680,1,53298,1
2,31955,35134,32475,95631,37640,-4610,-103,-1177,717,4659,7926,95,591,-247,1,1,3,46,720,1,53298,1
2,31854,35131,32465,95632,37658,-4392,-282,-1558,-646,4517,6756,59,575,-253,1,1,3,46,760,1,53298,1
2,31820,35119,32465,95633,37675,-4480,-369,-1337,-589,3768,5475,56,566,-258,1,1,3,46,800,1,53298,1
2,31807,35117,32467,95634,37692,-4412,-603,-1383,-124,2935,3858,49,561,-271,1,1,3,46,840,1,53298,1
2,31803,35120,32473,95635,37709,-4381,-557,-1000,1037,1644,1865,38,568,-280,1,1,3,46,880,1,53298,1
2,31822,35146,32489,95636,37727,-4264,-136,-1010,305,325,-222,50,558,-284,1,1,3,46,920,1,53298,1
2,31849,35158,32501,95637,37745,-4336,-192,-1107,-320,-990,-1843,48,566,-278,1,1,3,46,960,1,53298,1
1,31890,35165,32510,95638,0,-4488,-432,-1256,-581,-2048,-3572,63,571,-279,1,1,3,47,0,0,53298,1
2,31974,35188,32528,95639,36870,-4536,-379,-1310,-862,-2981,-5428,80,570,-266,1,1,3,47,40,0,53298,1
2,32247,35198,32523,95640,36888,-4586,-520,-1434,-1534,-3534,-7319,89,591,-255,1,1,3,47,80,0,53298,1
2,33064,35255,32533,95641,36906,-4625,-330,-1328,-1464,-3927,-8851,108,606,-240,1,1,3,47,120,0,53298,1
2,34158,35335,32525,95642,36923,-4565,567,-988,-440,-4926,-8898,143,603,-233,1,1,3,47,160,0,53298,1
2,33497,35489,32537,95643,36942,-4518,-322,-1688,-883,-4832,-8478,177,599,-237,1,1,3,47,200,0,53298,1
2,33025,35589,32550,95644,36960,-4489,-253,-1856,-909,-3960,-8803,208,606,-222,1,1,3,47,240,0,53298,1
2,32635,35677,32578,95645,36978,-4354,84,-1731,-426,-2903,-8168,236,614,-224,1,1,3,47,280,0,53298,1
2,32473,35682,32625,95646,36996,-4158,711,-1410,3606,-2873,-5259,254,606,-210,1,1,3,47,320,0,53298,1
2,32456,35671,32676,95647,37013,-3984,896,-1501,4549,-2301,-1833,274,600,-208,1,1,3,47,360,0,53298,1
2,32653,35715,32670,95648,37031,-4044,519,-1321,585,-435,348,266,604,-212,1,1,3,47,400,0,53298,1
2,32969,35723,32636,95649,37050,-4063,407,-1294,-1675,833,2575,256,606,-212,1,1,3,47,440,0,53298,1
2,33388,35627,32574,95650,37067,-4157,147,-1713,-1791,1658,4880,232,614,-216,1,1,3,47,480,0,53298,1
2,33796,35476,32546,95651,37085,-4299,72,-1760,-469,2513,6826,199,611,-211,1,1,3,47,520,0,53298,1
