sensorStatus,cap1,cap2,cap3,counter,microseconds_since_last_tick,accX,accY,accZ,gyroX,gyroY,gyroZ,magnetX,magnetY,magnetZ,day,hour,min,sec,msec,sync,battery_fuel,crc_good
2,31877,30924,32417,96689,17440,-4345,-259,-1385,1,-11,30,145,607,-231,1,1,4,29,40,0,53298,1
2,31881,30928,32419,96690,17454,-4339,-253,-1388,-8,-10,30,149,601,-219,1,1,4,29,80,0,53298,1
2,31890,30940,32424,96691,17468,-4355,-256,-1386,6,-6,31,154,606,-216,1,1,4,29,120,0,53298,1
2,31891,30918,32425,96692,17483,-4338,-250,-1405,2,2,19,150,612,-230,1,1,4,29,160,0,53298,1
2,31890,30899,32427,96693,17497,-4321,-254,-1387,5,3,8,149,605,-229,1,1,4,29,200,0,53298,1
2,31888,30926,32429,96694,17511,-4340,-249,-1385,-3,-4,10,146,600,-226,1,1,4,29,240,0,53298,1
2,31893,30928,32423,96695,17525,-4347,-268,-1392,11,-10,22,148,608,-226,1,1,4,29,280,0,53298,1
2,31896,30912,32426,96696,17539,-4344,-261,-1377,-2,-1,25,154,606,-232,1,1,4,29,320,0,53298,1
2,31886,30919,32425,96697,17553,-4335,-252,-1385,4,-6,28,143,611,-229,1,1,4,29,360,0,53298,1
2,31886,30922,32427,96698,17567,-4347,-269,-1376,1,-11,37,148,608,-222,1,1,4,29,400,0,53298,1
2,31889,30922,32431,96699,17580,-4335,-255,-1386,-8,-10,17,148,602,-226,1,1,4,29,440,0,53298,1
2,31889,30907,32428,96700,17594,-4348,-264,-1390,0,-16,19,152,608,-228,1,1,4,29,480,0,53298,1
2,31895,30935,32423,96701,17607,-4343,-263,-1387,11,-11,28,152,608,-232,1,1,4,29,520,0,53298,1
2,31890,30929,32424,96702,17621,-4354,-251,-1401,9,8,20,157,615,-235,1,1,4,29,560,0,53298,1
2,31895,30951,32429,96703,17634,-4345,-252,-1386,15,10,6,148,610,-236,1,1,4,29,600,0,53298,1
2,31890,30923,32430,96704,17648,-4328,-251,-1385,9,0,1,141,613,-223,1,1,4,29,640,0,53298,1
2,31889,30930,32428,96705,17661,-4326,-241,-1388,9,-11,16,145,595,-223,1,1,4,29,680,0,53298,1
2,31890,30949,32421,96706,17675,-4337,-255,-1382,13,-5,19,152,606,-232,1,1,4,29,720,0,53298,1
2,31895,30933,32423,96707,17689,-4350,-263,-1377,2,-10,29,157,601,-231,1,1,4,29,760,0,53298,1
2,31884,30952,32431,96708,17703,-4335,-242,-1396,0,0,27,148,604,-226,1,1,4,29,800,0,53298,1
2,31896,30936,32423,96709,17718,-4339,-251,-1398,-4,-2,24,155,603,-223,1,1,4,29,840,0,53298,1
2,31888,30963,32422,96710,17732,-4336,-258,-1398,7,-1,21,143,603,-217,1,1,4,29,880,0,53298,1
2,31893,30955,32431,96711,17746,-4351,-264,-1373,6,-6,16,149,599,-229,1,1,4,29,920,0,53298,1
2,31891,30949,32427,96712,17760,-4342,-262,-1386,-7,0,15,143,607,-231,1,1,4,29,960,0,53298,1
1,31896,30964,32430,96713,0,-4346,-256,-1390,12,5,12,149,605,-233,1,1,4,30,0,1,53298,1
2,31887,30960,32428,96714,16976,-4334,-255,-1390,10,2,18,148,604,-224,1,1,4,30,40,1,53298,1
2,31888,30976,32429,96715,16990,-4332,-253,-1398,-1,-9,14,145,603,-217,1,1,4,30,80,1,53298,1
2,31881,30958,32423,96716,17004,-4336,-257,-1383,3,-8,19,149,613,-221,1,1,4,30,120,1,53298,1
2,31889,30925,32425,96717,17019,-4346,-265,-1396,14,-13,26,150,606,-222,1,1,4,30,160,1,53298,1
2,31891,30933,32434,96718,17034,-4339,-257,-1393,5,-9,35,158,614,-230,1,1,4,30,200,1,53298,1
2,31894,30922,32428,96719,17048,-4356,-253,-1387,-2,-11,45,141,611,-227,1,1,4,30,240,1,53298,1
2,31891,30941,32420,96720,17063,-4356,-252,-1376,-87,-56,90,147,599,-225,1,1,4,30,280,1,53298,1
2,31888,30998,32417,96721,17078,-4328,-257,-1464,-220,-190,226,156,604,-230,1,1,4,30,320,1,53298,1
2,31897,30940,32420,96722,17093,-4448,-346,-1450,-183,-436,748,155,607,-223,1,1,4,30,360,1,53298,1
2,32090,35215,32632,96723,17107,-4288,-405,-1606,-118,-816,1112,147,609,-233,1,1,4,30,400,1,53298,1
2,32235,33176,32849,96724,17122,-4560,-551,-1583,-751,-1053,757,142,608,-214,1,1,4,30,440,1,53298,1
2,32723,35792,33192,96725,17137,-4573,-669,-1424,-1430,-1050,-78,145,609,-217,1,1,4,30,480,1,53298,1
2,32855,35837,33214,96726,17153,-4530,-1260,-1247,-253,-728,-1800,168,618,-236,1,1,4,30,520,1,53298,1
2,33293,35932,33259,96727,17169,-4358,-661,-1235,235,-297,-3564,179,623,-239,1,1,4,30,560,1,53298,1
2,34095,36069,33279,96728,17185,-4161,-146,-1297,1164,-82,-4291,206,628,-254,1,1,4,30,600,1,53298,1
2,34931,36139,33255,96729,17201,-4345,1276,-489,2093,-48,-3394,205,621,-243,1,1,4,30,640,1,53298,1
2,34540,36072,33271,96730,17217,-4055,798,-1483,2334,-1144,152,212,630,-244,1,1,4,30,680,1,53298,1
2,34766,35995,33248,96731,17232,-4039,295,-2181,-1053,175,2085,189,633,-251,1,1,4,30,720,1,53298,1
2,35056,35921,33245,96732,17248,-4392,94,-1529,-2241,1911,2929,175,623,-237,1,1,4,30,760,1,53298,1
2,34117,35804,33202,96733,17263,-4448,-240,-1516,-1488,2077,3940,174,630,-256,1,1,4,30,800,1,53298,1
2,33355,35688,33096,96734,17279,-4419,-474,-1330,-370,2361,4205,147,623,-255,1,1,4,30,840,1,53298,1
2,32884,35642,33075,96735,17294,-4474,-645,-935,-1817,2189,3158,139,625,-265,1,1,4,30,880,1,53298,1
2,32779,35636,33073,96736,17309,-4516,-905,-1006,-3249,1566,1795,137,621,-271,1,1,4,30,920,1,53298,1
2,32812,35632,33064,96737,17324,-4709,-1068,-1047,-2127,440,425,143,625,-267,1,1,4,30,960,1,53298,1
1,33081,35647,33080,96738,0,-4669,-913,-1026,-113,-790,-1131,145,633,-257,1,1,4,31,0,1,53298,1
2,33779,35689,33087,96739,16513,-4747,-751,-983,406,-1862,-2742,160,624,-256,1,1,4,31,40,1,53298,1
2,35003,35729,33080,96740,16530,-4609,-282,-925,-1101,-2603,-4320,176,624,-254,1,1,4,31,80,1,53298,1
2,34983,35875,33126,96741,16547,-4442,-531,-1443,-2333,-2852,-5166,193,623,-241,1,1,4,31,120,1,53298,1
2,34717,36040,33182,96742,16564,-4312,-508,-1593,-1261,-2575,-5597,209,615,-243,1,1,4,31,160,1,53298,1
2,34557,36255,33249,96743,16581,-4213,-234,-1737,298,-1999,-5498,235,621,-239,1,1,4,31,200,1,53298,1
2,34538,36401,33264,96744,16600,-4044,389,-1719,2220,-1411,-4200,249,617,-251,1,1,4,31,240,1,53298,1
2,34734,36425,33277,96745,16617,-3970,978,-1525,3959,-703,-1425,257,617,-237,1,1,4,31,280,1,53298,1
2,35104,36374,33274,96746,16636,-4180,770,-1134,2421,187,1361,248,630,-244,1,1,4,31,320,1,53298,1
2,35287,36201,33237,96747,16654,-4212,326,-1428,-1045,1073,3074,218,618,-240,1,1,4,31,360,1,53298,1
2,35463,36053,33235,96748,16671,-4248,115,-1478,-1707,1836,4465,214,624,-252,1,1,4,31,400,1,53298,1
2,35212,35940,33238,96749,16689,-4253,-154,-1814,-1227,2473,5621,186,626,-250,1,1,4,31,440,1,53298,1
2,34304,35879,33238,96750,16706,-4382,-268,-1688,48,3410,6302,156,638,-254,1,1,4,31,480,1,53298,1
2,33200,35855,33240,96751,16724,-4715,-346,-1039,243,3698,6252,138,630,-278,1,1,4,31,520,1,53298,1
2,32820,35809,33220,96752,16741,-4666,-687,-1089,-187,3297,5452,118,634,-264,1,1,4,31,560,1,53298,1
2,32683,35792,33201,96753,16758,-4650,-797,-895,148,2231,3933,112,622,-272,1,1,4,31,600,1,53298,1
2,32645,35790,33200,96754,16775,-4652,-964,-933,-371,1158,1843,121,625,-279,1,1,4,31,640,1,53298,1
2,32692,35783,33196,96755,16792,-4604,-945,-1174,-382,-101,-432,125,621,-275,1,1,4,31,680,1,53298,1
2,32860,35803,33198,96756,16810,-4624,-773,-1108,29,-1176,-2472,126,628,-270,1,1,4,31,720,1,53298,1
2,33615,35863,33225,96757,16827,-4659,-646,-1100,-1033,-2091,-4499,140,632,-256,1,1,4,31,760,1,53298,1
2,34636,35889,33218,96758,16845,-4479,-14,-962,-1668,-3067,-5779,163,631,-257,1,1,4,31,800,1,53298,1
2,35250,35935,33199,96759,16863,-4353,-475,-1516,-2203,-3181,-6339,195,625,-261,1,1,4,31,840,1,53298,1
2,34967,36051,33203,96760,16881,-4316,-281,-1579,-1147,-2845,-6585,210,634,-254,1,1,4,31,880,1,53298,1
2,34787,36176,33236,96761,16898,-4246,-337,-1796,-30,-2176,-6234,224,624,-246,1,1,4,31,920,1,53298,1
2,34699,36303,33252,96762,16916,-4279,123,-1591,1581,-1517,-5287,259,615,-245,1,1,4,31,960,1,53298,1
1,34647,36344,33249,96763,0,-4204,449,-1466,2714,-1063,-3321,265,615,-243,1,1,4,32,0,1,53298,1
2,34784,36340,33268,96764,16050,-4112,602,-1445,2435,-374,-1044,265,621,-243,1,1,4,32,40,1,53298,1
2,34862,36254,33247,96765,16068,-4196,332,-1130,900,443,990,269,629,-243,1,1,4,32,80,1,53298,1
2,34982,36171,33256,96766,16085,-4248,74,-1405,-911,1056,2635,243,623,-251,1,1,4,32,120,1,53298,1
2,35095,36081,33257,96767,16103,-4313,-94,-1474,-1113,1509,4020,226,632,-252,1,1,4,32,160,1,53298,1
2,35042,35997,33250,96768,16121,-4294,-298,-1675,-491,1929,5068,206,628,-256,1,1,4,32,200,1,53298,1
2,34642,35950,33255,96769,16138,-4351,-331,-1545,701,2650,5711,190,632,-256,1,1,4,32,240,1,53298,1
2,33696,35912,33253,96770,16156,-4558,-499,-1156,718,3035,5646,163,639,-267,1,1,4,32,280,1,53298,1
2,33239,35887,33251,96771,16174,-4649,-744,-1071,530,2776,4939,141,633,-261,1,1,4,32,320,1,53298,1
2,33037,35870,33250,96772,16192,-4708,-837,-923,374,1926,3552,134,638,-268,1,1,4,32,360,1,53298,1
2,33025,35878,33245,96773,16210,-4714,-1076,-1060,-829,905,1513,145,637,-277,1,1,4,32,400,1,53298,1
2,33209,35897,33255,96774,16227,-4537,-827,-1192,-649,-151,-503,148,634,-268,1,1,4,32,440,1,53298,1
2,33796,35916,33264,96775,16245,-4641,-749,-1155,-261,-942,-2118,163,627,-273,1,1,4,32,480,1,53298,1
2,34561,35944,33252,96776,16262,-4538,-513,-1018,-593,-1740,-3631,174,632,-258,1,1,4,32,520,1,53298,1
2,35060,35981,33251,96777,16280,-4438,-553,-1201,-1195,-2507,-4568,194,622,-262,1,1,4,32,560,1,53298,1
2,34934,36067,33250,96778,16297,-4372,-573,-1364,-1556,-2688,-5358,213,627,-259,1,1,4,32,600,1,53298,1
2,34715,36215,33260,96779,16314,-4374,-659,-1464,-991,-2595,-5777,228,624,-246,1,1,4,32,640,1,53298,1
2,34456,36365,33274,96780,16332,-4402,-446,-1435,122,-2384,-5797,252,630,-252,1,1,4,32,680,1,53298,1
2,34043,36458,33280,96781,16350,-4397,-146,-1401,1500,-2253,-5075,280,618,-254,1,1,4,32,720,1,53298,1
2,33839,36506,33296,96782,16368,-4276,119,-1405,2342,-1902,-3717,286,616,-234,1,1,4,32,760,1,53298,1
2,33838,36520,33297,96783,16386,-4164,311,-1421,1984,-1073,-2021,288,610,-238,1,1,4,32,800,1,53298,1
2,33994,36517,33302,96784,16405,-4212,204,-1169,1087,-230,-20,285,613,-251,1,1,4,32,840,1,53298,1
2,34217,36491,33300,96785,16423,-4292,-201,-1257,-320,318,1592,281,619,-243,1,1,4,32,880,1,53298,1
2,34630,36421,33287,96786,16442,-4269,-277,-1363,-613,746,2828,269,627,-239,1,1,4,32,920,1,53298,1
2,34942,36291,33283,96787,16460,-4381,-341,-1264,-424,1033,3800,245,623,-231,1,1,4,32,960,1,53298,1
1,35200,36176,33267,96788,0,-4347,-434,-1512,-292,1366,4487,220,628,-232,1,1,4,33,0,0,53298,1
2,35443,36065,33259,96789,15586,-4398,-421,-1386,673,1971,4915,202,628,-250,1,1,4,33,40,0,53298,1
2,35238,35982,33260,96790,15603,-4463,-516,-1486,1148,2500,5062,193,623,-247,1,1,4,33,80,0,53298,1
2,34349,35949,33264,96791,15620,-4590,-468,-1263,1370,2809,4808,175,641,-253,1,1,4,33,120,0,53298,1
2,33678,35910,33260,96792,15637,-4599,-455,-1177,538,2727,4207,162,630,-262,1,1,4,33,160,0,53298,1
2,33256,35890,33250,96793,15654,-4497,-462,-1159,-178,2358,3505,158,636,-276,1,1,4,33,200,0,53298,1
2,33020,35870,33242,96794,15671,-4490,-576,-1114,-542,1840,2640,147,633,-275,1,1,4,33,240,0,53298,1
2,32988,35870,33237,96795,15688,-4559,-723,-1065,-1036,1158,1423,137,633,-273,1,1,4,33,280,0,53298,1
2,33080,35878,33238,96796,15704,-4557,-736,-1169,-1117,311,-102,138,628,-272,1,1,4,33,320,0,53298,1
2,33402,35880,33240,96797,15721,-4570,-656,-1115,-704,-514,-1539,157,627,-275,1,1,4,33,360,0,53298,1
2,33963,35904,33242,96798,15739,-4589,-599,-1086,-1162,-1276,-2941,166,630,-264,1,1,4,33,400,0,53298,1
2,34658,35931,33231,96799,15757,-4561,-455,-1016,-1917,-1979,-4200,176,628,-260,1,1,4,33,440,0,53298,1
2,34912,36016,33238,96800,15775,-4410,-563,-1213,-2081,-2541,-4964,201,625,-249,1,1,4,33,480,0,53298,1
2,34740,36104,33236,96801,15793,-4361,-582,-1289,-1286,-2763,-5398,217,627,-247,1,1,4,33,520,0,53298,1
2,34466,36232,33247,96802,15811,-4410,-631,-1468,-579,-2699,-5725,252,618,-248,1,1,4,33,560,0,53298,1
2,34184,36393,33260,96803,15829,-4416,-343,-1491,578,-2555,-5614,261,611,-239,1,1,4,33,600,0,53298,1
2,33957,36443,33271,96804,15847,-4304,115,-1466,2411,-2323,-4509,278,620,-250,1,1,4,33,640,0,53298,1
2,33937,36464,33276,96805,15864,-4121,461,-1476,3071,-1659,-2635,283,619,-243,1,1,4,33,680,0,53298,1
2,34145,36479,33276,96806,15882,-4167,492,-1303,1970,-576,-424,279,623,-237,1,1,4,33,720,0,53298,1
2,34431,36390,33265,96807,15900,-4185,159,-1326,-121,319,1551,270,610,-242,1,1,4,33,760,0,53298,1
2,34885,36264,33261,96808,15918,-4253,-7,-1443,-594,996,3350,249,617,-245,1,1,4,33,800,0,53298,1
2,35095,36081,33241,96809,15936,-4349,-137,-1529,-608,1638,4760,234,628,-248,1,1,4,33,840,0,53298,1
2,34944,35986,33237,96810,15953,-4418,-405,-1720,-501,2451,5593,214,636,-248,1,1,4,33,880,0,53298,1
2,34277,35915,33237,96811,15970,-4499,-531,-1544,769,3334,5943,190,640,-254,1,1,4,33,920,0,53298,1
2,33488,35878,33229,96812,15988,-4563,-444,-1055,1315,3553,5759,174,632,-248,1,1,4,33,960,0,53298,1
1,32930,35850,33224,96813,0,-4575,-528,-1038,1227,3121,5251,148,640,-262,1,1,4,34,0,0,53298,1
2,32742,35826,33212,96814,15122,-4601,-553,-916,277,2406,4118,141,633,-259,1,1,4,34,40,0,53298,1
2,32684,35814,33210,96815,15139,-4573,-801,-1035,-979,1704,2576,129,633,-265,1,1,4,34,80,0,53298,1
2,32684,35817,33202,96816,15157,-4613,-950,-1073,-935,745,971,129,631,-275,1,1,4,34,120,0,53298,1
2,32744,35821,33207,96817,15174,-4489,-759,-1239,-333,-234,-749,140,634,-274,1,1,4,34,160,0,53298,1
2,32954,35840,33212,96818,15191,-4522,-630,-1116,549,-1129,-2076,148,630,-272,1,1,4,34,200,0,53298,1
2,33398,35883,33225,96819,15209,-4495,-468,-1119,334,-1764,-3223,158,640,-264,1,1,4,34,240,0,53298,1
2,34246,35937,33240,96820,15227,-4513,-188,-1041,167,-2364,-4015,174,630,-250,1,1,4,34,280,0,53298,1
2,35069,35973,33220,96821,15245,-4466,-111,-1201,-553,-2870,-4415,194,628,-256,1,1,4,34,320,0,53298,1
2,34940,36072,33222,96822,15264,-4371,-403,-1459,-1612,-2789,-4720,210,630,-246,1,1,4,34,360,0,53298,1
2,34675,36180,33213,96823,15283,-4326,-516,-1509,-1616,-2393,-4876,229,623,-239,1,1,4,34,400,0,53298,1
2,34363,36300,33224,96824,15301,-4348,-462,-1506,-582,-2034,-4698,246,618,-240,1,1,4,34,440,0,53298,1
2,34158,36413,33227,96825,15319,-4342,-270,-1464,1094,-1785,-3983,265,619,-235,1,1,4,34,480,0,53298,1
2,34063,36447,33241,96826,15336,-4283,179,-1435,2397,-1329,-2691,269,625,-241,1,1,4,34,520,0,53298,1
2,34186,36439,33240,96827,15353,-4133,513,-1461,2306,-480,-859,273,617,-241,1,1,4,34,560,0,53298,1
2,34406,36378,33231,96828,15370,-4208,275,-1210,712,396,1102,269,621,-237,1,1,4,34,600,0,53298,1
2,34791,36275,33220,96829,15387,-4173,-23,-1573,-1283,1167,2683,246,628,-242,1,1,4,34,640,0,53298,1
2,35031,36109,33215,96830,15403,-4225,-68,-1514,-552,1803,4104,226,630,-246,1,1,4,34,680,0,53298,1
2,35039,35996,33207,96831,15420,-4312,-205,-1648,221,2465,5274,201,625,-251,1,1,4,34,720,0,53298,1
2,34415,35918,33204,96832,15438,-4427,-404,-1748,825,3361,5825,178,636,-262,1,1,4,34,760,0,53298,1
2,33525,35864,33202,96833,15455,-4561,-261,-1253,934,4050,5751,161,639,-269,1,1,4,34,800,0,53298,1
2,32953,35832,33194,96834,15472,-4551,-408,-1233,178,3946,5522,144,638,-260,1,1,4,34,840,0,53298,1
2,32656,35791,33182,96835,15488,-4517,-495,-1235,-61,3520,4892,126,634,-280,1,1,4,34,880,0,53298,1
2,32568,35780,33162,96836,15505,-4532,-511,-1108,-476,2948,3781,119,641,-305,1,1,4,34,920,0,53298,1
2,32526,35781,33163,96837,15521,-4516,-626,-1146,-431,2065,2531,124,632,-300,1,1,4,34,960,0,53298,1
1,32525,35782,33159,96838,0,-4522,-677,-1073,-202,881,1068,114,634,-288,1,1,4,35,0,1,53298,1
2,32535,35773,33160,96839,14657,-4511,-623,-1215,-616,-267,-657,123,627,-285,1,1,4,35,40,1,53298,1
2,32589,35763,33144,96840,14672,-4558,-474,-1121,-1311,-1169,-2261,129,629,-285,1,1,4,35,80,1,53298,1
2,32745,35761,33141,96841,14688,-4665,-660,-1190,-2671,-1817,-4020,148,630,-284,1,1,4,35,120,1,53298,1
2,33170,34599,32875,96842,14704,-4644,-561,-1154,-3720,-2409,-5848,170,626,-276,1,1,4,35,160,1,53298,1
2,34164,34640,32878,96843,14719,-4474,-251,-1089,-3509,-3311,-6763,192,626,-258,1,1,4,35,200,1,53298,1
2,34605,34834,32879,96844,14735,-4354,-607,-1442,-2554,-3789,-6896,219,619,-253,1,1,4,35,240,1,53298,1
2,34250,34935,32892,96845,14752,-4361,-574,-1560,-1618,-3640,-7133,237,615,-255,1,1,4,35,280,1,53298,1
2,33900,35079,32926,96846,14769,-4450,-676,-1726,-856,-2967,-7279,275,609,-249,1,1,4,35,320,1,53298,1
2,33455,35090,32991,96847,14787,-4407,-202,-1656,814,-2418,-6875,297,607,-243,1,1,4,35,360,1,53298,1
2,33110,35112,32999,96848,14805,-4187,374,-1598,4018,-2137,-4769,298,602,-228,1,1,4,35,400,1,53298,1
2,33119,35104,32999,96849,14823,-3941,706,-1656,4475,-1067,-2137,311,601,-235,1,1,4,35,440,1,53298,1
2,33344,35120,32987,96850,14840,-4102,720,-1252,3152,360,851,309,609,-235,1,1,4,35,480,1,53298,1
2,33817,35091,32980,96851,14858,-4219,217,-1108,405,1224,3268,281,607,-243,1,1,4,35,520,1,53298,1
2,34365,34977,32965,96852,14876,-4255,-42,-1472,-886,1756,5097,268,620,-240,1,1,4,35,560,1,53298,1
2,34985,34854,32960,96853,14893,-4372,-183,-1389,-688,2215,6499,245,619,-253,1,1,4,35,600,1,53298,1
2,35232,34675,32959,96854,14911,-4244,-381,-1786,472,2725,7692,206,620,-246,1,1,4,35,640,1,53298,1
2,34445,34591,32964,96855,14930,-4421,-804,-1789,3335,3591,8448,178,636,-256,1,1,4,35,680,1,53298,1
2,33074,34475,32955,96856,14948,-5215,-798,-464,4198,3774,7669,144,638,-266,1,1,4,35,720,1,53298,1
2,32623,34469,32935,96857,14966,-5000,-1031,-948,964,2841,5173,141,641,-277,1,1,4,35,760,1,53298,1
2,32472,34415,32924,96858,14983,-4613,-648,-806,-796,1703,2720,133,641,-267,1,1,4,35,800,1,53298,1
2,32431,34380,32920,96859,15001,-4575,-941,-1104,-2761,1018,734,136,626,-278,1,1,4,35,840,1,53298,1
2,32472,34355,32921,96860,15018,-4657,-621,-1291,-2579,155,-1107,135,643,-259,1,1,4,35,880,1,53298,1
2,32590,34412,32921,96861,15035,-4559,-477,-1346,-2748,-563,-2758,153,631,-265,1,1,4,35,920,1,53298,1
2,33083,34439,32920,96862,15052,-4494,-743,-1224,-2867,-1302,-4113,169,629,-273,1,1,4,35,960,1,53298,1
1,34072,34514,32919,96863,0,-4437,-322,-875,-2662,-2125,-5198,191,623,-255,1,1,4,36,0,0,53298,1
2,34916,34587,32911,96864,14193,-4390,-563,-1204,-2693,-2868,-5564,203,627,-251,1,1,4,36,40,0,53298,1
2,34516,34641,32898,96865,14211,-4408,-704,-1312,-1783,-2945,-6062,226,624,-250,1,1,4,36,80,0,53298,1
2,34029,34735,32909,96866,14230,-4502,-927,-1486,-1086,-2669,-6650,248,624,-246,1,1,4,36,120,0,53298,1
2,33401,34837,32939,96867,14248,-4556,-728,-1525,-353,-2311,-7260,282,612,-246,1,1,4,36,160,0,53298,1
2,33012,34856,32960,96868,14267,-4423,-104,-1358,2745,-2413,-6363,299,607,-241,1,1,4,36,200,0,53298,1
2,32824,34800,32965,96869,14286,-4164,372,-1430,4309,-2071,-4370,311,607,-235,1,1,4,36,240,0,53298,1
2,32874,34793,32963,96870,14305,-4023,713,-1406,3382,-979,-1892,317,599,-229,1,1,4,36,280,0,53298,1
2,33075,34824,32960,96871,14323,-4134,208,-1227,802,326,662,311,601,-237,1,1,4,36,320,0,53298,1
2,33588,34804,32954,96872,14341,-4179,-88,-1291,-572,1031,2755,294,612,-238,1,1,4,36,360,0,53298,1
2,34152,34730,32941,96873,14359,-4284,-128,-1382,-179,1323,4657,272,618,-246,1,1,4,36,400,0,53298,1
2,34561,34578,32921,96874,14376,-4423,-187,-1341,-331,1861,5993,251,631,-247,1,1,4,36,440,0,53298,1
2,34425,34470,32923,96875,14394,-4381,-373,-1702,-723,2654,6777,220,632,-242,1,1,4,36,480,0,53298,1
2,33684,34411,32927,96876,14411,-4459,-619,-1966,600,3974,7230,193,625,-251,1,1,4,36,520,0,53298,1
2,32860,34374,32914,96877,14428,-4777,-291,-889,1963,4499,7194,163,637,-257,1,1,4,36,560,0,53298,1
2,32433,34297,32897,96878,14446,-4682,-604,-1142,963,3950,6645,150,636,-274,1,1,4,36,600,0,53298,1
2,32332,34269,32890,96879,14462,-4608,-611,-922,747,3090,5447,139,629,-283,1,1,4,36,640,0,53298,1
2,32295,34276,32886,96880,14479,-4576,-842,-1005,-1031,2421,3551,127,631,-279,1,1,4,36,680,0,53298,1
2,32296,34258,32883,96881,14497,-4607,-1007,-1051,-1279,1296,1634,134,630,-290,1,1,4,36,720,0,53298,1
2,32335,34285,32892,96882,14514,-4496,-736,-1226,-37,25,-176,135,627,-293,1,1,4,36,760,0,53298,1
2,32450,34251,32888,96883,14531,-4661,-717,-1072,56,-977,-2018,139,629,-275,1,1,4,36,800,0,53298,1
2,32784,34255,32900,96884,14548,-4653,-675,-1066,-1847,-1714,-4142,156,644,-284,1,1,4,36,840,0,53298,1
2,33570,34284,32906,96885,14566,-4587,-343,-790,-2292,-2693,-5682,177,627,-257,1,1,4,36,880,0,53298,1
2,34427,34309,32912,96886,14583,-4506,-494,-1091,-2380,-3789,-6400,200,634,-256,1,1,4,36,920,0,53298,1
2,34229,34409,32943,96887,14602,-4430,-746,-1427,-1965,-4119,-7080,226,620,-248,1,1,4,36,960,0,53298,1
1,33759,34586,33014,96888,0,-4573,-908,-1579,-1177,-3817,-7771,262,616,-248,1,1,4,37,0,1,53298,1
2,33245,35158,33038,96889,13731,-4568,-607,-1542,-314,-3427,-8154,282,614,-242,1,1,4,37,40,1,53298,1
2,32911,35402,33084,96890,13750,-4436,-124,-1450,2941,-3471,-6968,311,597,-227,1,1,4,37,80,1,53298,1
2,32730,34830,33080,96891,13769,-4185,323,-1523,4439,-2829,-5077,326,584,-228,1,1,4,37,120,1,53298,1
2,32782,35733,33090,96892,13787,-3975,749,-1529,3552,-1483,-2587,336,588,-218,1,1,4,37,160,1,53298,1
2,32920,35472,33086,96893,13805,-4079,285,-1240,717,63,153,330,596,-222,1,1,4,37,200,1,53298,1
2,33377,35747,33101,96894,13823,-4137,-7,-1405,-1034,947,2615,314,614,-218,1,1,4,37,240,1,53298,1
2,33873,35453,33059,96895,13841,-4428,-183,-1111,-1008,1542,4657,286,598,-232,1,1,4,37,280,1,53298,1
2,34418,35320,33024,96896,13859,-4488,-277,-1423,-1422,2045,5998,260,618,-220,1,1,4,37,320,1,53298,1
2,34511,35339,32994,96897,13877,-4422,-433,-1729,-2089,3005,6516,231,623,-253,1,1,4,37,360,1,53298,1
2,34171,35196,32990,96898,13895,-4309,-596,-1960,-1015,4055,6982,204,624,-256,1,1,4,37,400,1,53298,1
2,33191,35141,32990,96899,13913,-4631,-483,-1211,1162,4779,7474,178,640,-260,1,1,4,37,440,1,53298,1
2,32686,35184,32989,96900,13930,-4638,-507,-1121,2198,4230,7467,165,635,-273,1,1,4,37,480,1,53298,1
2,32447,34959,32919,96901,13948,-4635,-434,-936,1780,3528,6542,140,630,-274,1,1,4,37,520,1,53298,1
2,32361,35038,32923,96902,13965,-4524,-504,-1018,264,3031,5118,120,632,-284,1,1,4,37,560,1,53298,1
2,32336,34948,32915,96903,13982,-4511,-578,-1229,-567,2443,3687,120,624,-290,1,1,4,37,600,1,53298,1
2,32323,34968,32918,96904,13999,-4551,-633,-1251,-71,1558,2319,115,625,-295,1,1,4,37,640,1,53298,1
2,32345,35018,32912,96905,14016,-4557,-569,-1251,322,551,718,116,626,-302,1,1,4,37,680,1,53298,1
2,32370,34983,32920,96906,14034,-4454,-253,-1127,-10,-239,-854,127,625,-295,1,1,4,37,720,1,53298,1
2,32478,35026,32916,96907,14050,-4562,-605,-1103,-1145,-900,-2385,132,618,-286,1,1,4,37,760,1,53298,1
2,32767,35001,32925,96908,14068,-4537,-818,-1144,-2424,-1677,-4299,152,630,-278,1,1,4,37,800,1,53298,1
2,33454,35092,32921,96909,14085,-4480,-603,-969,-1966,-2711,-5932,167,625,-275,1,1,4,37,840,1,53298,1
2,34495,35166,32901,96910,14103,-4454,-401,-1032,-1096,-3944,-6659,197,631,-265,1,1,4,37,880,1,53298,1
2,34443,35370,32897,96911,14120,-4517,-574,-1371,-945,-4464,-7145,218,628,-252,1,1,4,37,920,1,53298,1
2,34018,35511,32907,96912,14139,-4603,-718,-1658,-763,-4155,-7786,255,621,-249,1,1,4,37,960,1,53298,1
1,33408,35601,32936,96913,0,-4569,-488,-1680,65,-3524,-8161,274,612,-236,1,1,4,38,0,1,53298,1
2,33030,35635,32964,96914,13267,-4432,0,-1465,2766,-3319,-6945,306,602,-232,1,1,4,38,40,1,53298,1
2,32838,35679,32993,96915,13285,-4218,309,-1507,3727,-2775,-4992,325,599,-227,1,1,4,38,80,1,53298,1
2,32852,35713,32994,96916,13303,-4024,568,-1447,2965,-1527,-2709,327,597,-225,1,1,4,38,120,1,53298,1
2,32989,35753,32975,96917,13322,-4122,341,-1132,1265,-226,-42,318,600,-220,1,1,4,38,160,1,53298,1
2,33296,35755,33003,96918,13340,-4240,-130,-1287,-1166,628,2007,304,606,-232,1,1,4,38,200,1,53298,1
2,33664,35674,32968,96919,13358,-4315,-335,-1375,-1599,1184,3600,295,615,-235,1,1,4,38,240,1,53298,1
2,34138,35588,32941,96920,13377,-4417,-419,-1450,-1175,1756,4816,276,612,-242,1,1,4,38,280,1,53298,1
2,34549,35449,32932,96921,13396,-4468,-463,-1407,-583,2361,5622,248,616,-242,1,1,4,38,320,1,53298,1
2,34550,35376,32941,96922,13414,-4346,-401,-1549,207,3044,6197,222,624,-242,1,1,4,38,360,1,53298,1
2,33929,35224,32944,96923,13431,-4392,-385,-1691,1142,3864,6740,192,630,-248,1,1,4,38,400,1,53298,1
2,33146,35212,32942,96924,13450,-4695,-356,-1110,1671,4256,6895,177,639,-265,1,1,4,38,440,1,53298,1
2,32653,35234,32939,96925,13467,-4612,-386,-1181,1619,3878,6546,140,638,-270,1,1,4,38,480,1,53298,1
2,32434,35165,32936,96926,13485,-4616,-373,-1016,1046,3285,5673,136,630,-282,1,1,4,38,520,1,53298,1
2,32386,35213,32931,96927,13502,-4529,-544,-1155,-500,2825,4394,121,623,-287,1,1,4,38,560,1,53298,1
2,32367,35115,32919,96928,13519,-4425,-652,-1217,-685,2097,2995,117,627,-289,1,1,4,38,600,1,53298,1
2,32363,35188,32928,96929,13536,-4457,-695,-1131,92,1200,1656,118,624,-294,1,1,4,38,640,1,53298,1
2,32391,35199,32942,96930,13553,-4438,-441,-1248,403,214,163,113,627,-283,1,1,4,38,680,1,53298,1
2,32430,35080,32913,96931,13569,-4482,-363,-1182,356,-746,-1106,129,631,-291,1,1,4,38,720,1,53298,1
2,32570,35162,32940,96932,13586,-4510,-517,-1228,-750,-1452,-2561,129,631,-281,1,1,4,38,760,1,53298,1
2,32891,35119,32933,96933,13603,-4542,-611,-1216,-1491,-2136,-4112,153,627,-265,1,1,4,38,800,1,53298,1
2,33738,35005,32903,96934,13621,-4548,-503,-1114,-1608,-2850,-5430,167,627,-269,1,1,4,38,840,1,53298,1
2,34435,35254,32934,96935,13639,-4566,-408,-1110,-1551,-3549,-6297,189,627,-261,1,1,4,38,880,1,53298,1
2,34386,35355,32930,96936,13657,-4486,-455,-1385,-1414,-3904,-6730,213,625,-259,1,1,4,38,920,1,53298,1
2,34007,35405,32917,96937,13676,-4507,-624,-1492,-1226,-3654,-7114,241,621,-243,1,1,4,38,960,1,53298,1
1,33613,35400,32921,96938,0,-4519,-510,-1540,-726,-3174,-7318,275,607,-239,1,1,4,39,0,0,53298,1
2,33173,35549,32950,96939,12804,-4395,-84,-1472,1252,-3048,-6502,292,608,-222,1,1,4,39,40,0,53298,1
2,33002,35572,32957,96940,12822,-4129,289,-1483,2885,-2587,-4702,315,603,-235,1,1,4,39,80,0,53298,1
2,32989,35560,32968,96941,12840,-4050,520,-1493,2321,-1391,-2535,322,594,-226,1,1,4,39,120,0,53298,1
2,33155,35545,32956,96942,12859,-4115,427,-1300,1066,-63,61,307,609,-225,1,1,4,39,160,0,53298,1
2,33384,35420,32920,96943,12877,-4240,9,-1249,-438,825,2355,293,617,-227,1,1,4,39,200,0,53298,1
2,33781,35609,32960,96944,12895,-4322,-101,-1447,-981,1435,4172,273,609,-235,1,1,4,39,240,0,53298,1
2,34279,35414,32905,96945,12913,-4387,-205,-1463,-1208,2199,5441,239,629,-245,1,1,4,39,280,0,53298,1
2,34398,35113,32871,96946,12931,-4363,-304,-1556,-797,2805,6456,218,628,-238,1,1,4,39,320,0,53298,1
2,34211,35125,32894,96947,12949,-4365,-377,-1779,179,3624,7128,197,625,-247,1,1,4,39,360,0,53298,1
2,33323,35150,32915,96948,12967,-4529,-328,-1322,1331,4415,7386,168,628,-264,1,1,4,39,400,0,53298,1
2,32730,35141,32911,96949,12984,-4615,-220,-1156,1893,4224,7431,147,633,-271,1,1,4,39,440,0,53298,1
2,32400,34943,32862,96950,13002,-4682,-335,-1126,615,3759,6711,128,630,-282,1,1,4,39,480,0,53298,1
2,32322,35028,32874,96951,13020,-4552,-440,-1208,-386,3215,5442,110,618,-288,1,1,4,39,520,0,53298,1
2,32303,35051,32887,96952,13037,-4382,-465,-1286,-503,2547,4109,104,632,-294,1,1,4,39,560,0,53298,1
2,32277,35026,32886,96953,13054,-4379,-468,-1322,104,1860,2972,97,617,-299,1,1,4,39,600,0,53298,1
2,32277,35039,32883,96954,13072,-4523,-491,-1109,419,1039,1517,98,618,-304,1,1,4,39,640,0,53298,1
2,32302,35077,32894,96955,13089,-4372,-242,-1229,-243,-31,-180,89,615,-299,1,1,4,39,680,0,53298,1
2,32316,35057,32876,96956,13106,-4293,-149,-1246,84,-1070,-1255,95,625,-295,1,1,4,39,720,0,53298,1
2,32379,34873,32869,96957,13123,-4504,-486,-1320,-656,-1544,-2510,104,620,-270,1,1,4,39,760,0,53298,1
2,32573,34829,32875,96958,13141,-4598,-767,-1320,-1959,-1968,-4434,133,637,-269,1,1,4,39,800,0,53298,1
2,33108,34836,32872,96959,13158,-4548,-669,-1245,-1996,-2668,-6328,153,637,-267,1,1,4,39,840,0,53298,1
2,34099,34812,32857,96960,13175,-4515,-196,-939,-1059,-3666,-7387,184,630,-260,1,1,4,39,880,0,53298,1
2,34333,34918,32862,96961,13193,-4502,-276,-1176,-621,-4611,-7564,209,617,-243,1,1,4,39,920,0,53298,1
2,33975,35139,32869,96962,13211,-4587,-636,-1560,-1080,-4408,-8033,244,620,-242,1,1,4,39,960,0,53298,1
1,33509,35027,32908,96963,0,-4586,-579,-1618,-611,-3716,-8564,270,620,-244,1,1,4,40,0,1,53298,1
2,32989,34972,32940,96964,12340,-4435,-110,-1514,1636,-3520,-7833,297,599,-237,1,1,4,40,40,1,53298,1
2,32800,34951,32959,96965,12359,-4217,338,-1489,4252,-3260,-5726,329,595,-219,1,1,4,40,80,1,53298,1
2,32767,35036,32968,96966,12378,-4027,677,-1485,3788,-2010,-3313,331,595,-221,1,1,4,40,120,1,53298,1
2,32906,34994,32963,96967,12397,-4081,680,-1185,2072,-516,-334,314,596,-220,1,1,4,40,160,1,53298,1
2,33184,35039,32953,96968,12416,-4150,99,-1267,-772,649,2102,300,614,-222,1,1,4,40,200,1,53298,1
2,33770,34981,32935,96969,12435,-4285,-94,-1368,-1265,1360,4213,286,618,-236,1,1,4,40,240,1,53298,1
2,34323,34867,32914,96970,12454,-4414,-195,-1444,-1200,2024,5873,254,626,-232,1,1,4,40,280,1,53298,1
2,34602,34763,32900,96971,12473,-4536,-372,-1533,-1633,2742,6813,232,618,-238,1,1,4,40,320,1,53298,1
2,34300,34709,32887,96972,12491,-4474,-604,-1762,-1062,3670,7226,208,620,-242,1,1,4,40,360,1,53298,1
2,33494,34669,32890,96973,12509,-4501,-469,-1502,1111,4510,7471,177,631,-257,1,1,4,40,400,1,53298,1
2,32661,34603,32880,96974,12527,-4600,-351,-1073,1899,4372,7413,151,633,-261,1,1,4,40,440,1,53298,1
2,32409,34651,32875,96975,12545,-4527,-278,-1031,2012,3874,6966,129,629,-263,1,1,4,40,480,1,53298,1
2,32302,34696,32859,96976,12561,-4566,-361,-1094,750,3307,5889,112,630,-276,1,1,4,40,520,1,53298,1
2,32242,34545,32840,96977,12578,-4486,-454,-1238,-459,2807,4390,101,629,-289,1,1,4,40,560,1,53298,1
2,32227,34513,32826,96978,12596,-4521,-532,-1251,-164,2073,3043,90,630,-284,1,1,4,40,600,1,53298,1
2,32224,34538,32831,96979,12614,-4616,-598,-1076,194,1056,1452,103,617,-291,1,1,4,40,640,1,53298,1
2,32255,34510,32846,96980,12631,-4378,-286,-1124,100,-106,-236,93,613,-283,1,1,4,40,680,1,53298,1
2,32317,34491,32854,96981,12647,-4572,-364,-1080,-364,-1107,-1560,109,621,-285,1,1,4,40,720,1,53298,1
2,32417,34528,32852,96982,12664,-4542,-742,-1255,-2241,-1624,-3545,123,615,-275,1,1,4,40,760,1,53298,1
2,32872,34414,32859,96983,12681,-4440,-766,-1205,-1686,-2448,-5402,145,629,-275,1,1,4,40,800,1,53298,1
2,33984,34480,32860,96984,12698,-4423,-567,-1236,-402,-3450,-6575,170,636,-260,1,1,4,40,840,1,53298,1
2,34899,34475,32842,96985,12716,-4382,167,-1063,1697,-4571,-6726,188,632,-234,1,1,4,40,880,1,53298,1
2,34352,34644,32859,96986,12735,-4527,-7,-1641,1350,-4622,-6379,213,631,-245,1,1,4,40,920,1,53298,1
2,33832,34745,32856,96987,12753,-4536,-223,-1757,-1193,-3457,-6736,242,626,-236,1,1,4,40,960,1,53298,1
1,33275,34858,32871,96988,0,-4407,-365,-1622,-2419,-2325,-6800,269,619,-233,1,1,4,41,0,0,53298,1
2,32988,34774,32868,96989,11877,-4229,-112,-1475,836,-2117,-5231,281,611,-237,1,1,4,41,40,0,53298,1
2,32904,34772,32876,96990,11894,-4098,306,-1489,3989,-1647,-3023,292,612,-236,1,1,4,41,80,0,53298,1
2,33052,34794,32875,96991,11912,-4077,686,-1326,3616,-426,-879,293,615,-219,1,1,4,41,120,0,53298,1
2,33294,34735,32861,96992,11930,-4316,381,-906,725,546,1178,270,624,-224,1,1,4,41,160,0,53298,1
2,33862,34759,32850,96993,11948,-4238,42,-1532,-2083,1076,2921,258,624,-232,1,1,4,41,200,0,53298,1
2,34490,34690,32834,96994,11966,-4181,79,-1573,-1286,1678,4704,240,626,-236,1,1,4,41,240,0,53298,1
2,34718,34761,32848,96995,11983,-4262,-12,-1665,-244,2330,6371,204,620,-246,1,1,4,41,280,0,53298,1
2,33899,34728,32853,96996,12000,-4354,-369,-2118,284,3629,7356,190,632,-248,1,1,4,41,320,0,53298,1
2,32890,34724,32853,96997,12016,-4567,-105,-1288,1629,5012,7621,149,637,-247,1,1,4,41,360,0,53298,1
2,32405,34614,32824,96998,12032,-4680,-328,-1134,660,4858,7499,127,631,-271,1,1,4,41,400,0,53298,1
2,32268,34861,32846,96999,12048,-4725,-537,-1035,-83,4059,6651,116,628,-286,1,1,4,41,440,0,53298,1
2,32211,34559,32823,97000,12064,-4582,-794,-1145,-1145,3236,4814,97,619,-287,1,1,4,41,480,0,53298,1
2,32213,34729,32833,97001,12079,-4588,-944,-959,-1670,2200,2625,91,623,-287,1,1,4,41,520,0,53298,1
2,32224,34728,32825,97002,12096,-4455,-883,-1186,-758,745,507,98,616,-284,1,1,4,41,560,0,53298,1
2,32272,34648,32837,97003,12112,-4504,-389,-1055,942,-613,-1110,109,629,-289,1,1,4,41,600,0,53298,1
2,32416,34414,32840,97004,12128,-4610,-555,-1142,-581,-1329,-3023,122,620,-298,1,1,4,41,640,0,53298,1
2,32770,34532,32846,97005,12144,-4598,-634,-1179,-2267,-2050,-5191,134,634,-278,1,1,4,41,680,0,53298,1
2,33654,34660,32852,97006,12161,-4480,-466,-1074,-2066,-3030,-6696,171,623,-267,1,1,4,41,720,0,53298,1
2,34365,34648,32837,97007,12177,-4430,-197,-1088,-851,-4173,-7160,199,631,-257,1,1,4,41,760,0,53298,1
2,34053,34746,32839,97008,12193,-4446,-421,-1474,-266,-4551,-7204,223,627,-243,1,1,4,41,800,0,53298,1
2,33667,34833,32839,97009,12209,-4516,-498,-1678,-423,-3905,-7665,249,629,-235,1,1,4,41,840,0,53298,1
2,33108,34975,32862,97010,12226,-4511,-167,-1601,5,-3140,-7616,275,611,-243,1,1,4,41,880,0,53298,1
2,32822,34856,32870,97011,12243,-4330,234,-1459,2856,-2997,-5805,297,613,-241,1,1,4,41,920,0,53298,1
2,32730,34879,32886,97012,12260,-4151,466,-1533,3205,-2292,-3623,300,606,-224,1,1,4,41,960,0,53298,1
1,32807,34972,32883,97013,0,-4067,618,-1414,1855,-944,-1318,304,608,-224,1,1,4,42,0,1,53298,1
2,32985,34940,32874,97014,11413,-4195,104,-1194,-27,181,1037,281,611,-223,1,1,4,42,40,1,53298,1
2,33384,34945,32861,97015,11431,-4215,-174,-1437,-1064,879,2868,270,622,-234,1,1,4,42,80,1,53298,1
2,33863,34935,32845,97016,11449,-4351,-237,-1384,-444,1472,4367,246,628,-232,1,1,4,42,120,1,53298,1
2,34365,34795,32829,97017,11466,-4503,-305,-1344,-639,2035,5316,236,628,-224,1,1,4,42,160,1,53298,1
2,34434,34622,32835,97018,11482,-4513,-457,-1526,-749,2531,5810,210,632,-240,1,1,4,42,200,1,53298,1
2,34111,34624,32827,97019,11499,-4382,-439,-1682,8,3267,5959,185,627,-247,1,1,4,42,240,1,53298,1
2,33164,34558,32838,97020,11516,-4397,-211,-1386,1115,3926,6113,166,622,-258,1,1,4,42,280,1,53298,1
2,32616,34443,32830,97021,11532,-4485,-219,-1230,1260,3810,6277,144,622,-272,1,1,4,42,320,1,53298,1
2,32378,34415,32816,97022,11549,-4627,-290,-1144,613,3562,5820,122,624,-274,1,1,4,42,360,1,53298,1
2,32285,34400,32808,97023,11566,-4624,-565,-1197,-672,3224,4493,121,625,-285,1,1,4,42,400,1,53298,1
2,32279,34441,32800,97024,11583,-4561,-732,-1132,-1039,2477,2866,116,630,-288,1,1,4,42,440,1,53298,1
2,32317,34405,32800,97025,11601,-4370,-726,-1299,-469,1386,1261,111,625,-291,1,1,4,42,480,1,53298,1
2,32453,34454,32818,97026,11617,-4396,-439,-1131,979,317,-42,118,620,-294,1,1,4,42,520,1,53298,1
2,32781,34530,32825,97027,11634,-4525,-519,-1159,-165,-387,-1663,123,621,-285,1,1,4,42,560,1,53298,1
2,33639,34544,32826,97028,11651,-4503,-322,-987,-1211,-1302,-3289,135,633,-273,1,1,4,42,600,1,53298,1
2,34172,34599,32813,97029,11667,-4357,-304,-1108,-1308,-2466,-4240,154,628,-280,1,1,4,42,640,1,53298,1
2,34149,34685,32820,97030,11684,-4407,-477,-1374,-1091,-3022,-4973,168,634,-262,1,1,4,42,680,1,53298,1
2,33826,34823,32826,97031,11701,-4479,-657,-1580,-1025,-2984,-5923,190,628,-264,1,1,4,42,720,1,53298,1
2,33409,35002,32821,97032,11718,-4495,-544,-1607,-635,-2779,-6781,220,628,-262,1,1,4,42,760,1,53298,1
2,32993,34979,32827,97033,11735,-4409,-118,-1427,1509,-2979,-6438,248,622,-250,1,1,4,42,800,1,53298,1
2,32725,34970,32851,97034,11752,-4268,307,-1478,3417,-3087,-5073,262,618,-252,1,1,4,42,840,1,53298,1
2,32707,35228,32855,97035,11768,-4069,654,-1601,2560,-2126,-3507,269,629,-243,1,1,4,42,880,1,53298,1
2,32799,35235,32852,97036,11785,-4092,698,-1417,1522,-939,-1146,269,617,-225,1,1,4,42,920,1,53298,1
2,33174,35233,32849,97037,11802,-4178,226,-1495,-671,-1,1055,258,622,-252,1,1,4,42,960,1,53298,1
1,33655,35087,32830,97038,0,-4245,81,-1455,-552,564,3001,242,626,-248,1,1,4,43,0,1,53298,1
2,34317,35015,32830,97039,10950,-4354,-7,-1444,-484,1146,4420,217,623,-241,1,1,4,43,40,1,53298,1
2,34498,34943,32833,97040,10967,-4394,-115,-1482,-756,1605,5416,197,625,-245,1,1,4,43,80,1,53298,1
2,34226,34723,32809,97041,10984,-4386,-361,-1765,-1066,2288,5953,179,629,-243,1,1,4,43,120,1,53298,1
2,33219,34716,32832,97042,11000,-4445,-276,-1562,-322,3262,6062,153,629,-263,1,1,4,43,160,1,53298,1
2,32604,34679,32820,97043,11016,-4571,-287,-1280,448,3390,5947,142,624,-274,1,1,4,43,200,1,53298,1
2,32322,34679,32819,97044,11032,-4566,-228,-1131,588,3219,5323,117,627,-259,1,1,4,43,240,1,53298,1
2,32240,34640,32813,97045,11048,-4440,-382,-1253,-494,2783,4269,103,621,-275,1,1,4,43,280,1,53298,1
2,32211,34672,32799,97046,11064,-4341,-374,-1238,-633,2170,3108,99,619,-287,1,1,4,43,320,1,53298,1
2,32210,34694,32821,97047,11080,-4386,-393,-1278,-150,1376,2105,96,614,-274,1,1,4,43,360,1,53298,1
2,32218,34690,32812,97048,11096,-4419,-435,-1358,117,624,852,105,613,-287,1,1,4,43,400,1,53298,1
2,32239,34696,32819,97049,11112,-4265,74,-1387,515,16,-265,96,626,-272,1,1,4,43,440,1,53298,1
2,32312,34736,32835,97050,11128,-4425,-153,-1280,90,-507,-1022,105,617,-279,1,1,4,43,480,1,53298,1
2,32446,34711,32834,97051,11145,-4525,-460,-1356,-1307,-975,-2324,123,625,-281,1,1,4,43,520,1,53298,1
2,32810,34758,32846,97052,11162,-4404,-425,-1319,-1507,-1518,-3834,136,624,-268,1,1,4,43,560,1,53298,1
2,33898,34907,32847,97053,11179,-4368,-161,-1083,-826,-2187,-4735,149,619,-261,1,1,4,43,600,1,53298,1
2,34449,34811,32824,97054,11197,-4400,-70,-1138,-887,-2957,-5106,166,632,-268,1,1,4,43,640,1,53298,1
2,34219,35064,32830,97055,11214,-4467,-406,-1428,-1584,-3076,-5642,184,636,-258,1,1,4,43,680,1,53298,1
2,33875,35178,32836,97056,11232,-4508,-591,-1569,-1488,-2832,-6378,216,628,-246,1,1,4,43,720,1,53298,1
2,33434,35207,32839,97057,11249,-4460,-377,-1581,-348,-2583,-6692,223,635,-249,1,1,4,43,760,1,53298,1
2,33014,35234,32853,97058,11265,-4300,141,-1431,2708,-2721,-5583,244,624,-240,1,1,4,43,800,1,53298,1
2,32896,35256,32859,97059,11282,-4160,530,-1499,3411,-2230,-3911,265,615,-251,1,1,4,43,840,1,53298,1
2,32940,35245,32861,97060,11300,-4097,810,-1444,2371,-1121,-1819,261,609,-245,1,1,4,43,880,1,53298,1
2,33201,35257,32850,97061,11316,-4190,402,-1288,453,-99,599,262,624,-240,1,1,4,43,920,1,53298,1
2,33584,35249,32845,97062,11333,-4171,99,-1515,-953,557,2491,241,619,-241,1,1,4,43,960,1,53298,1
1,34212,35109,32837,97063,0,-4253,93,-1515,-383,1158,4140,221,625,-243,1,1,4,44,0,1,53298,1
2,34399,34930,32826,97064,10487,-4416,67,-1407,-521,1782,5402,194,622,-238,1,1,4,44,40,1,53298,1
2,34095,34850,32839,97065,10504,-4402,-190,-1849,-1071,2589,6161,174,630,-250,1,1,4,44,80,1,53298,1
2,33060,34778,32822,97066,10521,-4467,-236,-1341,502,3468,6621,149,621,-251,1,1,4,44,120,1,53298,1
2,32515,34775,32824,97067,10538,-4529,1,-1188,1856,3428,6935,128,626,-256,1,1,4,44,160,1,53298,1
2,32296,34749,32820,97068,10554,-4526,-366,-1349,-837,3259,6135,111,617,-261,1,1,4,44,200,1,53298,1
2,32199,34688,32789,97069,10571,-4364,-428,-1440,-1560,2978,4983,101,619,-273,1,1,4,44,240,1,53298,1
2,32164,34702,32805,97070,10587,-4304,-485,-1551,-910,2810,3872,99,613,-277,1,1,4,44,280,1,53298,1
2,32155,34701,32792,97071,10603,-4485,-537,-1293,396,2110,2763,90,602,-282,1,1,4,44,320,1,53298,1
2,32137,34637,32785,97072,10619,-4578,-421,-920,666,1141,1095,90,608,-284,1,1,4,44,360,1,53298,1
2,32151,34591,32784,97073,10636,-4259,9,-1103,-379,-97,-767,98,618,-294,1,1,4,44,400,1,53298,1
2,32179,34617,32807,97074,10652,-4297,-101,-1220,-178,-1088,-1569,89,609,-279,1,1,4,44,440,1,53298,1
2,32206,34641,32815,97075,10669,-4432,-276,-1334,106,-1683,-2451,116,628,-276,1,1,4,44,480,1,53298,1
2,32275,34663,32817,97076,10685,-4415,-236,-1337,289,-2161,-3621,119,617,-269,1,1,4,44,520,1,53298,1
2,32540,34690,32814,97077,10701,-4476,-542,-1434,-200,-2514,-4786,139,623,-253,1,1,4,44,560,1,53298,1
2,33268,34785,32829,97078,10718,-4491,-449,-1440,-1053,-2699,-6178,161,627,-253,1,1,4,44,600,1,53298,1
2,34331,34824,32816,97079,10734,-4440,260,-1026,-258,-3177,-6606,184,620,-256,1,1,4,44,640,1,53298,1
2,34200,34931,32837,97080,10750,-4362,237,-1295,1135,-3907,-5557,207,625,-245,1,1,4,44,680,1,53298,1
2,33899,34973,32816,97081,10767,-4323,-191,-1779,-1011,-2873,-5456,220,628,-236,1,1,4,44,720,1,53298,1
2,33514,35071,32829,97082,10784,-4308,-37,-1567,-944,-1769,-5138,234,628,-240,1,1,4,44,760,1,53298,1
2,33315,35091,32825,97083,10801,-4266,124,-1523,148,-1398,-3771,247,613,-243,1,1,4,44,800,1,53298,1
2,33324,35109,32834,97084,10818,-4131,352,-1547,1963,-1089,-1718,249,617,-237,1,1,4,44,840,1,53298,1
2,33548,35110,32836,97085,10836,-4143,539,-1292,1890,-87,294,254,632,-230,1,1,4,44,880,1,53298,1
2,33771,35083,32824,97086,10853,-4252,287,-1188,-39,788,2051,244,624,-248,1,1,4,44,920,1,53298,1
2,34090,34990,32804,97087,10870,-4226,75,-1584,-1217,1478,3502,208,626,-246,1,1,4,44,960,1,53298,1
1,34335,34864,32817,97088,0,-4271,59,-1494,-512,2039,4834,194,622,-238,1,1,4,45,0,0,53298,1
2,34080,34790,32815,97089,10024,-4260,-26,-1760,148,2589,5926,176,626,-244,1,1,4,45,40,0,53298,1
2,33125,34759,32806,97090,10041,-4356,-16,-1690,1216,3482,6645,143,635,-255,1,1,4,45,80,0,53298,1
2,32547,34713,32815,97091,10058,-4643,-21,-1158,949,3825,6811,116,632,-268,1,1,4,45,120,0,53298,1
2,32312,34688,32800,97092,10075,-4600,-225,-1207,-311,3622,6258,110,624,-272,1,1,4,45,160,0,53298,1
2,32210,34673,32787,97093,10092,-4463,-347,-1272,-509,3035,5275,100,606,-290,1,1,4,45,200,0,53298,1
2,32170,34675,32771,97094,10110,-4345,-397,-1427,-319,2555,4098,90,618,-282,1,1,4,45,240,0,53298,1
2,32165,34675,32794,97095,10126,-4455,-462,-1248,291,1976,2791,85,611,-289,1,1,4,45,280,0,53298,1
2,32172,34712,32779,97096,10144,-4468,-528,-1089,-22,1025,1040,86,602,-300,1,1,4,45,320,0,53298,1
2,32201,34719,32781,97097,10160,-4323,32,-1042,47,-204,-467,81,617,-297,1,1,4,45,360,0,53298,1
2,32249,34700,32788,97098,10177,-4379,-213,-1232,-197,-1149,-1597,96,616,-284,1,1,4,45,400,0,53298,1
2,32351,34508,32794,97099,10193,-4457,-487,-1322,-713,-1773,-3071,95,613,-271,1,1,4,45,440,0,53298,1
2,32644,34591,32788,97100,10211,-4478,-646,-1381,-1300,-2146,-4957,136,614,-264,1,1,4,45,480,0,53298,1
2,33763,34694,32815,97101,10227,-4528,-498,-1304,-878,-2740,-6495,157,629,-269,1,1,4,45,520,0,53298,1
2,34391,34797,32798,97102,10244,-4515,222,-897,-136,-3638,-7213,171,629,-253,1,1,4,45,560,0,53298,1
2,34053,34886,32809,97103,10261,-4449,-229,-1485,-308,-4302,-6946,196,616,-252,1,1,4,45,600,0,53298,1
2,33613,34976,32816,97104,10279,-4426,-328,-1616,-799,-3590,-7291,225,623,-247,1,1,4,45,640,0,53298,1
2,33207,35088,32827,97105,10296,-4441,-183,-1497,-913,-2810,-7364,260,628,-250,1,1,4,45,680,0,53298,1
2,32831,35107,32843,97106,10314,-4393,94,-1328,1319,-2878,-5929,280,600,-234,1,1,4,45,720,0,53298,1
2,32674,35068,32843,97107,10332,-4252,225,-1436,2300,-2583,-4111,282,606,-244,1,1,4,45,760,0,53298,1
2,32659,35053,32851,97108,10349,-4110,393,-1429,1394,-1473,-2421,292,610,-226,1,1,4,45,800,0,53298,1
2,32768,35093,32858,97109,10366,-4163,330,-1308,710,-395,-257,289,609,-233,1,1,4,45,840,0,53298,1
2,33007,35131,32841,97110,10384,-4208,-16,-1474,-229,489,1689,280,622,-238,1,1,4,45,880,0,53298,1
2,33432,35129,32816,97111,10400,-4244,-24,-1427,431,1163,3474,255,623,-243,1,1,4,45,920,0,53298,1
2,34079,35088,32812,97112,10417,-4371,-28,-1272,671,1705,4956,229,627,-225,1,1,4,45,960,0,53298,1
1,34405,34942,32806,97113,0,-4481,-115,-1394,7,2242,5902,204,632,-226,1,1,4,46,0,1,53298,1
2,34251,34841,32812,97114,9561,-4448,-303,-1615,-340,2949,6271,171,619,-239,1,1,4,46,40,1,53298,1
2,33559,34766,32806,97115,9578,-4361,-312,-1784,279,3806,6444,153,627,-255,1,1,4,46,80,1,53298,1
2,32777,34725,32794,97116,9594,-4485,1,-1156,1003,4332,6625,141,619,-267,1,1,4,46,120,1,53298,1
2,32346,34700,32812,97117,9610,-4579,-154,-1250,648,3990,6669,125,635,-269,1,1,4,46,160,1,53298,1
2,32243,34691,32813,97118,9626,-4573,-142,-1205,422,3591,6016,110,628,-284,1,1,4,46,200,1,53298,1
2,32190,34746,32799,97119,9642,-4428,-305,-1338,-656,3216,4765,92,622,-292,1,1,4,46,240,1,53298,1
2,32158,34678,32782,97120,9659,-4398,-340,-1256,-664,2642,3508,80,610,-294,1,1,4,46,280,1,53298,1
2,32161,34697,32795,97121,9675,-4406,-489,-1223,-159,1682,2156,84,600,-294,1,1,4,46,320,1,53298,1
2,32180,34745,32803,97122,9691,-4264,-240,-1297,379,578,683,89,607,-299,1,1,4,46,360,1,53298,1
2,32216,34798,32815,97123,9708,-4308,-121,-1260,233,-414,-568,90,602,-298,1,1,4,46,400,1,53298,1
2,32285,34808,32802,97124,9725,-4350,-209,-1296,-203,-1172,-1751,95,615,-299,1,1,4,46,440,1,53298,1
2,32500,34811,32809,97125,9741,-4421,-430,-1335,-451,-1839,-3166,99,613,-281,1,1,4,46,480,1,53298,1
2,33014,34761,32807,97126,9757,-4468,-467,-1365,-1250,-2390,-4812,126,630,-274,1,1,4,46,520,1,53298,1
2,34102,34811,32799,97127,9773,-4509,-227,-1211,-1099,-3016,-6113,161,625,-273,1,1,4,46,560,1,53298,1
2,34302,34884,32796,97128,9790,-4494,212,-1072,-673,-3893,-6505,169,633,-265,1,1,4,46,600,1,53298,1
2,33948,35008,32808,97129,9807,-4466,-384,-1498,-1346,-3913,-6757,199,629,-247,1,1,4,46,640,1,53298,1
2,33599,35169,32826,97130,9825,-4534,-496,-1499,-1510,-3433,-7526,222,626,-240,1,1,4,46,680,1,53298,1
2,33085,35245,32843,97131,9843,-4562,-343,-1428,-1166,-3125,-7807,247,621,-231,1,1,4,46,720,1,53298,1
2,32771,35240,32849,97132,9860,-4455,-8,-1278,1582,-3340,-6731,280,618,-242,1,1,4,46,760,1,53298,1
2,32642,35192,32870,97133,9878,-4335,235,-1338,2040,-2979,-5323,287,609,-231,1,1,4,46,800,1,53298,1
2,32638,35139,32874,97134,9896,-4151,447,-1377,976,-2017,-3710,296,600,-224,1,1,4,46,840,1,53298,1
2,32745,35138,32873,97135,9914,-4046,362,-1382,259,-1013,-1383,288,600,-238,1,1,4,46,880,1,53298,1
2,33094,35182,32874,97136,9932,-4100,122,-1544,-530,54,934,273,609,-223,1,1,4,46,920,1,53298,1
2,33552,35108,32853,97137,9950,-4223,68,-1416,26,826,3157,266,612,-234,1,1,4,46,960,1,53298,1
1,34029,35083,32837,97138,0,-4296,61,-1465,214,1567,4984,247,613,-231,1,1,4,47,0,1,53298,1
2,34155,34929,32841,97139,9099,-4375,-38,-1510,-206,2557,6257,222,618,-234,1,1,4,47,40,1,53298,1
2,33760,34828,32825,97140,9114,-4389,-232,-1849,-515,3732,7080,183,623,-243,1,1,4,47,80,1,53298,1
2,32900,34823,32817,97141,9131,-4599,-291,-1367,720,4611,7596,156,634,-242,1,1,4,47,120,1,53298,1
2,32488,34775,32813,97142,9148,-4717,-265,-1175,1498,4309,7808,145,633,-271,1,1,4,47,160,1,53298,1
2,32317,34765,32809,97143,9164,-4650,-343,-1146,956,3843,7171,114,628,-280,1,1,4,47,200,1,53298,1
2,32241,34812,32796,97144,9181,-4519,-381,-1101,305,3443,5920,100,616,-270,1,1,4,47,240,1,53298,1
2,32220,34763,32789,97145,9198,-4478,-471,-1211,-519,2940,4424,89,617,-279,1,1,4,47,280,1,53298,1
2,32215,34761,32790,97146,9215,-4457,-502,-1268,55,2065,3012,90,616,-294,1,1,4,47,320,1,53298,1
2,32218,34564,32768,97147,9232,-4368,-324,-1247,862,1014,1555,86,614,-290,1,1,4,47,360,1,53298,1
2,32242,34611,32796,97148,9249,-4317,-47,-1140,802,18,309,91,613,-287,1,1,4,47,400,1,53298,1
2,32345,34595,32783,97149,9265,-4363,-340,-1266,-265,-687,-949,89,621,-285,1,1,4,47,440,1,53298,1
2,32513,34633,32772,97150,9282,-4421,-499,-1250,-902,-1358,-2490,104,614,-270,1,1,4,47,480,1,53298,1
2,32966,34719,32808,97151,9298,-4471,-536,-1269,-915,-2161,-4075,125,621,-279,1,1,4,47,520,1,53298,1
2,34189,34751,32810,97152,9314,-4505,-362,-1136,-449,-2997,-5452,135,623,-269,1,1,4,47,560,1,53298,1
2,34468,34733,32788,97153,9330,-4492,59,-985,-236,-3937,-6267,166,630,-252,1,1,4,47,600,1,53298,1
2,34087,34825,32814,97154,9346,-4478,-402,-1493,-838,-4146,-6746,183,633,-247,1,1,4,47,640,1,53298,1
2,33614,34992,32831,97155,9363,-4508,-334,-1620,-564,-3628,-7254,215,621,-237,1,1,4,47,680,1,53298,1
2,33278,35266,32858,97156,9380,-4482,-285,-1640,-466,-3024,-7427,244,628,-236,1,1,4,47,720,1,53298,1
2,33051,35380,32886,97157,9398,-4380,64,-1597,1333,-2843,-6438,267,619,-229,1,1,4,47,760,1,53298,1
2,32969,35390,32891,97158,9415,-4158,654,-1478,3661,-2504,-4301,273,613,-233,1,1,4,47,800,1,53298,1
2,33117,35398,32889,97159,9432,-4092,975,-1335,2884,-1390,-1724,281,623,-225,1,1,4,47,840,1,53298,1
2,33484,35350,32873,97160,9449,-4135,548,-1191,-141,-241,767,266,618,-234,1,1,4,47,880,1,53298,1
2,33966,35233,32855,97161,9467,-4123,252,-1519,-1842,768,2923,251,621,-233,1,1,4,47,920,1,53298,1
2,34385,35116,32845,97162,9484,-4279,150,-1528,-1276,1606,4873,219,623,-241,1,1,4,47,960,1,53298,1
1,34200,35011,32841,97163,0,-4448,-276,-1784,-803,2419,6309,189,623,-223,1,1,4,48,0,1,53298,1
2,33375,34887,32815,97164,8637,-4462,-474,-1892,239,3617,6828,162,626,-236,1,1,4,48,40,1,53298,1
2,32661,34909,32823,97165,8654,-4612,-185,-943,1261,4063,6884,148,634,-254,1,1,4,48,80,1,53298,1
2,32328,34844,32822,97166,8671,-4489,-180,-1176,712,3891,6775,128,632,-258,1,1,4,48,120,1,53298,1
2,32236,34853,32815,97167,8688,-4538,-286,-1234,30,3486,6123,99,623,-263,1,1,4,48,160,1,53298,1
2,32190,34830,32787,97168,8706,-4543,-324,-1406,-1010,3281,4981,93,623,-271,1,1,4,48,200,1,53298,1
2,32182,34833,32795,97169,8723,-4557,-479,-1341,-909,2816,3714,97,615,-281,1,1,4,48,240,1,53298,1
2,32181,34769,32787,97170,8741,-4528,-634,-1191,-417,1971,2119,86,616,-290,1,1,4,48,280,1,53298,1
2,32215,34810,32795,97171,8758,-4374,-133,-1039,312,900,598,96,616,-290,1,1,4,48,320,1,53298,1
2,32247,34771,32796,97172,8775,-4365,-288,-1105,50,9,-716,94,620,-284,1,1,4,48,360,1,53298,1
2,32384,34798,32778,97173,8792,-4402,-547,-1121,-323,-820,-2239,106,612,-288,1,1,4,48,400,1,53298,1
2,32850,34784,32780,97174,8810,-4340,-524,-1154,-404,-1765,-3854,116,618,-274,1,1,4,48,440,1,53298,1
2,33795,34812,32783,97175,8828,-4392,-385,-1077,806,-2927,-4865,135,635,-271,1,1,4,48,480,1,53298,1
2,34691,34952,32793,97176,8846,-4575,43,-982,1381,-4105,-5475,158,622,-260,1,1,4,48,520,1,53298,1
2,34334,35031,32787,97177,8863,-4641,22,-1569,-452,-4624,-5921,174,632,-244,1,1,4,48,560,1,53298,1
2,34009,35006,32767,97178,8882,-4514,27,-1785,-1545,-3895,-6214,210,626,-240,1,1,4,48,600,1,53298,1
2,33815,35104,32787,97179,8899,-4304,-123,-1610,-1536,-2754,-6050,216,616,-232,1,1,4,48,640,1,53298,1
2,33742,35177,32782,97180,8917,-4205,-10,-1405,136,-2159,-4932,233,617,-235,1,1,4,48,680,1,53298,1
2,33786,35132,32807,97181,8934,-4171,373,-1362,2362,-1933,-3161,239,617,-231,1,1,4,48,720,1,53298,1
2,33955,35105,32809,97182,8952,-4153,530,-1263,1758,-1205,-1475,243,619,-223,1,1,4,48,760,1,53298,1
2,34080,35083,32801,97183,8969,-4194,458,-1516,-680,-281,217,242,614,-230,1,1,4,48,800,1,53298,1
2,34163,34925,32786,97184,8987,-4180,261,-1787,-1459,586,2100,224,630,-230,1,1,4,48,840,1,53298,1
2,33858,34765,32787,97185,9004,-4141,134,-1894,-604,1755,3909,203,627,-233,1,1,4,48,880,1,53298,1
2,33132,34818,32808,97186,9021,-4222,31,-1804,726,3144,5450,165,627,-241,1,1,4,48,920,1,53298,1
2,32464,34741,32793,97187,9038,-4568,80,-1183,1222,3763,6505,161,627,-243,1,1,4,48,960,1,53298,1
1,32267,34513,32778,97188,0,-4513,-54,-1238,326,3976,6769,132,632,-264,1,1,4,49,0,0,53298,1
2,32198,34658,32790,97189,8174,-4462,-169,-1268,15,3823,6454,128,624,-268,1,1,4,49,40,0,53298,1
2,32160,34604,32802,97190,8190,-4495,-326,-1410,-675,3780,5684,106,618,-266,1,1,4,49,80,0,53298,1
2,32156,34689,32770,97191,8207,-4727,-536,-1153,-937,3191,4537,92,620,-280,1,1,4,49,120,0,53298,1
2,32160,34485,32782,97192,8224,-4789,-789,-964,-1507,2114,2542,91,619,-289,1,1,4,49,160,0,53298,1
2,32198,34812,32813,97193,8242,-4440,-406,-904,-1600,642,347,90,618,-284,1,1,4,49,200,0,53298,1
2,32223,34573,32777,97194,8259,-4321,-493,-1034,-1399,-612,-1360,107,611,-283,1,1,4,49,240,0,53298,1
2,32379,34608,32806,97195,8275,-4314,-611,-1097,-473,-1548,-2845,116,616,-264,1,1,4,49,280,0,53298,1
2,32752,34554,32809,97196,8291,-4405,-680,-1209,-554,-2213,-4637,128,616,-266,1,1,4,49,320,0,53298,1
2,33674,34592,32798,97197,8308,-4582,-613,-1247,-607,-2922,-6365,156,632,-254,1,1,4,49,360,0,53298,1
2,34195,34590,32792,97198,8325,-4657,43,-957,-57,-3892,-7398,173,625,-253,1,1,4,49,400,0,53298,1
2,33762,34750,32792,97199,8342,-4603,-293,-1546,-294,-4493,-7530,214,624,-244,1,1,4,49,440,0,53298,1
2,33335,34923,32788,97200,8358,-4538,-386,-1700,-900,-3629,-8099,238,618,-240,1,1,4,49,480,0,53298,1
2,32836,34892,32797,97201,8376,-4546,-151,-1563,97,-2766,-7940,259,615,-235,1,1,4,49,520,0,53298,1
2,32661,34874,32815,97202,8393,-4239,404,-1307,3973,-2912,-5920,284,600,-236,1,1,4,49,560,0,53298,1
2,32693,34871,32818,97203,8409,-4008,689,-1548,3407,-2285,-3595,289,607,-225,1,1,4,49,600,0,53298,1
2,32876,35137,32828,97204,8425,-4071,702,-1255,1269,-931,-1020,291,601,-225,1,1,4,49,640,0,53298,1
2,33240,35234,32835,97205,8442,-4131,200,-1251,-1135,84,1377,283,605,-223,1,1,4,49,680,0,53298,1
2,33847,35290,32836,97206,8457,-4215,108,-1367,-769,616,3585,262,616,-228,1,1,4,49,720,0,53298,1
2,34174,35072,32816,97207,8473,-4366,53,-1466,-957,1521,5156,234,618,-230,1,1,4,49,760,0,53298,1
2,34064,34875,32810,97208,8489,-4513,-261,-1643,-2345,2529,5939,200,616,-238,1,1,4,49,800,0,53298,1
2,33401,35001,32844,97209,8505,-4360,-448,-2133,-1934,3674,6428,185,621,-237,1,1,4,49,840,0,53298,1
2,32739,34811,32831,97210,8522,-4468,-190,-1164,1328,4318,7018,158,622,-246,1,1,4,49,880,0,53298,1
2,32397,34812,32814,97211,8538,-4480,-176,-1148,2874,4095,7551,137,621,-261,1,1,4,49,920,0,53298,1
2,32270,34887,32840,97212,8554,-4540,-200,-1221,2550,3802,7099,110,626,-258,1,1,4,49,960,0,53298,1
1,32230,34922,32831,97213,7712,-4553,-195,-1226,1019,3747,5796,91,625,-275,1,1,4,50,0,1,53298,1
2,32196,34823,32818,97214,7712,-4695,-369,-1214,-1051,3421,4233,95,617,-299,1,1,4,50,40,1,53298,1
2,32184,34817,32801,97215,7728,-4730,-631,-1200,-1464,2388,2593,87,617,-297,1,1,4,50,80,1,53298,1
2,32219,34844,32816,97216,7744,-4377,-281,-1203,-609,1137,770,95,609,-299,1,1,4,50,120,1,53298,1
2,32269,34812,32826,97217,7761,-4341,-317,-1188,-474,80,-575,83,615,-293,1,1,4,50,160,1,53298,1
2,32378,34773,32820,97218,7776,-4362,-519,-1169,-1027,-610,-2205,115,613,-285,1,1,4,50,200,1,53298,1
2,32872,34732,32831,97219,7792,-4309,-483,-1154,-1269,-1463,-3945,115,619,-289,1,1,4,50,240,1,53298,1
2,33749,34725,32829,97220,7808,-4328,-279,-1030,-877,-2610,-5196,137,617,-283,1,1,4,50,280,1,53298,1
2,34313,34833,32810,97221,7824,-4411,-273,-1175,-502,-3796,-5847,168,624,-254,1,1,4,50,320,1,53298,1
2,34009,34962,32825,97222,7840,-4553,-463,-1449,-755,-4133,-6670,186,624,-246,1,1,4,50,360,1,53298,1
2,33521,35068,32830,97223,7857,-4643,-653,-1705,-778,-3785,-7697,215,621,-249,1,1,4,50,400,1,53298,1
2,33003,35094,32829,97224,7873,-4596,-248,-1655,469,-3339,-8185,242,630,-248,1,1,4,50,440,1,53298,1
2,32645,34973,32837,97225,7890,-4422,297,-1455,3584,-3396,-6921,263,615,-231,1,1,4,50,480,1,53298,1
2,32590,34984,32850,97226,7907,-4156,751,-1545,4528,-2942,-4810,278,600,-228,1,1,4,50,520,1,53298,1
2,32685,35032,32847,97227,7924,-3930,1046,-1533,3267,-1576,-2209,279,611,-229,1,1,4,50,560,1,53298,1
2,32974,34991,32847,97228,7941,-4098,525,-1224,47,-179,430,276,616,-232,1,1,4,50,600,1,53298,1
2,33429,35024,32826,97229,7957,-4137,275,-1486,-1681,550,2847,251,619,-233,1,1,4,50,640,1,53298,1
2,34221,34939,32823,97230,7974,-4247,168,-1535,-1246,1218,4852,229,621,-239,1,1,4,50,680,1,53298,1
2,34727,34772,32806,97231,7991,-4469,-135,-1595,-852,2028,6278,196,626,-230,1,1,4,50,720,1,53298,1
2,34834,34663,32860,97232,8007,-4550,-481,-1772,-506,2982,6675,173,621,-233,1,1,4,50,760,1,53298,1
2,33865,35717,33099,97233,8023,-4408,-229,-1423,383,3785,6532,151,625,-245,1,1,4,50,800,1,53298,1
2,33075,35691,33106,97234,8039,-4448,-147,-1237,603,3471,6756,129,627,-257,1,1,4,50,840,1,53298,1
2,32459,34598,32802,97235,8054,-4670,-239,-1086,-523,3344,6408,109,619,-265,1,1,4,50,880,1,53298,1
2,32286,34499,32770,97236,8069,-4722,-534,-1240,-2293,2977,4958,98,628,-266,1,1,4,50,920,1,53298,1
2,32509,35648,33061,97237,8085,-4695,-448,-1113,-2772,2584,3473,79,619,-267,1,1,4,50,960,1,53298,1
1,32513,35652,33063,97238,7248,-4589,-702,-1083,-1678,1565,1840,92,610,-272,1,1,4,51,0,0,53298,1
2,32564,35640,33064,97239,7263,-4420,-537,-1282,-474,385,-61,103,621,-275,1,1,4,51,40,0,53298,1
2,32478,34760,32819,97240,7278,-4524,-478,-1304,-55,-400,-1725,111,621,-269,1,1,4,51,80,0,53298,1
2,33225,34877,32825,97241,7294,-4473,-522,-1215,-1179,-886,-3658,135,605,-267,1,1,4,51,120,0,53298,1
2,34479,34873,32800,97242,7310,-4342,4,-791,-1953,-1726,-5242,139,611,-263,1,1,4,51,160,0,53298,1
2,34924,34949,32812,97243,7326,-4308,-526,-1390,-2342,-2622,-5808,157,625,-257,1,1,4,51,200,0,53298,1
2,34215,34865,32799,97244,7343,-4319,-511,-1281,-873,-2848,-6417,184,624,-248,1,1,4,51,240,0,53298,1
2,33607,34388,32800,97245,7360,-4462,-763,-1635,-254,-2576,-6952,213,619,-253,1,1,4,51,280,0,53298,1
2,32901,35156,32849,97246,7378,-4639,-383,-1503,892,-2549,-7539,237,615,-255,1,1,4,51,320,0,53298,1
2,32565,35093,32845,97247,7395,-4547,171,-1316,3660,-2814,-6766,265,621,-255,1,1,4,51,360,0,53298,1
2,32443,34930,32844,97248,7413,-4287,694,-1352,4532,-2539,-5273,281,619,-243,1,1,4,51,400,0,53298,1
2,32440,35000,32856,97249,7431,-4004,958,-1558,3003,-1496,-3082,276,612,-244,1,1,4,51,440,0,53298,1
2,32531,35109,32846,97250,7449,-4082,755,-1413,837,-96,-191,273,615,-233,1,1,4,51,480,0,53298,1
2,32764,35213,32841,97251,7466,-4072,346,-1620,-441,760,2533,256,620,-232,1,1,4,51,520,0,53298,1
2,33543,35352,32823,97252,7483,-4256,267,-1540,-70,1570,4912,236,620,-242,1,1,4,51,560,0,53298,1
2,34280,35360,32831,97253,7501,-4483,239,-1096,229,1737,6700,201,633,-235,1,1,4,51,600,0,53298,1
2,34814,35234,32839,97254,7517,-4426,38,-1811,-1454,2431,7608,173,629,-245,1,1,4,51,640,0,53298,1
2,34147,35091,32845,97255,7533,-4313,-185,-1945,-2236,3759,7780,142,624,-258,1,1,4,51,680,0,53298,1
2,32955,35070,32862,97256,7549,-4420,-199,-1701,-303,4973,8236,123,625,-265,1,1,4,51,720,0,53298,1
2,32344,34981,32825,97257,7566,-4740,-103,-1093,1854,4510,8510,103,615,-283,1,1,4,51,760,0,53298,1
2,32226,34932,32806,97258,7582,-4736,-477,-1243,-21,3912,7083,83,605,-299,1,1,4,51,800,0,53298,1
2,32176,34923,32793,97259,7599,-4443,-450,-1187,-750,3343,4881,74,610,-286,1,1,4,51,840,0,53298,1
2,32163,34897,32802,97260,7599,-4455,-853,-1084,-2316,2427,2604,74,598,-300,1,1,4,51,880,0,53298,1
2,32168,34916,32784,97261,7630,-4622,-889,-812,-1157,798,341,72,600,-298,1,1,4,51,920,0,53298,1
2,32200,34967,32806,97262,7630,-4369,-74,-962,642,-989,-1830,87,605,-291,1,1,4,51,960,0,53298,1
1,32286,34979,32798,97263,6786,-4500,-316,-1171,125,-2265,-3696,94,610,-280,1,1,4,52,0,1,53298,1
2,32545,35100,32844,97264,6802,-4625,-603,-1296,-568,-3027,-5631,126,614,-278,1,1,4,52,40,1,53298,1
2,33735,35145,32842,97265,6819,-4533,-518,-1295,-848,-3610,-7595,151,625,-257,1,1,4,52,80,1,53298,1
2,34503,35276,32852,97266,6836,-4487,284,-1045,-379,-4418,-8528,161,621,-241,1,1,4,52,120,1,53298,1
2,33933,35411,32860,97267,6853,-4456,-107,-1556,326,-5072,-8037,197,615,-243,1,1,4,52,160,1,53298,1
2,33190,35565,32873,97268,6870,-4466,-357,-1982,-876,-3973,-8463,231,625,-245,1,1,4,52,200,1,53298,1
2,32747,35563,32896,97269,6886,-4385,135,-1863,-245,-2723,-8358,253,617,-243,1,1,4,52,240,1,53298,1
2,32546,35467,32891,97270,6902,-4136,858,-1602,4227,-2436,-5698,278,616,-238,1,1,4,52,280,1,53298,1
2,32520,35414,32870,97271,6919,-3917,1217,-1797,4781,-1470,-2286,273,607,-239,1,1,4,52,320,1,53298,1
2,32625,35459,32866,97272,6936,-3965,1046,-1454,2347,571,993,255,617,-221,1,1,4,52,360,1,53298,1
2,32996,35551,32846,97273,6952,-4100,489,-1308,-637,1953,3638,245,619,-253,1,1,4,52,400,1,53298,1
2,33589,35553,32845,97274,6969,-4240,208,-1483,-1189,2630,5860,217,627,-243,1,1,4,52,440,1,53298,1
2,34223,35398,32833,97275,6986,-4425,101,-1362,9,2834,7499,181,629,-241,1,1,4,52,480,1,53298,1
2,34317,35249,32836,97276,7002,-4537,52,-1558,-391,3230,8320,143,627,-255,1,1,4,52,520,1,53298,1
2,33414,35099,32827,97277,7019,-4399,-301,-2114,-1448,4239,8236,123,625,-267,1,1,4,52,560,1,53298,1
2,32581,35002,32803,97278,7035,-4592,-44,-972,855,4719,8147,105,625,-261,1,1,4,52,600,1,53298,1
2,32238,34939,32767,97279,7051,-4573,-261,-981,913,4092,7678,74,606,-284,1,1,4,52,640,1,53298,1
2,32155,34856,32736,97280,7067,-4407,-579,-1332,449,3141,6267,62,604,-290,1,1,4,52,680,1,53298,1
2,32120,34828,32756,97281,7083,-4577,-487,-888,1088,2496,4383,59,603,-295,1,1,4,52,720,1,53298,1
2,32114,34805,32735,97282,7099,-4729,-900,-1208,-645,1303,1783,60,590,-294,1,1,4,52,760,1,53298,1
2,32120,34821,32752,97283,7116,-4656,-769,-1192,-206,-474,-995,69,609,-285,1,1,4,52,800,1,53298,1
2,32163,34827,32753,97284,7132,-4407,-87,-1087,273,-1732,-3079,78,606,-278,1,1,4,52,840,1,53298,1
2,32261,34928,32778,97285,7149,-4443,-199,-1354,-1080,-2470,-4689,100,614,-272,1,1,4,52,880,1,53298,1
2,32434,34975,32785,97286,7166,-4492,-341,-1427,-1085,-3011,-6064,114,614,-268,1,1,4,52,920,1,53298,1
2,33252,34979,32805,97287,7166,-4473,-453,-1519,-1057,-3265,-7542,141,621,-253,1,1,4,52,960,1,53298,1
1,34374,35008,32769,97288,6325,-4422,-92,-1526,-1604,-3303,-8716,182,622,-246,1,1,4,53,0,1,53298,1
2,33672,35158,32781,97289,6342,-4313,566,-1143,690,-4164,-7926,203,623,-243,1,1,4,53,40,1,53298,1
2,33120,35227,32773,97290,6358,-4366,-309,-1778,-542,-3614,-7251,229,623,-251,1,1,4,53,80,1,53298,1
2,32725,35281,32817,97291,6375,-4427,-269,-1783,-1412,-2281,-7522,263,617,-241,1,1,4,53,120,1,53298,1
2,32471,35203,32832,97292,6391,-4340,503,-1365,2161,-1962,-5881,262,618,-234,1,1,4,53,160,1,53298,1
2,32419,35188,32832,97293,6408,-4217,862,-1462,3987,-1842,-2945,275,621,-243,1,1,4,53,200,1,53298,1
2,32455,35190,32820,97294,6425,-3955,736,-1758,1682,-383,-490,276,624,-238,1,1,4,53,240,1,53298,1
2,32632,35240,32820,97295,6442,-4096,270,-1199,-68,1154,1810,250,624,-254,1,1,4,53,280,1,53298,1
2,32963,35276,32804,97296,6459,-4177,173,-1506,-1124,1928,3848,242,626,-248,1,1,4,53,320,1,53298,1
2,33725,35236,32777,97297,6474,-4301,25,-1490,-87,2383,5615,221,623,-251,1,1,4,53,360,1,53298,1
2,34173,35010,32770,97298,6490,-4447,216,-1317,1151,2429,6995,185,631,-239,1,1,4,53,400,1,53298,1
2,34134,34938,32768,97299,6506,-4431,-71,-1663,-536,2902,7485,164,636,-246,1,1,4,53,440,1,53298,1
2,33342,34969,32815,97300,6522,-4296,-301,-2158,-1549,3964,7532,133,629,-269,1,1,4,53,480,1,53298,1
2,32566,34834,32801,97301,6537,-4497,-134,-1637,589,4758,7617,112,628,-286,1,1,4,53,520,1,53298,1
2,32414,33386,32752,97302,6553,-4592,-308,-1713,1039,4845,7118,84,612,-282,1,1,4,53,560,1,53298,1
2,32363,35583,33021,97303,6568,-4708,-679,-1246,1096,4419,5624,82,606,-308,1,1,4,53,600,1,53298,1
2,32348,35583,33029,97304,6583,-4713,-636,-870,-24,3252,3402,74,606,-316,1,1,4,53,640,1,53298,1
2,32350,30474,32918,97305,6598,-4573,-923,-727,-1354,1635,807,80,606,-314,1,1,4,53,680,1,53298,1
2,32413,30660,33057,97306,6613,-4270,-548,-910,-742,-400,-1617,94,608,-320,1,1,4,53,720,1,53298,1
2,32488,30711,33104,97307,6629,-4393,-394,-958,-72,-2065,-3100,108,610,-298,1,1,4,53,760,1,53298,1
2,33073,30576,33114,97308,6644,-4573,-446,-1082,-1106,-3439,-4840,121,623,-289,1,1,4,53,800,1,53298,1
2,35409,31007,33174,97309,6660,-4657,134,-998,-2255,-4766,-6424,136,634,-270,1,1,4,53,840,1,53298,1
2,36667,30507,33109,97310,6675,-4647,-691,-1902,-2760,-5590,-7029,172,624,-262,1,1,4,53,880,1,53298,1
2,34943,30774,33133,97311,6691,-3180,310,-1537,1433,-5383,-7408,193,627,-245,1,1,4,53,920,1,53298,1
2,34184,30874,33176,97312,6691,-4065,-372,-1966,-118,-3933,-8295,215,621,-247,1,1,4,53,960,1,53298,1
1,33339,31063,33221,97313,5862,-4339,136,-2053,285,-2703,-8255,245,623,-235,1,1,4,54,0,1,53298,1
2,33125,31033,33226,97314,5878,-4130,1339,-1321,4939,-2727,-5218,269,615,-241,1,1,4,54,40,1,53298,1
2,33264,31032,33249,97315,5894,-4025,1475,-1630,3670,-1865,-1524,263,629,-225,1,1,4,54,80,1,53298,1
2,33860,31040,33240,97316,5910,-4103,751,-1165,39,-130,1367,246,618,-242,1,1,4,54,120,1,53298,1
2,34785,30967,33217,97317,5926,-3986,441,-1429,-2322,1199,3723,221,617,-239,1,1,4,54,160,1,53298,1
2,36203,30893,33176,97318,5943,-4196,135,-1673,-1759,1914,5836,190,618,-250,1,1,4,54,200,1,53298,1
2,36545,30729,33155,97319,5959,-4561,83,-1537,-523,2528,7364,166,618,-242,1,1,4,54,240,1,53298,1
2,34852,30678,33143,97320,5975,-4823,-219,-2256,-2247,3634,7458,136,624,-244,1,1,4,54,280,1,53298,1
2,33411,30595,33123,97321,5991,-4839,-384,-1421,-1218,5032,6707,129,617,-257,1,1,4,54,320,1,53298,1
2,32771,30602,33107,97322,6007,-5048,-953,-808,-2792,4351,5190,118,614,-264,1,1,4,54,360,1,53298,1
2,32767,30605,33093,97323,6023,-4953,-1225,-258,-1788,2400,3133,110,614,-272,1,1,4,54,400,1,53298,1
2,33227,30606,33110,97324,6039,-4494,-1389,-753,-2433,214,-122,122,612,-268,1,1,4,54,440,1,53298,1
2,34501,30609,33128,97325,6055,-4433,-845,-689,-1029,-1535,-2700,131,619,-259,1,1,4,54,480,1,53298,1
2,36212,30605,33122,97326,6072,-4434,-381,-1092,746,-3083,-4183,142,616,-244,1,1,4,54,520,1,53298,1
2,35597,30591,33123,97327,6088,-4403,-195,-1546,1839,-3528,-5192,165,617,-253,1,1,4,54,560,1,53298,1
2,35012,30623,33147,97328,6103,-4369,-103,-1863,1530,-3144,-5750,180,614,-240,1,1,4,54,600,1,53298,1
2,34581,30638,33168,97329,6120,-4212,435,-1964,1098,-2422,-5546,205,617,-239,1,1,4,54,640,1,53298,1
2,34608,30655,33185,97330,6135,-4006,1365,-1662,3390,-1837,-3206,206,624,-242,1,1,4,54,680,1,53298,1
2,35188,30664,33195,97331,6152,-4006,1522,-1438,3485,-656,265,198,622,-240,1,1,4,54,720,1,53298,1
2,36176,30639,33165,97332,6168,-4116,858,-1338,73,727,2843,176,630,-234,1,1,4,54,760,1,53298,1
2,36922,30663,33159,97333,6184,-4161,589,-1578,-1730,1936,4756,147,619,-229,1,1,4,54,800,1,53298,1
2,35512,30616,33151,97334,6201,-4074,124,-2107,-1892,2803,6114,137,617,-243,1,1,4,54,840,1,53298,1
2,33440,30630,33151,97335,6216,-4607,3,-2027,257,3799,7215,118,618,-266,1,1,4,54,880,1,53298,1
2,32770,30618,33131,97336,6232,-5007,-255,-784,-678,4143,6490,89,617,-261,1,1,4,54,920,1,53298,1
2,32575,30600,33128,97337,6232,-4859,-909,-724,-1769,3176,4779,92,614,-274,1,1,4,54,960,1,53298,1
1,32597,30599,33123,97338,5401,-4611,-1276,-581,-1419,1508,2123,96,604,-282,1,1,4,55,0,0,53298,1
2,32702,30523,33132,97339,5417,-4276,-1141,-1051,-632,-214,-829,96,612,-266,1,1,4,55,40,0,53298,1
2,33471,35870,33177,97340,5434,-4395,-794,-1076,2812,-1933,-2431,106,620,-272,1,1,4,55,80,0,53298,1
2,35023,31875,33049,97341,5452,-4675,-151,-903,3933,-3061,-3710,124,626,-260,1,1,4,55,120,0,53298,1
2,36016,32469,32074,97342,5472,-4678,6,-1368,3309,-4254,-4091,138,624,-254,1,1,4,55,160,0,53298,1
2,35001,32611,32119,97343,5492,-4228,310,-1799,2059,-4069,-4794,159,627,-243,1,1,4,55,200,0,53298,1
2,35573,31061,32180,97344,5512,-3913,246,-2467,625,-3113,-4289,168,624,-254,1,1,4,55,240,0,53298,1
2,36419,32057,32566,97345,5532,-4006,1393,-1705,2064,-1609,-2771,164,622,-244,1,1,4,55,280,0,53298,1
2,37660,31998,32896,97346,5551,-4096,1330,-1625,2640,-806,685,159,629,-237,1,1,4,55,320,0,53298,1
2,36591,32146,32190,97347,5571,-4255,683,-939,-494,601,2716,149,623,-243,1,1,4,55,360,0,53298,1
2,35968,31946,32163,97348,5591,-3965,25,-1447,-4519,1547,3050,138,622,-250,1,1,4,55,400,0,53298,1
2,36563,31935,32172,97349,5610,-4004,303,-2014,-704,1976,4293,123,613,-259,1,1,4,55,440,0,53298,1
2,34910,31013,32181,97350,5630,-3842,24,-1638,1135,2873,5060,105,615,-261,1,1,4,55,480,0,53298,1
2,32994,31145,32168,97351,5651,-4696,40,-1438,845,3744,5300,88,616,-264,1,1,4,55,520,0,53298,1
2,32384,31337,32146,97352,5671,-4646,-385,-1141,-978,3864,3938,88,616,-270,1,1,4,55,560,0,53298,1
2,32327,31691,32143,97353,5690,-4714,-801,-596,-1654,2505,2328,80,602,-272,1,1,4,55,600,0,53298,1
2,32939,30228,32179,97354,5710,-4520,-815,-687,-1216,428,131,89,603,-267,1,1,4,55,640,0,53298,1
2,34250,35060,32157,97355,5729,-4371,-632,-874,-676,-1260,-2096,95,611,-261,1,1,4,55,680,0,53298,1
2,35966,35206,32207,97356,5749,-4477,-548,-1123,-346,-2344,-3962,123,617,-261,1,1,4,55,720,0,53298,1
2,34567,35319,32202,97357,5768,-3665,-140,-1144,1390,-3177,-5361,143,621,-249,1,1,4,55,760,0,53298,1
2,34615,35688,32211,97358,5787,-4651,-35,-1938,922,-3160,-6378,156,626,-254,1,1,4,55,800,0,53298,1
2,34326,36017,32213,97359,5806,-4124,568,-2018,2209,-2238,-6703,170,622,-242,1,1,4,55,840,0,53298,1
2,34119,36083,32215,97360,5826,-4037,1573,-1673,3740,-2077,-3930,182,634,-252,1,1,4,55,880,0,53298,1
2,34637,36038,32210,97361,5844,-4032,1720,-1573,1936,-895,-608,176,630,-262,1,1,4,55,920,0,53298,1
2,35702,35736,32193,97362,5844,-3985,947,-1462,-1489,689,1747,166,628,-256,1,1,4,55,960,0,53298,1
1,35703,35325,32185,97363,4941,-3961,658,-1584,-1369,1471,4136,130,622,-246,1,1,4,56,0,1,53298,1
2,34911,35173,32189,97364,4959,-3169,-1590,-2635,-1790,1721,6017,125,613,-263,1,1,4,56,40,1,53298,1
2,33522,35101,32188,97365,4978,-4462,213,-2160,868,3350,6492,101,619,-265,1,1,4,56,80,1,53298,1
2,32253,35048,32186,97366,4997,-5015,-90,-1014,-2046,4935,5271,90,608,-270,1,1,4,56,120,1,53298,1
2,31795,35022,32190,97367,5015,-4868,-838,-898,-2260,3666,4013,92,604,-278,1,1,4,56,160,1,53298,1
2,31822,35024,32186,97368,5033,-4566,-1023,-357,-82,1414,2214,83,609,-277,1,1,4,56,200,1,53298,1
2,32085,35035,32180,97369,5051,-4208,-869,-817,-999,-304,-661,80,604,-274,1,1,4,56,240,1,53298,1
2,33366,35057,32181,97370,5070,-4387,-641,-934,740,-2031,-2493,103,613,-273,1,1,4,56,280,1,53298,1
2,35530,35130,32169,97371,5088,-4563,-93,-1082,744,-3220,-4158,113,623,-255,1,1,4,56,320,1,53298,1
2,34870,35249,32174,97372,5106,-4715,-417,-1557,518,-3885,-5550,134,626,-242,1,1,4,56,360,1,53298,1
2,34221,35464,32179,97373,5124,-3406,-1438,-2637,-13,-3840,-6524,169,617,-241,1,1,4,56,400,1,53298,1
2,34383,35945,32179,97374,5142,-4057,562,-2447,1873,-2452,-6557,177,623,-249,1,1,4,56,440,1,53298,1
2,34037,35997,32184,97375,5160,-4107,2320,-1125,3634,-1257,-4056,186,632,-254,1,1,4,56,480,1,53298,1
2,34718,35981,32178,97376,5179,-4074,1870,-1591,2933,-394,198,170,630,-258,1,1,4,56,520,1,53298,1
2,35504,35637,32167,97377,5197,-4114,1013,-1291,-1260,1248,2562,156,632,-244,1,1,4,56,560,1,53298,1
2,35386,35303,32163,97378,5214,-4131,651,-1361,-2875,2084,4503,141,619,-257,1,1,4,56,600,1,53298,1
2,34640,35117,32155,97379,5233,-3721,-616,-2063,-3251,2428,6000,118,614,-256,1,1,4,56,640,1,53298,1
2,33253,35051,32158,97380,5250,-4516,-41,-1918,-971,3669,6408,106,612,-272,1,1,4,56,680,1,53298,1
2,32146,35020,32157,97381,5268,-4962,-535,-982,-2905,4350,5134,91,609,-283,1,1,4,56,720,1,53298,1
2,31975,35005,32160,97382,5287,-4935,-1080,-614,-2283,2723,3354,83,603,-277,1,1,4,56,760,1,53298,1
2,32172,35012,32159,97383,5305,-4512,-1176,-486,-1225,475,480,98,604,-280,1,1,4,56,800,1,53298,1
2,32996,35040,32158,97384,5324,-4146,-427,-940,-37,-1214,-1890,101,607,-279,1,1,4,56,840,1,53298,1
2,34318,35099,32154,97385,5341,-4188,-241,-1252,1014,-2245,-3139,117,609,-273,1,1,4,56,880,1,53298,1
2,34736,35180,32165,97386,5360,-4384,-30,-1576,916,-2694,-4022,125,613,-249,1,1,4,56,920,1,53298,1
2,34505,35370,32170,97387,5360,-5958,1650,-1501,1401,-2985,-4382,145,615,-255,1,1,4,56,960,1,53298,1
1,35195,35643,32165,97388,4480,-3916,-192,-2354,-584,-1987,-5170,158,622,-252,1,1,4,57,0,1,53298,1
2,35543,35760,32161,97389,4498,-3890,1780,-1486,2890,-1424,-3762,158,624,-254,1,1,4,57,40,1,53298,1
2,36531,35620,32160,97390,4515,-3913,1873,-1636,3584,-548,87,147,625,-253,1,1,4,57,80,1,53298,1
2,36096,35380,32161,97391,4533,-4297,927,-1121,-781,1007,2444,142,618,-252,1,1,4,57,120,1,53298,1
2,35761,35195,32161,97392,4551,-3816,-735,-2164,-5454,1659,3342,132,620,-262,1,1,4,57,160,1,53298,1
2,35258,35102,32157,97393,4569,-4376,377,-2145,-310,2016,4479,118,614,-258,1,1,4,57,200,1,53298,1
2,33186,35053,32161,97394,4588,-4749,51,-1201,790,2588,5022,104,612,-274,1,1,4,57,240,1,53298,1
2,32706,35037,32159,97395,4606,-4837,-627,-814,-1273,2954,3512,98,596,-270,1,1,4,57,280,1,53298,1
2,32895,35040,32158,97396,4625,-4698,-1133,-370,-2834,1542,876,99,605,-269,1,1,4,57,320,1,53298,1
2,34059,35061,32152,97397,4643,-4219,-659,-650,-127,-913,-1084,93,617,-257,1,1,4,57,360,1,53298,1
2,36138,35121,32143,97398,4661,-4358,-519,-988,1178,-2611,-2644,124,610,-260,1,1,4,57,400,1,53298,1
2,35443,35249,32154,97399,4678,-4483,-693,-1576,1016,-3106,-4522,133,615,-247,1,1,4,57,440,1,53298,1
2,34064,35512,32163,97400,4696,-4421,-372,-1829,1620,-3333,-5233,152,614,-246,1,1,4,57,480,1,53298,1
2,33362,35882,32172,97401,4714,-4408,189,-2058,1615,-2954,-5708,161,621,-229,1,1,4,57,520,1,53298,1
2,32738,35959,32179,97402,4732,-4357,831,-1640,1543,-2006,-5068,189,619,-239,1,1,4,57,560,1,53298,1
2,32545,35991,32177,97403,4751,-4176,931,-1544,1330,-1173,-3171,194,616,-252,1,1,4,57,600,1,53298,1
2,32835,36036,32180,97404,4770,-4045,1094,-1359,1197,-133,-830,180,628,-242,1,1,4,57,640,1,53298,1
2,33655,36004,32174,97405,4789,-4128,476,-1038,-109,564,1295,174,624,-246,1,1,4,57,680,1,53298,1
2,35105,35798,32162,97406,4807,-4078,406,-1483,-912,928,2897,163,623,-241,1,1,4,57,720,1,53298,1
2,36605,35388,32156,97407,4825,-4262,338,-1247,-718,1242,4214,148,622,-232,1,1,4,57,760,1,53298,1
2,35473,35166,32153,97408,4844,-4808,436,-485,-2772,1610,4500,131,609,-249,1,1,4,57,800,1,53298,1
2,34349,35062,32158,97409,4863,-3982,-575,-2504,100,2161,5012,105,613,-255,1,1,4,57,840,1,53298,1
2,32723,35017,32155,97410,4881,-4464,328,-1275,2126,3728,4698,102,614,-276,1,1,4,57,880,1,53298,1
2,31837,34993,32156,97411,4898,-4535,42,-1216,1564,3876,4731,92,608,-282,1,1,4,57,920,1,53298,1
2,31680,34980,32146,97412,4898,-4656,-106,-680,1691,2910,4174,82,614,-280,1,1,4,57,960,1,53298,1
1,31690,34969,32150,97413,4018,-4608,-556,-675,-979,1809,2170,86,608,-288,1,1,4,58,0,1,53298,1
2,31841,34978,32144,97414,4037,-4415,-556,-1004,-894,19,187,82,602,-272,1,1,4,58,40,1,53298,1
2,32363,34991,32145,97415,4055,-4443,-516,-994,239,-1460,-1522,102,606,-262,1,1,4,58,80,1,53298,1
2,33995,35016,32134,97416,4073,-4568,-230,-1021,-853,-2320,-3551,107,615,-259,1,1,4,58,120,1,53298,1
2,35242,35090,32128,97417,4092,-4483,-227,-1446,-1704,-3270,-4707,127,613,-251,1,1,4,58,160,1,53298,1
2,34826,35205,32135,97418,4109,-4369,-372,-1553,-736,-3453,-5617,139,613,-245,1,1,4,58,200,1,53298,1
2,33934,35452,32138,97419,4127,-4401,-218,-1761,-196,-3249,-6412,161,623,-233,1,1,4,58,240,1,53298,1
2,33438,35685,32143,97420,4145,-4284,-164,-1707,823,-2690,-6667,186,626,-236,1,1,4,58,280,1,53298,1
2,32829,35791,32147,97421,4163,-4353,237,-1529,1138,-1954,-6481,211,621,-233,1,1,4,58,320,1,53298,1
2,32677,35815,32156,97422,4181,-4229,804,-1534,1374,-1628,-5084,221,613,-245,1,1,4,58,360,1,53298,1
2,32901,35819,32148,97423,4200,-3888,1285,-1666,1588,-720,-2444,216,626,-224,1,1,4,58,400,1,53298,1
2,33509,35746,32140,97424,4218,-4040,866,-1196,51,507,492,206,620,-238,1,1,4,58,440,1,53298,1
2,34240,35499,32135,97425,4236,-4061,526,-1622,-1637,1449,2988,190,634,-246,1,1,4,58,480,1,53298,1
2,34726,35240,32125,97426,4253,-4218,357,-1478,-1083,1978,5075,166,622,-246,1,1,4,58,520,1,53298,1
2,34373,35073,32119,97427,4271,-4435,255,-1598,-861,2408,6416,134,630,-242,1,1,4,58,560,1,53298,1
2,33136,34969,32117,97428,4288,-4165,-98,-2282,509,3452,7259,114,614,-256,1,1,4,58,600,1,53298,1
2,31884,34939,32116,97429,4305,-4534,239,-1389,1756,4955,7536,104,620,-276,1,1,4,58,640,1,53298,1
2,31593,34910,32114,97430,4323,-4918,-431,-1005,-806,5029,6961,85,607,-289,1,1,4,58,680,1,53298,1
2,31521,34898,32109,97431,4340,-4952,-656,-493,-666,3521,5352,78,610,-292,1,1,4,58,720,1,53298,1
2,31545,34899,32110,97432,4358,-4788,-1351,-701,-2448,1675,2168,77,603,-297,1,1,4,58,760,1,53298,1
2,31669,34908,32107,97433,4376,-4528,-896,-993,-2007,-431,-1242,82,606,-270,1,1,4,58,800,1,53298,1
2,32145,34933,32109,97434,4395,-4518,-949,-1116,-625,-1974,-3939,99,615,-271,1,1,4,58,840,1,53298,1
2,33710,34971,32107,97435,4412,-4619,-379,-832,-136,-3004,-6340,130,610,-266,1,1,4,58,880,1,53298,1
2,33846,35091,32115,97436,4431,-4611,-406,-1484,-652,-4604,-7388,158,622,-252,1,1,4,58,920,1,53298,1
2,33685,35241,32112,97437,4431,-4040,344,-2509,-214,-4429,-8075,182,616,-244,1,1,4,58,960,1,53298,1
1,33955,35352,32112,97438,3558,-3618,1700,-2468,2177,-2722,-6383,190,624,-238,1,1,4,59,0,1,53298,1
2,34237,35247,32115,97439,3576,-3864,2508,-1834,2387,-1084,-1876,182,624,-248,1,1,4,59,40,1,53298,1
2,33792,35085,32105,97440,3593,-4101,1553,-1552,-264,415,2533,161,615,-253,1,1,4,59,80,1,53298,1
2,32727,34959,32106,97441,3611,-3940,822,-2374,-3580,2453,5061,147,615,-265,1,1,4,59,120,1,53298,1
2,31873,34905,32100,97442,3629,-4454,348,-1307,-2240,4319,6980,119,611,-269,1,1,4,59,160,1,53298,1
2,31567,34874,32090,97443,3647,-5039,-876,-808,-3297,4296,6859,103,597,-273,1,1,4,59,200,1,53298,1
2,31549,34863,32085,97444,3664,-4983,-1787,-501,-4185,2624,4063,97,609,-259,1,1,4,59,240,1,53298,1
2,31650,34872,32080,97445,3682,-4639,-2173,-682,-3675,449,-218,110,596,-268,1,1,4,59,280,1,53298,1
2,32259,34899,32081,97446,3700,-4490,-1245,-670,364,-1849,-3444,134,608,-260,1,1,4,59,320,1,53298,1
2,33524,34967,32079,97447,3718,-4607,-688,-748,2110,-3407,-5896,154,616,-236,1,1,4,59,360,1,53298,1
2,33320,35099,32088,97448,3735,-4688,-18,-1182,1949,-4824,-7311,181,611,-241,1,1,4,59,400,1,53298,1
2,32911,35333,32096,97449,3753,-4457,-37,-2346,1064,-4573,-8117,201,605,-241,1,1,4,59,440,1,53298,1
2,32896,35562,32105,97450,3771,-3933,1101,-2754,2441,-3121,-7285,230,616,-236,1,1,4,59,480,1,53298,1
2,33226,35583,32105,97451,3788,-3847,2610,-1825,3252,-1037,-3691,217,621,-227,1,1,4,59,520,1,53298,1
2,33623,35352,32093,97452,3805,-4031,2219,-1047,2936,92,2154,189,611,-229,1,1,4,59,560,1,53298,1
2,33664,35098,32079,97453,3822,-3946,1007,-1756,-4262,2362,5288,165,619,-241,1,1,4,59,600,1,53298,1
2,32834,34955,32074,97454,3838,-4065,479,-1874,-4080,3869,7927,139,611,-253,1,1,4,59,640,1,53298,1
2,32053,34885,32070,97455,3856,-4381,-198,-2080,-1796,5197,9591,109,611,-263,1,1,4,59,680,1,53298,1
2,31660,34868,32065,97456,3873,-5141,-629,-757,1060,5272,9718,90,596,-272,1,1,4,59,720,1,53298,1
2,31620,34861,32064,97457,3890,-5334,-1409,-653,-885,3951,6883,84,604,-284,1,1,4,59,760,1,53298,1
2,31746,34865,32059,97458,3907,-4989,-1761,-421,-2258,1847,2162,84,602,-266,1,1,4,59,800,1,53298,1
2,32472,34884,32067,97459,3924,-4415,-1105,-600,7,-551,-1602,99,601,-279,1,1,4,59,840,1,53298,1
2,33868,34941,32057,97460,3941,-4403,-766,-797,2513,-2491,-3925,113,607,-267,1,1,4,59,880,1,53298,1
2,33740,35072,32069,97461,3958,-4607,-452,-1039,2488,-4072,-5733,137,609,-243,1,1,4,59,920,1,53298,1
2,32899,35263,32080,97462,3958,-4642,-780,-1833,1251,-4536,-7689,164,624,-240,1,1,4,59,960,1,53298,1
1,32435,35458,32083,97463,3096,-4438,86,-2420,2636,-4205,-7626,191,615,-247,1,1,5,0,0,1,53298,1
2,32297,35572,32091,97464,3113,-4049,1234,-2414,5256,-3051,-7489,215,619,-243,1,1,5,0,40,1,53298,1
2,32618,35617,32091,97465,3130,-3948,2593,-1508,6374,-1927,-3537,215,637,-251,1,1,5,0,80,1,53298,1
2,33260,35548,32082,97466,3146,-4075,1531,-1010,2489,-412,1091,189,619,-243,1,1,5,0,120,1,53298,1
2,34058,35279,32073,97467,3163,-3785,1000,-1713,-2686,1514,3775,174,626,-240,1,1,5,0,160,1,53298,1
2,33659,34991,32070,97468,3180,-4001,593,-1606,-2640,2771,5912,143,625,-237,1,1,5,0,200,1,53298,1
2,32642,34895,32072,97469,3198,-4181,-24,-2544,-2158,3954,7908,113,621,-259,1,1,5,0,240,1,53298,1
2,31774,34850,32065,97470,3215,-4752,-176,-1821,-786,5437,7928,104,614,-278,1,1,5,0,280,1,53298,1
2,31587,34826,32055,97471,3233,-5550,-785,-259,-3744,4844,6069,88,604,-276,1,1,5,0,320,1,53298,1
2,31581,34829,32045,97472,3250,-5049,-1481,-411,-4628,2624,3083,83,609,-267,1,1,5,0,360,1,53298,1
2,31746,34836,32044,97473,3266,-4277,-1495,-942,-2760,4,-245,90,608,-260,1,1,5,0,400,1,53298,1
2,32241,34868,32049,97474,3284,-4281,-1094,-847,909,-1645,-2734,108,598,-268,1,1,5,0,440,1,53298,1
2,33451,34930,32048,97475,3302,-4579,-886,-1029,2388,-2927,-5008,137,613,-263,1,1,5,0,480,1,53298,1
2,33225,35085,32051,97476,3318,-4686,-132,-1085,2625,-4345,-6997,155,621,-243,1,1,5,0,520,1,53298,1
2,32719,35237,32060,97477,3335,-4599,-294,-1786,2138,-4980,-8048,191,621,-243,1,1,5,0,560,1,53298,1
2,32265,35346,32068,97478,3352,-4394,224,-2042,1924,-4327,-8508,217,617,-235,1,1,5,0,600,1,53298,1
2,32143,35425,32083,97479,3369,-4159,666,-2048,2085,-3062,-7304,236,626,-238,1,1,5,0,640,1,53298,1
2,32281,35468,32085,97480,3386,-3975,1416,-1656,4743,-1965,-3905,241,627,-235,1,1,5,0,680,1,53298,1
2,32759,35481,32081,97481,3403,-4095,1366,-1061,5498,-822,219,226,620,-238,1,1,5,0,720,1,53298,1
2,33209,35334,32072,97482,3421,-4094,882,-1415,-271,855,2484,213,623,-233,1,1,5,0,760,1,53298,1
2,33492,35127,32062,97483,3438,-4092,557,-1571,-2953,2121,4485,186,626,-242,1,1,5,0,800,1,53298,1
2,33199,34945,32060,97484,3455,-4338,-15,-1714,-2586,2823,6279,160,622,-238,1,1,5,0,840,1,53298,1
2,32511,34875,32057,97485,3472,-4362,-408,-2200,-444,3427,7330,138,630,-232,1,1,5,0,880,1,53298,1
2,31770,34844,32056,97486,3487,-4522,-94,-1399,1918,4374,7526,120,622,-258,1,1,5,0,920,1,53298,1
2,31557,34820,32052,97487,3487,-4824,-423,-988,-91,4159,6771,93,615,-261,1,1,5,0,960,1,53298,1
1,31492,34814,32049,97488,2635,-4726,-586,-880,-859,2305,3165,79,617,-269,1,1,5,1,0,1,53298,1
2,31481,34810,32044,97489,2652,-4663,-869,-911,-1381,2314,693,90,606,-286,1,1,5,1,40,1,53298,1
2,31507,34808,32040,97490,2669,-4616,-909,-1030,-1103,822,-1318,80,606,-278,1,1,5,1,80,1,53298,1
2,31620,34814,32043,97491,2687,-4452,-442,-920,160,-530,-3498,93,617,-271,1,1,5,1,120,1,53298,1
2,31904,34830,32045,97492,2704,-4537,-654,-1141,-1227,-1641,-5583,106,620,-264,1,1,5,1,160,1,53298,1
2,32636,34870,32041,97493,2722,-4554,-497,-1107,-2121,-2498,-6752,132,618,-254,1,1,5,1,200,1,53298,1
2,33417,34931,32045,97494,2739,-4619,-17,-790,-1597,-3386,-7210,153,621,-237,1,1,5,1,240,1,53298,1
2,33159,35052,32046,97495,2755,-4503,-330,-1302,-1804,-4465,-7775,183,625,-241,1,1,5,1,280,1,53298,1
2,32802,35177,32052,97496,2772,-4518,-465,-1483,-1236,-4136,-8257,210,614,-224,1,1,5,1,320,1,53298,1
2,32356,35289,32073,97497,2788,-4496,-446,-1502,-888,-3624,-7858,231,613,-219,1,1,5,1,360,1,53298,1
2,32086,35324,32102,97498,2805,-4485,-211,-1529,507,-3308,-6205,271,611,-231,1,1,5,1,400,1,53298,1
2,31939,35311,32123,97499,2822,-4398,304,-1314,3273,-3123,-4121,282,620,-208,1,1,5,1,440,1,53298,1
2,31963,35327,32137,97500,2839,-4208,654,-1343,3362,-2345,-1640,294,596,-214,1,1,5,1,480,1,53298,1
2,32113,35362,32131,97501,2855,-4128,712,-1218,1704,-1077,928,282,604,-218,1,1,5,1,520,1,53298,1
2,32540,35364,32121,97502,2872,-4105,357,-1475,-467,196,3525,275,607,-213,1,1,5,1,560,1,53298,1
2,33025,35250,32090,97503,2889,-4129,265,-1448,-276,1149,5708,257,609,-221,1,1,5,1,600,1,53298,1
2,33267,35090,32067,97504,2906,-4316,130,-1385,-480,2080,7006,215,623,-223,1,1,5,1,640,1,53298,1
2,33052,34965,32055,97505,2923,-4393,-177,-1566,-1178,2954,7551,191,613,-217,1,1,5,1,680,1,53298,1
2,32676,34888,32052,97506,2940,-4551,-544,-1794,-621,4063,7404,174,624,-238,1,1,5,1,720,1,53298,1
2,32209,34850,32047,97507,2957,-4746,-464,-1066,753,4825,6806,150,624,-242,1,1,5,1,760,1,53298,1
2,31870,34830,32046,97508,2974,-4725,-568,-931,512,4143,5593,134,620,-254,1,1,5,1,800,1,53298,1
2,31778,34818,32039,97509,2991,-4702,-645,-768,203,3190,3601,118,620,-250,1,1,5,1,840,1,53298,1
2,31798,34820,32044,97510,3008,-4681,-847,-846,-1090,2353,1207,118,616,-258,1,1,5,1,880,1,53298,1
2,31898,34831,32035,97511,3025,-4657,-911,-1031,-1696,1356,1216,120,614,-262,1,1,5,1,920,1,53298,1
2,32121,34840,32034,97512,3025,-4654,-880,-938,-662,72,-885,123,615,-267,1,1,5,1,960,1,53298,1
1,32685,34867,32036,97513,2174,-4549,-843,-1002,194,-2155,-4502,149,613,-259,1,1,5,2,0,0,53298,1
2,33078,34922,32036,97514,2191,-4456,-471,-848,111,-3210,-5219,158,624,-254,1,1,5,2,40,0,53298,1
2,33049,34975,32038,97515,2209,-4473,-292,-935,459,-3648,-5902,176,618,-240,1,1,5,2,80,0,53298,1
2,32910,35072,32052,97516,2226,-4608,-356,-1311,-499,-3448,-6646,200,612,-228,1,1,5,2,120,0,53298,1
2,32780,35155,32055,97517,2244,-4569,-336,-1522,-900,-3112,-6393,219,609,-229,1,1,5,2,160,0,53298,1
2,32686,35224,32065,97518,2261,-4382,-68,-1660,244,-2539,-4807,245,611,-231,1,1,5,2,200,0,53298,1
2,32730,35270,32073,97519,2278,-4140,502,-1656,2301,-1490,-2085,254,604,-218,1,1,5,2,240,0,53298,1
2,32867,35250,32073,97520,2295,-3956,1067,-1545,3095,-1,735,255,615,-223,1,1,5,2,280,0,53298,1
2,33041,35183,32063,97521,2312,-4043,821,-1283,1486,1304,3072,228,626,-228,1,1,5,2,320,0,53298,1
2,33082,35052,32055,97522,2329,-4179,520,-1437,-1074,2189,5011,223,617,-231,1,1,5,2,360,0,53298,1
2,32999,34970,32050,97523,2347,-4353,149,-1570,-1687,3016,5947,203,619,-237,1,1,5,2,400,0,53298,1
2,32745,34909,32044,97524,2365,-4661,-344,-1619,-2210,3683,5607,184,622,-234,1,1,5,2,440,0,53298,1
2,32449,34872,32035,97525,2383,-4954,-766,-1216,-2730,3177,4189,163,621,-243,1,1,5,2,480,0,53298,1
2,32287,34848,32029,97526,2401,-5285,-1517,-813,-2569,1625,1539,154,606,-244,1,1,5,2,520,0,53298,1
2,32416,34860,32030,97527,2418,-4809,-1825,-599,-561,-91,-1254,160,616,-254,1,1,5,2,560,0,53298,1
2,32688,34891,32028,97528,2436,-4299,-1337,-546,1353,-1238,-3392,172,616,-246,1,1,5,2,600,0,53298,1
2,32865,34948,32030,97529,2454,-4155,-904,-692,1275,-2106,-4592,190,610,-250,1,1,5,2,640,0,53298,1
2,32836,35051,32036,97530,2472,-4238,-558,-1085,1531,-2456,-4941,209,611,-245,1,1,5,2,680,0,53298,1
2,32751,35154,32042,97531,2490,-4353,-128,-1427,1887,-2328,-4424,230,610,-238,1,1,5,2,720,0,53298,1
2,32655,35236,32046,97532,2508,-4425,380,-1681,1377,-1693,-2614,236,618,-236,1,1,5,2,760,0,53298,1
2,32720,35265,32051,97533,2525,-4277,998,-1660,1473,-512,299,236,618,-232,1,1,5,2,800,0,53298,1
2,32902,35221,32043,97534,2541,-4243,1068,-1445,1147,898,2771,217,619,-233,1,1,5,2,840,0,53298,1
2,33056,35090,32039,97535,2558,-4153,582,-1493,-978,774,4954,217,621,-245,1,1,5,2,880,0,53298,1
2,33051,34981,32035,97536,2576,-4146,348,-1635,-1338,2121,6535,188,620,-244,1,1,5,2,920,0,53298,1
2,32826,34899,32035,97537,2576,-4272,-23,-1755,-1067,2848,7220,158,622,-236,1,1,5,2,960,0,53298,1
1,32411,34833,32027,97538,1712,-4417,-312,-1730,546,3492,7021,133,627,-239,1,1,5,3,0,1,53298,1
2,32030,34809,32026,97539,1729,-4746,-457,-962,-325,2846,5596,116,618,-252,1,1,5,3,40,1,53298,1
2,31863,34796,32022,97540,1745,-4918,-824,-855,-1658,1864,2777,111,611,-267,1,1,5,3,80,1,53298,1
2,31925,34806,32018,97541,1763,-4877,-1210,-870,-1473,797,-134,109,611,-263,1,1,5,3,120,1,53298,1
2,32226,34815,32012,97542,1781,-4499,-930,-1039,271,-452,-2180,118,616,-266,1,1,5,3,160,1,53298,1
2,32810,34855,32017,97543,1798,-4447,-936,-1033,677,-1443,-4200,131,621,-275,1,1,5,3,200,1,53298,1
2,33277,34926,32022,97544,1815,-4518,-616,-1012,1134,-2668,-5104,152,612,-260,1,1,5,3,240,1,53298,1
2,33094,35008,32019,97545,1832,-4403,149,-1263,1475,-2579,-4902,160,626,-254,1,1,5,3,280,1,53298,1
2,33090,35113,32022,97546,1849,-4059,404,-1842,1446,-1689,-3679,175,627,-257,1,1,5,3,320,1,53298,1
2,33187,35140,32026,97547,1866,-4032,960,-1868,1602,-928,-1043,185,625,-257,1,1,5,3,360,1,53298,1
2,33319,35099,32027,97548,1883,-4063,1320,-1654,736,-74,1456,181,631,-255,1,1,5,3,400,1,53298,1
2,33299,35001,32024,97549,1900,-4190,809,-1357,-1705,988,2770,164,628,-252,1,1,5,3,440,1,53298,1
2,33125,34923,32024,97550,1917,-4161,398,-1695,-1571,1837,3859,154,624,-250,1,1,5,3,480,1,53298,1
2,32725,34852,32021,97551,1934,-4099,140,-1884,-107,2556,4696,140,622,-258,1,1,5,3,520,1,53298,1
2,32281,34813,32025,97552,1951,-4348,-85,-1627,397,2372,4630,126,616,-264,1,1,5,3,560,1,53298,1
2,31895,34797,32018,97553,1967,-4656,-373,-1093,-699,1762,3182,114,620,-270,1,1,5,3,600,1,53298,1
2,31811,34787,32018,97554,1984,-4667,-707,-897,-1732,644,881,110,616,-266,1,1,5,3,640,1,53298,1
2,31868,34793,32023,97555,2000,-4613,-1060,-859,-1025,-533,-1389,114,612,-266,1,1,5,3,680,1,53298,1
2,32110,34805,32019,97556,2016,-4394,-831,-1195,1135,-1532,-2908,125,619,-255,1,1,5,3,720,1,53298,1
2,32555,34835,32021,97557,2033,-4473,-632,-1112,570,-2025,-4558,132,618,-246,1,1,5,3,760,1,53298,1
2,33098,34890,32020,97558,2050,-4522,-478,-1270,889,-2819,-5280,156,622,-256,1,1,5,3,800,1,53298,1
2,33084,34958,32030,97559,2067,-4455,252,-1143,886,-2998,-4841,169,625,-249,1,1,5,3,840,1,53298,1
2,33008,35032,32027,97560,2085,-4253,368,-1734,894,-2154,-3759,177,625,-237,1,1,5,3,880,1,53298,1
2,33117,35081,32025,97561,2102,-4087,644,-1924,871,-921,-1739,171,623,-235,1,1,5,3,920,1,53298,1
2,33249,35060,32029,97562,2102,-3979,1160,-1760,926,44,1100,188,622,-234,1,1,5,3,960,1,53298,1
1,33275,35000,32028,97563,1250,-4121,941,-1597,-728,1130,2936,174,630,-242,1,1,5,4,0,1,53298,1
2,33096,34929,32025,97564,1268,-4199,429,-1780,-1219,2130,4075,165,629,-239,1,1,5,4,40,1,53298,1
2,32803,34857,32020,97565,1285,-4101,258,-1709,-104,2903,5154,143,621,-247,1,1,5,4,80,1,53298,1
2,32346,34820,32025,97566,1302,-4225,104,-1171,723,2955,5668,133,623,-253,1,1,5,4,120,1,53298,1
2,31906,34797,32023,97567,1319,-4561,-101,-1045,-221,2525,4879,105,605,-255,1,1,5,4,160,1,53298,1
2,31758,34785,32019,97568,1335,-4668,-497,-993,-1318,1704,3004,105,613,-265,1,1,5,4,200,1,53298,1
2,31746,34784,32017,97569,1352,-4621,-849,-1173,-1072,688,791,96,618,-268,1,1,5,4,240,1,53298,1
2,31835,34790,32018,97570,1369,-4512,-980,-1117,873,-329,-1033,104,616,-272,1,1,5,4,280,1,53298,1
2,32060,34806,32022,97571,1385,-4451,-649,-1196,826,-1008,-2818,108,628,-264,1,1,5,4,320,1,53298,1
2,32684,34836,32022,97572,1402,-4536,-595,-1114,208,-1718,-4478,122,616,-266,1,1,5,4,360,1,53298,1
2,33100,34898,32019,97573,1418,-4541,-231,-1139,360,-2746,-4922,144,620,-262,1,1,5,4,400,1,53298,1
2,33017,34954,32027,97574,1436,-4388,182,-1128,322,-2960,-4750,145,623,-259,1,1,5,4,440,1,53298,1
2,32884,35017,32025,97575,1452,-4244,158,-1665,195,-2162,-4238,177,619,-249,1,1,5,4,480,1,53298,1
2,32909,35076,32026,97576,1469,-4118,542,-1879,615,-1073,-2487,188,630,-252,1,1,5,4,520,1,53298,1
2,33069,35087,32025,97577,1486,-3989,984,-2026,904,-175,301,179,631,-237,1,1,5,4,560,1,53298,1
2,33190,35029,32025,97578,1503,-4155,964,-1473,-773,718,2385,177,627,-237,1,1,5,4,600,1,53298,1
2,33079,34968,32022,97579,1520,-4202,662,-1450,-2155,1715,3583,162,620,-248,1,1,5,4,640,1,53298,1
2,32792,34892,32021,97580,1536,-4157,368,-1564,-1765,2525,4552,145,621,-257,1,1,5,4,680,1,53298,1
2,32489,34833,32018,97581,1553,-4185,95,-2002,-725,2919,5086,120,620,-262,1,1,5,4,720,1,53298,1
2,32125,34809,32015,97582,1570,-4411,-178,-1382,-522,2406,4710,116,618,-264,1,1,5,4,760,1,53298,1
2,31833,34784,32014,97583,1587,-4588,-469,-1203,-1004,1725,3178,108,612,-274,1,1,5,4,800,1,53298,1
2,31762,34784,32012,97584,1605,-4592,-791,-934,-889,755,986,95,611,-267,1,1,5,4,840,1,53298,1
2,31794,34787,32010,97585,1622,-4533,-972,-955,213,-313,-1139,102,612,-262,1,1,5,4,880,1,53298,1
2,31953,34795,32012,97586,1639,-4334,-607,-1218,1541,-1214,-2514,111,617,-265,1,1,5,4,920,1,53298,1
2,32249,34822,32015,97587,1639,-4425,-433,-1070,699,-1680,-4014,119,613,-259,1,1,5,4,960,1,53298,1
1,32828,34857,32013,97588,790,-4441,285,-1176,672,-2321,-4815,140,622,-260,1,1,5,5,0,0,53298,1
2,32968,34920,32017,97589,807,-4441,439,-1482,815,-2741,-4377,159,625,-249,1,1,5,5,40,0,53298,1
2,32845,34970,32013,97590,825,-4264,531,-1786,700,-2116,-3534,171,619,-247,1,1,5,5,80,0,53298,1
2,32759,35014,32018,97591,842,-4099,823,-1918,343,-958,-2100,172,626,-248,1,1,5,5,120,0,53298,1
2,32850,35042,32019,97592,860,-3943,858,-1865,290,178,162,164,622,-242,1,1,5,5,160,0,53298,1
2,33085,35034,32016,97593,879,-4075,717,-1202,445,704,2342,161,635,-247,1,1,5,5,200,0,53298,1
2,33111,34968,32019,97594,897,-4319,394,-1556,-969,1132,3670,158,626,-250,1,1,5,5,240,0,53298,1
2,32958,34910,32018,97595,915,-4208,178,-1834,-1070,1924,4503,144,622,-250,1,1,5,5,280,0,53298,1
2,32589,34855,32016,97596,932,-4095,34,-1518,267,2639,5196,120,614,-256,1,1,5,5,320,0,53298,1
2,32147,34807,32013,97597,950,-4288,74,-1308,776,2487,5266,110,602,-256,1,1,5,5,360,0,53298,1
2,31842,34788,32013,97598,968,-4539,-234,-1114,-329,1959,4081,97,601,-269,1,1,5,5,400,0,53298,1
2,31684,34780,32015,97599,986,-4643,-284,-1122,-1510,1216,1947,84,604,-276,1,1,5,5,440,0,53298,1
2,31666,34776,32013,97600,1003,-4553,-789,-1156,-793,131,-289,89,605,-271,1,1,5,5,480,0,53298,1
2,31726,34782,32014,97601,1021,-4395,-1004,-1181,740,-785,-1958,94,610,-272,1,1,5,5,520,0,53298,1
2,31947,34799,32013,97602,1039,-4341,-262,-1170,605,-1421,-3640,105,609,-273,1,1,5,5,560,0,53298,1
2,32340,34829,32011,97603,1058,-4506,-764,-1151,12,-2139,-5328,127,615,-277,1,1,5,5,600,0,53298,1
2,32934,34876,32011,97604,1077,-4569,-7,-1044,639,-3085,-5970,144,624,-256,1,1,5,5,640,0,53298,1
2,32940,34954,32017,97605,1095,-4461,50,-1549,395,-3413,-5695,152,626,-246,1,1,5,5,680,0,53298,1
2,32779,35010,32023,97606,1113,-4311,329,-1766,187,-2668,-4912,178,626,-242,1,1,5,5,720,0,53298,1
2,32695,35068,32025,97607,1131,-4174,537,-1861,3,-1496,-3337,188,622,-236,1,1,5,5,760,0,53298,1
2,32770,35096,32025,97608,1148,-4052,783,-1772,839,-469,-779,196,624,-238,1,1,5,5,800,0,53298,1
2,32945,35082,32022,97609,1165,-3982,1027,-1323,984,354,1779,191,633,-243,1,1,5,5,840,0,53298,1
2,33000,35029,32020,97610,1182,-4182,771,-1590,-680,1171,3359,175,629,-243,1,1,5,5,880,0,53298,1
2,32913,34946,32016,97611,1200,-4173,433,-1717,-1011,2038,4417,155,623,-247,1,1,5,5,920,0,53298,1
2,32765,34885,32018,97612,1200,-4151,186,-1889,-159,2759,5319,136,626,-244,1,1,5,5,960,0,53298,1
1,32463,34829,32009,97613,329,-4374,103,-1511,1249,3246,6027,113,621,-245,1,1,5,6,0,1,53298,1
0,32114,34801,32009,97614,347,-4374,103,-1511,1249,3246,6027,102,620,-264,1,1,5,6,40,1,53298,1
2,31815,34784,32008,97615,364,-4695,-468,-1042,-942,2603,4578,89,615,-269,1,1,5,6,80,1,53298,1
2,31717,34772,32005,97616,382,-4543,-865,-1027,-1842,1675,2362,83,605,-263,1,1,5,6,120,1,53298,1
2,31712,34777,32005,97617,400,-4383,-842,-1143,-611,347,181,82,600,-280,1,1,5,6,160,1,53298,1
2,31814,34778,32004,97618,418,-4404,-657,-1078,947,-795,-1680,95,609,-271,1,1,5,6,200,1,53298,1
2,32045,34802,32005,97619,436,-4568,-598,-1101,283,-1561,-3815,104,608,-276,1,1,5,6,240,1,53298,1
2,32519,34829,32017,97620,453,-4564,-229,-1051,-156,-2556,-5634,116,616,-274,1,1,5,6,280,1,53298,1
2,33054,34900,32014,97621,471,-4419,256,-1142,671,-3728,-6117,135,617,-259,1,1,5,6,320,1,53298,1
2,32988,34962,32017,97622,488,-4523,310,-1764,298,-3804,-5877,148,632,-244,1,1,5,6,360,1,53298,1
2,32854,35025,32014,97623,505,-4133,738,-2080,236,-2824,-5074,179,627,-241,1,1,5,6,400,1,53298,1
2,32892,35088,32020,97624,522,-4208,1113,-1992,609,-1493,-3077,182,616,-246,1,1,5,6,440,1,53298,1
2,33065,35100,32017,97625,540,-4036,1016,-1541,1532,-426,90,185,625,-227,1,1,5,6,480,1,53298,1
2,33214,35051,32021,97626,557,-3912,609,-1496,263,562,2406,183,621,-243,1,1,5,6,520,1,53298,1
2,33172,34973,32021,97627,575,-4172,289,-1658,-1177,1603,3636,167,627,-247,1,1,5,6,560,1,53298,1
2,33035,34905,32017,97628,593,-4134,192,-1829,-732,2416,4656,146,622,-242,1,1,5,6,600,1,53298,1
2,32682,34850,32014,97629,610,-4301,143,-1733,683,3102,5647,124,628,-236,1,1,5,6,640,1,53298,1
2,32233,34804,32015,97630,628,-4347,42,-1222,968,3192,5937,119,619,-263,1,1,5,6,680,1,53298,1
2,31816,34781,32016,97631,645,-4388,-331,-1132,-587,2967,5006,99,617,-273,1,1,5,6,720,1,53298,1
2,31681,34776,32014,97632,662,-4836,-710,-966,-1489,2163,3191,88,608,-268,1,1,5,6,760,1,53298,1
2,31643,34766,32011,97633,680,-4535,-946,-942,-1195,890,974,84,610,-276,1,1,5,6,800,1,53298,1
2,31699,34773,32015,97634,698,-4392,-642,-1096,-141,-463,-1210,78,602,-276,1,1,5,6,840,1,53298,1
2,31837,34785,32013,97635,715,-4392,-662,-1043,26,-1451,-3259,105,613,-261,1,1,5,6,880,1,53298,1
2,32137,34803,32013,97636,732,-4511,-573,-1035,-654,-2236,-5400,112,614,-260,1,1,5,6,920,1,53298,1
2,32789,34841,32014,97637,732,-4564,-256,-930,775,-3455,-6480,139,623,-273,1,1,5,6,960,1,53298,1
1,33046,34919,32017,97638,0,-4418,96,-1465,1756,-4317,-6722,156,628,-242,1,1,5,7,0,1,53298,1
2,32817,34994,32022,97639,39887,-4337,650,-2057,1778,-3834,-6255,175,631,-237,1,1,5,7,40,1,53298,1
2,32595,35090,32028,97640,39904,-4125,985,-2069,1041,-2413,-4803,195,629,-235,1,1,5,7,80,1,53298,1
2,32495,35145,32034,97641,39921,-3939,945,-2013,206,-872,-2445,204,626,-236,1,1,5,7,120,1,53298,1
2,32665,35211,32031,97642,39939,-4068,831,-1681,856,374,696,199,617,-235,1,1,5,7,160,1,53298,1
2,32895,35208,32027,97643,39956,-4298,618,-1055,1321,1139,3317,186,626,-238,1,1,5,7,200,1,53298,1
2,33020,35131,32027,97644,39973,-4174,365,-1625,-879,2094,4632,174,622,-244,1,1,5,7,240,1,53298,1
2,33140,35031,32022,97645,39989,-4251,258,-1560,-1572,2968,5590,163,625,-245,1,1,5,7,280,1,53298,1
1,33013,34915,32017,97646,5,-4271,34,-1936,-1647,3466,6377,133,617,-251,1,1,5,7,320,1,53298,1
1,32525,34842,32017,97647,23,-4418,-30,-1731,290,3912,6908,102,622,-264,1,1,5,7,360,1,53298,1
1,32000,34790,32015,97648,40,-4773,-270,-1027,489,3448,6499,91,619,-269,1,1,5,7,400,1,53298,1
1,31686,34766,32010,97649,58,-4672,-751,-965,-1064,2646,4634,73,607,-267,1,1,5,7,440,1,53298,1
1,31563,34759,32009,97650,75,-4531,-1028,-878,-1343,1383,2037,75,603,-289,1,1,5,7,480,1,53298,1
1,31563,34758,32005,97651,92,-4345,-934,-1093,-467,-60,-678,73,607,-281,1,1,5,7,520,1,53298,1
1,31625,34765,32004,97652,109,-4453,-480,-1089,1589,-1383,-2621,74,610,-272,1,1,5,7,560,1,53298,1
1,31868,34777,32015,97653,126,-4653,-507,-1226,305,-2059,-4827,97,621,-265,1,1,5,7,600,1,53298,1
1,32417,34818,32012,97654,143,-4652,-193,-1090,-1196,-2736,-7039,123,627,-263,1,1,5,7,640,1,53298,1
1,33065,34880,32018,97655,161,-4414,290,-1030,-259,-4097,-7517,140,620,-260,1,1,5,7,680,1,53298,1
1,32888,34992,32017,97656,179,-4284,-138,-1758,-127,-4283,-7340,162,624,-244,1,1,5,7,720,1,53298,1
1,32650,35099,32023,97657,197,-4260,237,-1845,331,-3316,-7120,187,623,-243,1,1,5,7,760,1,53298,1
1,32358,35182,32031,97658,215,-4212,622,-1752,803,-2395,-5715,215,619,-247,1,1,5,7,800,1,53298,1
1,32228,35232,32038,97659,233,-4115,1002,-1722,2140,-1648,-3035,227,631,-237,1,1,5,7,840,1,53298,1
3,32279,35260,32038,97660,250,-4063,1061,-1515,1853,-464,-9,235,625,-237,1,1,5,7,880,1,53298,1
3,32540,35265,32033,97661,267,-4124,726,-1295,38,713,2536,204,620,-242,1,1,5,7,920,1,53298,1
0,32805,35210,32029,97662,65535,-4124,726,-1295,38,713,2536,199,625,-237,1,1,5,7,960,1,53298,1
1,33115,35073,32022,97663,0,-4358,122,-1495,-1408,2333,5864,178,630,-234,1,1,5,8,0,1,53298,1
2,33249,34934,32021,97664,39425,-4491,-235,-1630,-1769,2660,6576,161,627,-245,1,1,5,8,40,1,53298,1
2,33111,34860,32009,97665,39443,-4517,-464,-1651,-1422,3212,6455,136,628,-248,1,1,5,8,80,1,53298,1
2,32525,34811,32012,97666,39459,-4636,-439,-1025,-254,3270,5681,119,619,-259,1,1,5,8,120,1,53298,1
2,32114,34783,32008,97667,39476,-4591,-634,-918,-131,2653,4313,106,608,-256,1,1,5,8,160,1,53298,1
2,31934,34774,32015,97668,39493,-4574,-812,-916,-275,1534,2322,101,611,-271,1,1,5,8,200,1,53298,1
2,31972,34780,32008,97669,39511,-4487,-698,-1037,-643,439,-80,104,612,-270,1,1,5,8,240,1,53298,1
2,32206,34790,32009,97670,39528,-4447,-463,-1078,156,-681,-1857,98,616,-268,1,1,5,8,280,1,53298,1
2,32793,34805,32017,97671,39546,-4496,-256,-1103,542,-1637,-3218,112,614,-268,1,1,5,8,320,1,53298,1
2,34043,34836,32010,97672,39564,-4393,54,-1108,356,-2510,-4052,123,617,-263,1,1,5,8,360,1,53298,1
2,34450,34910,32013,97673,39582,-4336,-137,-1448,-70,-2783,-4549,135,633,-245,1,1,5,8,400,1,53298,1
2,34110,35002,32021,97674,39600,-4316,35,-1702,146,-2698,-4802,155,629,-239,1,1,5,8,440,1,53298,1
2,33849,35156,32025,97675,39617,-4209,455,-1906,630,-2031,-4366,170,634,-240,1,1,5,8,480,1,53298,1
2,33725,35270,32029,97676,39633,-4085,853,-1693,1703,-1240,-2716,181,635,-243,1,1,5,8,520,1,53298,1
2,33733,35328,32035,97677,39650,-4043,1111,-1554,1675,-389,-369,180,632,-242,1,1,5,8,560,1,53298,1
2,33925,35288,32032,97678,39667,-4157,631,-1244,551,590,1671,174,620,-246,1,1,5,8,600,1,53298,1
2,34099,35185,32029,97679,39684,-4152,355,-1559,-1022,1291,2960,166,620,-242,1,1,5,8,640,1,53298,1
2,34333,35059,32026,97680,39700,-4206,247,-1602,-671,1632,4132,147,627,-235,1,1,5,8,680,1,53298,1
2,34291,34920,32023,97681,39716,-4215,158,-1900,114,2147,5107,130,618,-254,1,1,5,8,720,1,53298,1
2,33594,34845,32025,97682,39733,-4327,183,-1824,778,3116,5606,123,619,-253,1,1,5,8,760,1,53298,1
2,32303,34789,32026,97683,39749,-4585,120,-1117,4,3616,5476,100,612,-266,1,1,5,8,800,1,53298,1
2,31756,34768,32026,97684,39765,-4528,-285,-1133,-657,3123,4821,89,617,-271,1,1,5,8,840,1,53298,1
2,31548,34764,32021,97685,39782,-4436,-491,-1085,-48,2108,3504,81,603,-289,1,1,5,8,880,1,53298,1
2,31504,34751,32023,97686,39798,-4365,-624,-1107,12,1114,1602,85,607,-287,1,1,5,8,920,1,53298,1
2,31514,34755,32023,97687,39816,-4297,-412,-1332,306,-9,-374,79,597,-283,1,1,5,8,960,1,53298,1
1,31584,34759,32022,97688,0,-4376,-195,-1318,804,-884,-1855,76,606,-290,1,1,5,9,0,1,53298,1
2,31751,34770,32024,97689,38964,-4478,-193,-1345,-424,-1289,-3437,79,619,-279,1,1,5,9,40,1,53298,1
2,32400,34790,32026,97690,38983,-4476,-5,-1107,-930,-1919,-4787,102,608,-266,1,1,5,9,80,1,53298,1
2,33325,34830,32021,97691,38999,-4332,139,-1198,-851,-2903,-5312,121,615,-263,1,1,5,9,120,1,53298,1
2,33767,34893,32021,97692,39017,-4270,-101,-1436,-519,-3173,-5569,140,622,-268,1,1,5,9,160,1,53298,1
2,33525,34982,32027,97693,39034,-4357,-218,-1475,-576,-2952,-5952,159,631,-249,1,1,5,9,200,1,53298,1
2,33186,35153,32031,97694,39051,-4395,-63,-1664,-657,-2723,-6083,173,621,-239,1,1,5,9,240,1,53298,1
2,32860,35276,32035,97695,39067,-4292,307,-1647,784,-2480,-5316,182,636,-244,1,1,5,9,280,1,53298,1
2,32556,35353,32044,97696,39084,-4181,776,-1490,2346,-1983,-3536,213,633,-245,1,1,5,9,320,1,53298,1
2,32476,35367,32040,97697,39101,-4052,1061,-1514,2155,-1064,-1169,227,627,-247,1,1,5,9,360,1,53298,1
2,32583,35344,32040,97698,39118,-4041,707,-1531,354,263,1230,215,629,-241,1,1,5,9,400,1,53298,1
2,32930,35289,32036,97699,39135,-4068,468,-1714,-470,1335,3350,200,620,-244,1,1,5,9,440,1,53298,1
2,33351,35159,32032,97700,39152,-4251,236,-1594,154,2061,5126,182,620,-236,1,1,5,9,480,1,53298,1
2,33592,35019,32032,97701,39168,-4412,47,-1576,223,2462,6143,145,621,-237,1,1,5,9,520,1,53298,1
2,33343,34891,32030,97702,39186,-4355,-111,-1784,-209,3008,6315,130,628,-248,1,1,5,9,560,1,53298,1
2,32845,34833,32027,97703,39203,-4375,-117,-1648,65,3787,6098,117,621,-247,1,1,5,9,600,1,53298,1
2,32166,34797,32026,97704,39219,-4616,-141,-1169,7,4049,5642,93,613,-273,1,1,5,9,640,1,53298,1
2,31829,34775,32025,97705,39236,-4696,-475,-969,-325,3060,4651,82,614,-284,1,1,5,9,680,1,53298,1
2,31690,34764,32020,97706,39253,-4551,-648,-952,-360,1750,2816,72,610,-272,1,1,5,9,720,1,53298,1
2,31688,34768,32016,97707,39270,-4393,-793,-1113,-847,570,410,74,600,-284,1,1,5,9,760,1,53298,1
2,31812,34774,32018,97708,39287,-4466,-681,-1085,-109,-683,-1757,87,609,-295,1,1,5,9,800,1,53298,1
2,32161,34790,32021,97709,39304,-4503,-635,-1211,-328,-1698,-3958,101,605,-287,1,1,5,9,840,1,53298,1
2,33246,34847,32014,97710,39320,-4539,58,-845,-336,-2736,-5717,110,624,-274,1,1,5,9,880,1,53298,1
2,33480,34918,32015,97711,39336,-4432,-136,-1384,-505,-3835,-6182,136,624,-264,1,1,5,9,920,1,53298,1
2,33015,35004,32022,97712,39352,-4372,-155,-1632,-169,-3805,-6611,158,622,-256,1,1,5,9,960,1,53298,1
1,32703,35135,32030,97713,0,-4358,118,-1750,-679,-3174,-6924,176,630,-244,1,1,5,10,0,0,53298,1
2,32473,35213,32034,97714,38503,-4248,447,-1714,480,-2815,-5791,208,628,-254,1,1,5,10,40,0,53298,1
2,32392,35274,32035,97715,38520,-4133,806,-1560,2151,-2371,-3595,206,618,-238,1,1,5,10,80,0,53298,1
2,32485,35301,32039,97716,38538,-4100,901,-1313,2081,-1458,-1133,219,623,-239,1,1,5,10,120,0,53298,1
2,32727,35277,32039,97717,38554,-4087,536,-1526,-77,-218,850,204,626,-224,1,1,5,10,160,0,53298,1
2,32972,35177,32034,97718,38572,-4182,235,-1598,-741,775,2540,206,624,-238,1,1,5,10,200,0,53298,1
2,33197,35052,32030,97719,38588,-4375,-46,-1598,-327,1313,3919,192,626,-242,1,1,5,10,240,0,53298,1
2,33174,34944,32025,97720,38604,-4307,-144,-1689,158,1772,4654,170,624,-240,1,1,5,10,280,0,53298,1
2,32958,34854,32024,97721,38620,-4291,-107,-1704,156,2592,4905,157,629,-245,1,1,5,10,320,0,53298,1
2,32561,34815,32026,97722,38636,-4509,-43,-1008,-159,3081,4915,140,624,-248,1,1,5,10,360,0,53298,1
2,32058,34792,32022,97723,38652,-4431,-154,-1328,-93,2840,4832,129,619,-255,1,1,5,10,400,0,53298,1
2,31851,34766,32025,97724,38668,-4488,-216,-1148,85,2382,4174,112,622,-264,1,1,5,10,440,0,53298,1
2,31774,34766,32023,97725,38685,-4521,-478,-1215,-612,1899,2936,101,615,-257,1,1,5,10,480,0,53298,1
2,31800,34774,32021,97726,38701,-4460,-491,-1250,-264,1130,1473,102,612,-270,1,1,5,10,520,0,53298,1
2,31924,34780,32013,97727,38718,-4421,-547,-1141,280,356,4,103,615,-275,1,1,5,10,560,0,53298,1
2,32341,34796,32016,97728,38734,-4351,-570,-1073,510,-418,-1521,104,618,-266,1,1,5,10,600,0,53298,1
2,33053,34842,32011,97729,38751,-4407,-284,-859,1162,-1585,-2656,106,614,-266,1,1,5,10,640,0,53298,1
2,33574,34903,32019,97730,38767,-4499,-180,-1070,1228,-2906,-3335,114,628,-262,1,1,5,10,680,0,53298,1
2,33277,34988,32023,97731,38785,-4459,82,-1716,673,-3229,-4128,137,623,-251,1,1,5,10,720,0,53298,1
2,32932,35108,32026,97732,38802,-4254,686,-2063,-232,-2466,-4365,147,627,-241,1,1,5,10,760,0,53298,1
2,32749,35179,32026,97733,38819,-3977,712,-2008,-535,-1215,-3228,163,627,-245,1,1,5,10,800,0,53298,1
2,32882,35261,32031,97734,38836,-3933,984,-1631,382,-153,-1008,166,624,-240,1,1,5,10,840,0,53298,1
2,33129,35286,32032,97735,38854,-4284,518,-1028,731,150,1283,156,628,-250,1,1,5,10,880,0,53298,1
2,33313,35205,32026,97736,38871,-4131,358,-1561,-687,689,2305,156,624,-244,1,1,5,10,920,0,53298,1
2,33486,35065,32025,97737,38887,-4181,325,-1542,-1478,1353,2945,149,631,-241,1,1,5,10,960,0,53298,1
1,33463,34950,32023,97738,0,-4191,188,-1861,-1199,1763,3826,126,626,-240,1,1,5,11,0,1,53298,1
2,33015,34862,32019,97739,38042,-4170,171,-1998,325,2370,4660,114,626,-260,1,1,5,11,40,1,53298,1
2,32341,34794,32021,97740,38060,-4543,290,-890,686,2903,4917,90,618,-260,1,1,5,11,80,1,53298,1
2,31817,34768,32015,97741,38078,-4531,-243,-1167,-851,2403,4342,86,610,-276,1,1,5,11,120,1,53298,1
2,31585,34749,32011,97742,38095,-4554,-510,-946,-1136,1525,2842,75,607,-273,1,1,5,11,160,1,53298,1
2,31544,34751,32014,97743,38113,-4452,-853,-1108,-1371,550,689,70,604,-274,1,1,5,11,200,1,53298,1
2,31578,34754,32008,97744,38130,-4326,-593,-1236,162,-701,-1311,79,607,-271,1,1,5,11,240,1,53298,1
2,31697,34765,32019,97745,38147,-4517,-562,-1153,898,-1660,-3166,97,605,-265,1,1,5,11,280,1,53298,1
2,32047,34789,32018,97746,38165,-4629,-593,-1164,-236,-2234,-5408,112,616,-262,1,1,5,11,320,1,53298,1
2,33212,34839,32017,97747,38182,-4585,49,-871,-238,-3122,-7045,121,629,-251,1,1,5,11,360,1,53298,1
2,33337,34945,32022,97748,38199,-4420,141,-1358,578,-4323,-6884,151,631,-247,1,1,5,11,400,1,53298,1
2,32820,35034,32028,97749,38216,-4318,329,-1773,617,-3861,-6484,171,621,-229,1,1,5,11,440,1,53298,1
2,32365,35101,32035,97750,38233,-4222,517,-1813,-569,-2710,-5792,188,628,-220,1,1,5,11,480,1,53298,1
2,32167,35139,32043,97751,38250,-4040,693,-1869,-323,-1633,-3881,208,620,-232,1,1,5,11,520,1,53298,1
2,32173,35170,32043,97752,38267,-3964,886,-1756,1111,-540,-1050,209,613,-231,1,1,5,11,560,1,53298,1
2,32453,35271,32039,97753,38285,-4142,596,-1567,695,909,1396,208,622,-238,1,1,5,11,600,1,53298,1
2,32886,35271,32032,97754,38301,-4412,524,-702,898,1244,3381,192,626,-232,1,1,5,11,640,1,53298,1
2,33144,35145,32024,97755,38318,-4220,253,-1673,-632,1508,4677,175,623,-231,1,1,5,11,680,1,53298,1
2,33245,34980,32024,97756,38334,-4219,118,-1689,-1046,2418,5426,154,622,-232,1,1,5,11,720,1,53298,1
2,33072,34877,32019,97757,38352,-4271,13,-1863,-651,3267,6198,135,631,-247,1,1,5,11,760,1,53298,1
2,32332,34815,32025,97758,38369,-4652,-69,-1118,358,3569,6653,117,617,-257,1,1,5,11,800,1,53298,1
2,31800,34770,32019,97759,38386,-4620,-247,-1179,426,3021,6171,103,611,-263,1,1,5,11,840,1,53298,1
2,31574,34753,32017,97760,38403,-4621,-415,-955,-498,2497,4627,86,606,-266,1,1,5,11,880,1,53298,1
2,31486,34750,32015,97761,38420,-4439,-691,-1112,-1410,1737,2598,79,599,-269,1,1,5,11,920,1,53298,1
2,31474,34741,32013,97762,38437,-4440,-691,-1025,-29,586,719,69,607,-275,1,1,5,11,960,1,53298,1
1,31500,34746,32016,97763,0,-4382,-251,-1079,946,-499,-1023,80,600,-278,1,1,5,12,0,0,53298,1
2,31575,34756,32015,97764,37581,-4574,-455,-1201,-280,-1214,-2915,85,613,-271,1,1,5,12,40,0,53298,1
2,31771,34769,32016,97765,37598,-4539,-464,-1261,-1540,-1751,-5074,100,608,-256,1,1,5,12,80,0,53298,1
2,32492,34802,32019,97766,37614,-4472,-263,-1101,-643,-2537,-6423,124,610,-256,1,1,5,12,120,0,53298,1
2,33299,34882,32020,97767,37631,-4390,321,-929,632,-3578,-6708,144,614,-248,1,1,5,12,160,0,53298,1
2,33121,34981,32025,97768,37649,-4391,14,-1527,196,-3817,-6463,170,618,-240,1,1,5,12,200,0,53298,1
2,32595,35115,32033,97769,37666,-4382,150,-1684,-647,-3073,-6424,196,620,-244,1,1,5,12,240,0,53298,1
2,32250,35170,32036,97770,37684,-4303,273,-1728,-563,-2302,-5570,206,622,-228,1,1,5,12,280,0,53298,1
2,32046,35197,32043,97771,37701,-4103,565,-1777,1306,-1580,-3634,218,618,-226,1,1,5,12,320,0,53298,1
2,32079,35257,32045,97772,37717,-3910,1026,-1670,2684,-484,-938,225,625,-233,1,1,5,12,360,0,53298,1
2,32305,35320,32046,97773,37734,-4168,892,-1041,1923,704,1875,223,621,-233,1,1,5,12,400,0,53298,1
2,32715,35291,32036,97774,37751,-4156,677,-1419,16,1420,4196,206,614,-236,1,1,5,12,440,0,53298,1
2,33117,35155,32033,97775,37768,-4233,348,-1661,-773,2293,5944,178,630,-230,1,1,5,12,480,0,53298,1
2,33345,34994,32024,97776,37785,-4477,30,-1644,-749,2926,7064,158,610,-236,1,1,5,12,520,0,53298,1
2,33017,34883,32024,97777,37801,-4386,-119,-2053,-317,3568,7501,129,627,-243,1,1,5,12,560,0,53298,1
2,32396,34802,32021,97778,37818,-4588,86,-1230,682,4364,7496,115,617,-265,1,1,5,12,600,0,53298,1
2,31775,34774,32021,97779,37835,-4745,-414,-1120,-739,3891,6727,91,607,-265,1,1,5,12,640,0,53298,1
2,31583,34754,32013,97780,37851,-4674,-624,-839,-873,2926,4994,78,608,-264,1,1,5,12,680,0,53298,1
2,31523,34743,32012,97781,37868,-4436,-845,-1066,-1088,1674,2559,63,591,-267,1,1,5,12,720,0,53298,1
2,31526,34742,32010,97782,37884,-4330,-625,-1185,224,304,312,70,594,-278,1,1,5,12,760,0,53298,1
2,31570,34746,32015,97783,37900,-4427,-268,-1205,1209,-807,-1442,72,600,-276,1,1,5,12,800,0,53298,1
2,31698,34757,32012,97784,37918,-4566,-433,-1363,-223,-1365,-3491,88,606,-272,1,1,5,12,840,0,53298,1
2,32150,34779,32019,97785,37935,-4650,-403,-1272,-913,-1877,-5666,89,611,-263,1,1,5,12,880,0,53298,1
2,32837,34829,32018,97786,37952,-4523,66,-1089,-431,-2774,-6956,124,624,-270,1,1,5,12,920,0,53298,1
2,33061,34885,32022,97787,37968,-4308,-30,-1414,320,-3524,-7068,140,610,-264,1,1,5,12,960,0,53298,1
1,32860,34987,32023,97788,0,-4221,-146,-1601,-16,-3164,-7284,171,621,-257,1,1,5,13,0,1,53298,1
2,32702,35092,32031,97789,37120,-4187,109,-1698,-328,-2530,-7150,190,626,-244,1,1,5,13,40,1,53298,1
2,32490,35180,32035,97790,37136,-4119,632,-1573,1522,-2299,-5465,211,619,-239,1,1,5,13,80,1,53298,1
2,32422,35235,32042,97791,37153,-4155,1103,-1592,3117,-2014,-2631,229,621,-249,1,1,5,13,120,1,53298,1
2,32530,35255,32044,97792,37170,-4172,1056,-1436,1858,-820,128,228,622,-234,1,1,5,13,160,1,53298,1
2,32813,35230,32040,97793,37186,-4150,722,-1374,-463,441,2374,220,626,-242,1,1,5,13,200,1,53298,1
2,33054,35109,32029,97794,37203,-4118,499,-1634,-1144,1286,4445,194,630,-244,1,1,5,13,240,1,53298,1
2,33184,34975,32025,97795,37219,-4172,357,-1636,-302,1990,6355,170,620,-230,1,1,5,13,280,1,53298,1
2,32933,34847,32020,97796,37237,-4291,165,-2036,146,2905,7696,136,614,-242,1,1,5,13,320,1,53298,1
2,32367,34781,32018,97797,37254,-4597,204,-1406,686,3942,8315,114,616,-244,1,1,5,13,360,1,53298,1
2,31757,34759,32017,97798,37271,-4781,-234,-1247,-673,3794,8008,95,605,-253,1,1,5,13,400,1,53298,1
2,31560,34732,32010,97799,37287,-4718,-502,-1116,-944,3182,6680,72,604,-268,1,1,5,13,440,1,53298,1
2,31490,34728,32010,97800,37303,-4512,-724,-1251,-1072,2304,4455,66,600,-260,1,1,5,13,480,1,53298,1
2,31470,34723,32008,97801,37320,-4441,-725,-1223,-411,1435,2146,63,599,-275,1,1,5,13,520,1,53298,1
2,31490,34726,32010,97802,37336,-4367,-447,-1194,528,399,-19,58,584,-278,1,1,5,13,560,1,53298,1
2,31545,34734,32012,97803,37353,-4538,-551,-1339,352,-496,-2169,61,587,-277,1,1,5,13,600,1,53298,1
2,31736,34750,32011,97804,37369,-4509,-473,-1332,58,-1314,-4445,80,590,-276,1,1,5,13,640,1,53298,1
2,32134,34775,32015,97805,37386,-4322,-322,-1324,197,-2050,-6244,91,599,-267,1,1,5,13,680,1,53298,1
2,32943,34825,32019,97806,37402,-4242,407,-982,791,-2813,-7042,115,617,-253,1,1,5,13,720,1,53298,1
2,32995,34904,32012,97807,37419,-4232,40,-1408,460,-3221,-6782,135,617,-261,1,1,5,13,760,1,53298,1
2,32817,34990,32021,97808,37436,-4328,16,-1458,-143,-2885,-6830,171,619,-257,1,1,5,13,800,1,53298,1
2,32508,35075,32024,97809,37453,-4395,143,-1524,-863,-2556,-6642,185,621,-255,1,1,5,13,840,1,53298,1
2,32284,35146,32031,97810,37470,-4391,296,-1574,306,-2474,-5480,209,627,-249,1,1,5,13,880,1,53298,1
2,32165,35188,32033,97811,37487,-4302,619,-1567,1632,-2124,-3647,218,626,-234,1,1,5,13,920,1,53298,1
2,32200,35228,32036,97812,37503,-4168,886,-1498,1729,-1213,-1431,234,618,-236,1,1,5,13,960,1,53298,1
1,32395,35272,32033,97813,0,-4178,696,-1202,800,-244,943,227,623,-243,1,1,5,14,0,0,53298,1
2,32758,35235,32026,97814,36659,-4075,548,-1368,-4,319,3139,212,624,-238,1,1,5,14,40,0,53298,1
2,33097,35110,32026,97815,36676,-4108,430,-1589,-399,1027,4981,194,610,-234,1,1,5,14,80,0,53298,1
2,33265,34960,32023,97816,36694,-4233,367,-1637,-365,1734,6560,168,608,-234,1,1,5,14,120,0,53298,1
2,32882,34850,32019,97817,36710,-4384,17,-2103,-372,2720,7653,139,613,-235,1,1,5,14,160,0,53298,1
2,32220,34775,32015,97818,36727,-4628,47,-1422,33,3784,7840,117,613,-243,1,1,5,14,200,0,53298,1
2,31730,34745,32021,97819,36744,-4662,-326,-1346,-906,3572,7260,79,605,-243,1,1,5,14,240,0,53298,1
2,31511,34726,32010,97820,36760,-4586,-493,-1145,-846,3038,5972,74,590,-256,1,1,5,14,280,0,53298,1
2,31456,34713,32000,97821,36777,-4434,-716,-1264,-979,2441,3942,61,587,-251,1,1,5,14,320,0,53298,1
2,31443,34708,31998,97822,36794,-4482,-685,-1089,-192,1521,1691,63,587,-267,1,1,5,14,360,0,53298,1
2,31461,34711,32001,97823,36811,-4375,-332,-1093,572,215,-403,55,589,-267,1,1,5,14,400,0,53298,1
2,31518,34723,32001,97824,36827,-4458,-382,-1124,410,-858,-2252,74,600,-270,1,1,5,14,440,0,53298,1
2,31725,34731,32004,97825,36844,-4501,-497,-1280,-830,-1490,-4365,78,598,-262,1,1,5,14,480,0,53298,1
2,32227,34772,32009,97826,36860,-4548,-443,-1287,-807,-2020,-6269,100,606,-274,1,1,5,14,520,0,53298,1
2,33223,34838,32009,97827,36877,-4550,322,-884,50,-2825,-7369,125,619,-261,1,1,5,14,560,0,53298,1
2,33060,34937,32009,97828,36893,-4460,-17,-1421,287,-3630,-7166,137,625,-237,1,1,5,14,600,0,53298,1
2,32599,35072,32021,97829,36909,-4359,9,-1626,-660,-3147,-7423,173,625,-245,1,1,5,14,640,0,53298,1
2,32238,35138,32022,97830,36925,-4241,258,-1672,-1245,-2422,-7186,188,620,-236,1,1,5,14,680,0,53298,1
2,31982,35176,32032,97831,36942,-4069,720,-1692,504,-1967,-5281,220,620,-240,1,1,5,14,720,0,53298,1
2,31959,35202,32037,97832,36958,-3978,1208,-1581,2969,-1471,-2022,222,618,-238,1,1,5,14,760,0,53298,1
2,32136,35245,32032,97833,36973,-4198,873,-1170,1973,-331,963,223,625,-227,1,1,5,14,800,0,53298,1
2,32387,35249,32032,97834,36989,-4132,551,-1356,-876,743,2862,202,622,-222,1,1,5,14,840,0,53298,1
2,32714,35183,32022,97835,37005,-4073,405,-1602,-1223,1454,4598,185,623,-225,1,1,5,14,880,0,53298,1
2,33110,35047,32022,97836,37021,-4241,276,-1637,-301,2088,6250,168,618,-244,1,1,5,14,920,0,53298,1
2,33121,34889,32015,97837,37038,-4320,162,-1902,436,2726,7423,140,610,-242,1,1,5,14,960,0,53298,1
1,32573,34806,32018,97838,0,-4482,101,-1746,908,3781,7938,107,611,-249,1,1,5,15,0,1,53298,1
2,31964,34753,32014,97839,36199,-4849,-67,-1003,141,3705,7638,96,610,-254,1,1,5,15,40,1,53298,1
2,31640,34728,32008,97840,36216,-4663,-346,-1096,-725,3218,6517,71,589,-263,1,1,5,15,80,1,53298,1
2,31506,34718,32000,97841,36232,-4447,-644,-1161,-1085,2343,4596,67,587,-265,1,1,5,15,120,1,53298,1
2,31475,34718,32003,97842,36249,-4425,-710,-1158,-691,1438,2401,65,589,-277,1,1,5,15,160,1,53298,1
2,31477,34714,32004,97843,36266,-4369,-537,-1304,512,171,256,58,582,-278,1,1,5,15,200,1,53298,1
2,31519,34717,32003,97844,36283,-4366,-220,-1209,1235,-861,-1593,56,586,-252,1,1,5,15,240,1,53298,1
2,31614,34733,32005,97845,36299,-4426,-279,-1273,41,-1502,-3383,74,596,-272,1,1,5,15,280,1,53298,1
2,31828,34750,32005,97846,36316,-4472,-292,-1277,-694,-2124,-5151,81,599,-261,1,1,5,15,320,1,53298,1
2,32502,34780,32012,97847,36332,-4547,-208,-1255,-765,-2631,-6610,100,606,-256,1,1,5,15,360,1,53298,1
2,33293,34858,32016,97848,36347,-4550,301,-1079,-660,-3160,-7493,136,618,-236,1,1,5,15,400,1,53298,1
2,33003,34947,32013,97849,36364,-4447,83,-1433,-937,-3466,-7423,153,619,-237,1,1,5,15,440,1,53298,1
2,32602,35052,32020,97850,36380,-4320,83,-1574,-782,-3067,-7160,168,628,-240,1,1,5,15,480,1,53298,1
2,32314,35111,32030,97851,36397,-4232,245,-1682,-660,-2392,-6532,199,617,-235,1,1,5,15,520,1,53298,1
2,32157,35155,32031,97852,36414,-4089,669,-1678,935,-1769,-4735,220,614,-238,1,1,5,15,560,1,53298,1
2,32205,35212,32035,97853,36431,-3999,1100,-1526,2282,-1015,-1850,226,624,-222,1,1,5,15,600,1,53298,1
2,32397,35234,32036,97854,36447,-4173,869,-1138,1449,-72,1117,230,618,-234,1,1,5,15,640,1,53298,1
2,32681,35191,32022,97855,36463,-4136,603,-1446,-562,855,3323,205,619,-235,1,1,5,15,680,1,53298,1
2,32923,35070,32022,97856,36480,-4148,362,-1629,-1120,1827,5031,199,619,-235,1,1,5,15,720,1,53298,1
2,33065,34949,32015,97857,36497,-4219,241,-1669,-245,2511,6549,166,612,-232,1,1,5,15,760,1,53298,1
2,32888,34835,32011,97858,36513,-4338,88,-2003,675,3281,7682,143,625,-235,1,1,5,15,800,1,53298,1
2,32370,34778,32010,97859,36531,-4484,198,-1630,1640,4241,8054,115,607,-239,1,1,5,15,840,1,53298,1
2,31740,34744,32015,97860,36548,-4700,62,-1116,871,4166,7908,92,606,-262,1,1,5,15,880,1,53298,1
2,31527,34718,32004,97861,36565,-4609,-182,-1206,-150,3755,7061,66,604,-266,1,1,5,15,920,1,53298,1
2,31446,34710,32001,97862,36582,-4442,-390,-1383,-689,3206,5410,45,595,-279,1,1,5,15,960,1,53298,1
1,31409,34706,32002,97863,0,-4444,-419,-1162,-244,2468,3527,50,584,-290,1,1,5,16,0,0,53298,1
2,31400,34703,31994,97864,35739,-4495,-529,-1214,-40,1101,1553,42,580,-284,1,1,5,16,40,0,53298,1
2,31410,34704,31993,97865,35755,-4284,-102,-1198,14,-210,-714,44,582,-284,1,1,5,16,80,0,53298,1
2,31431,34706,31994,97866,35771,-4259,-52,-1287,-536,-1044,-2562,56,592,-280,1,1,5,16,120,0,53298,1
2,31480,34718,32004,97867,35787,-4384,-107,-1276,-804,-1725,-4011,63,593,-277,1,1,5,16,160,0,53298,1
2,31643,34730,32006,97868,35804,-4498,-417,-1365,-1140,-2313,-5674,88,600,-278,1,1,5,16,200,0,53298,1
2,32050,34758,32011,97869,35821,-4514,-419,-1425,-1494,-2677,-7618,96,606,-266,1,1,5,16,240,0,53298,1
2,32984,34809,32010,97870,35839,-4460,509,-680,-514,-3480,-8569,132,618,-254,1,1,5,16,280,0,53298,1
2,33233,34896,32014,97871,35856,-4405,-253,-1409,-964,-4442,-8154,156,618,-244,1,1,5,16,320,0,53298,1
2,32970,35070,32018,97872,35873,-4385,-346,-1694,-801,-4128,-8540,191,621,-241,1,1,5,16,360,0,53298,1
2,32560,35224,32031,97873,35889,-4399,-105,-1597,110,-3355,-8528,217,615,-241,1,1,5,16,400,0,53298,1
2,32029,35271,32043,97874,35906,-4416,415,-1446,2182,-3089,-7082,243,617,-233,1,1,5,16,440,0,53298,1
2,31810,35197,32062,97875,35923,-4293,996,-1395,3763,-2996,-4431,261,613,-239,1,1,5,16,480,0,53298,1
2,31750,35162,32065,97876,35939,-4090,921,-1625,1593,-1630,-1802,270,610,-226,1,1,5,16,520,0,53298,1
2,31821,35224,32063,97877,35955,-4080,530,-1477,-672,217,699,255,613,-215,1,1,5,16,560,0,53298,1
2,32054,35326,32052,97878,35972,-4049,316,-1458,-689,1297,3262,251,609,-227,1,1,5,16,600,0,53298,1
2,32807,35410,32039,97879,35989,-4256,229,-1341,431,1757,5605,232,614,-242,1,1,5,16,640,0,53298,1
2,33714,35291,32026,97880,36006,-4351,219,-1300,675,1938,7255,195,623,-229,1,1,5,16,680,0,53298,1
2,34718,35044,32010,97881,36023,-4447,49,-1598,-293,2608,8138,166,622,-214,1,1,5,16,720,0,53298,1
2,34900,34876,32003,97882,36040,-4371,-328,-1927,-945,3728,8271,146,622,-236,1,1,5,16,760,0,53298,1
2,33195,34780,32010,97883,36057,-4665,-51,-1256,-200,4799,7953,122,614,-240,1,1,5,16,800,0,53298,1
2,31863,34733,32005,97884,36074,-4742,-279,-1322,-476,3986,7444,90,614,-252,1,1,5,16,840,0,53298,1
2,31563,34707,32004,97885,36089,-4564,-123,-996,434,3121,6461,75,597,-263,1,1,5,16,880,0,53298,1
2,31469,34695,31990,97886,36105,-4242,-309,-1323,-710,2687,4812,59,587,-267,1,1,5,16,920,0,53298,1
2,31426,34698,31989,97887,36122,-4357,-320,-992,-621,2126,3158,61,591,-267,1,1,5,16,960,0,53298,1
1,31418,34687,31993,97888,0,-4377,-412,-1069,63,970,1462,48,586,-268,1,1,5,17,0,0,53298,1
2,31424,34690,31986,97889,35278,-4300,-62,-1355,842,-407,-279,56,592,-268,1,1,5,17,40,0,53298,1
2,31456,34694,31991,97890,35293,-4289,171,-1189,642,-1435,-1534,58,592,-262,1,1,5,17,80,0,53298,1
2,31505,34708,31998,97891,35308,-4424,51,-1219,-450,-2063,-2631,58,592,-262,1,1,5,17,120,0,53298,1
2,31628,34715,32000,97892,35324,-4698,-268,-1231,-1392,-2612,-4103,71,603,-257,1,1,5,17,160,0,53298,1
2,31933,34745,32003,97893,35339,-4760,-652,-1364,-2838,-2860,-6377,91,599,-245,1,1,5,17,200,0,53298,1
2,33050,34792,32009,97894,35355,-4609,-467,-1260,-2995,-3070,-8662,123,615,-235,1,1,5,17,240,0,53298,1
2,34610,34893,32000,97895,35371,-4395,407,-1050,-736,-4304,-8765,141,613,-233,1,1,5,17,280,0,53298,1
2,33151,35125,32012,97896,35387,-4434,-323,-1681,-1938,-3773,-8727,173,613,-217,1,1,5,17,320,0,53298,1
2,32335,35255,32034,97897,35402,-4442,-256,-1866,-1213,-2711,-9159,204,610,-230,1,1,5,17,360,0,53298,1
2,31750,35192,32047,97898,35418,-4265,623,-1465,2214,-2201,-7866,234,614,-230,1,1,5,17,400,0,53298,1
2,31588,35030,32062,97899,35435,-4154,1358,-1226,5719,-2399,-4235,254,618,-224,1,1,5,17,440,0,53298,1
2,31545,34986,32070,97900,35451,-4027,1274,-1714,2289,-989,-1058,258,618,-222,1,1,5,17,480,0,53298,1
2,31585,35046,32061,97901,35467,-4154,708,-1306,-864,1217,1883,256,612,-234,1,1,5,17,520,0,53298,1
