cap1_mean,cap1_std,cap1_freq,cap1_skew,cap1_power,cap2_mean,cap2_std,cap2_freq,cap2_skew,cap2_power,cap3_mean,cap3_std,cap3_freq,cap3_skew,cap3_power,accX_mean,accX_std,accX_freq,accX_skew,accX_power,accY_mean,accY_std,accY_freq,accY_skew,accY_power,accZ_mean,accZ_std,accZ_freq,accZ_skew,accZ_power,gyroX_mean,gyroX_std,gyroX_freq,gyroX_skew,gyroX_power,gyroY_mean,gyroY_std,gyroY_freq,gyroY_skew,gyroY_power,gyroZ_mean,gyroZ_std,gyroZ_freq,gyroZ_skew,gyroZ_power,label
0.6284917696863547,0.01612685076407208,-0.13817284440208333,-1.3574405932507867,30.81852979880277,0.6285206647439586,0.01612239110306778,-0.13613458038149373,-1.3589821876979884,30.820923892391082,0.6284406282778586,0.016123200020922747,-0.14187746342033347,-1.357286980774886,30.813438546818517,0.5000533184918425,0.0003707476898125575,0.029209376397958176,0.5441276368617355,18.78143442914894,0.4572776813436954,0.0002388255848631682,-0.04349973151967229,-1.896649134281266,15.700388932409847,0.4530588170119428,0.0010644338780181311,0.11880014135997197,2.349727737813351,15.473439982392923,0.5170123094125337,5.899085980539382e-05,0.0133949498667989,-2.3617405665737885,20.05199492993171,0.5731875116181525,0.0001472571648651639,-0.07520109366889416,-2.0606535220325894,24.65169129082575,0.5086609712497854,0.00011552559664999738,-0.04719631190608514,0.5067972575238964,19.413747669610217,1
0.627531743640243,0.006285573380879983,-0.16575443831293335,0.6532760460374657,29.999839125897385,0.6272352370855193,0.005217598315974471,-0.35290552899522354,0.7693347539458462,29.892905473511675,0.6260847616617429,0.005298145834773536,-0.4310321966405123,0.7888399854985502,29.790722450651344,0.5005364902815639,0.0003639766459064936,-0.007033959500738929,-0.2949424532430224,18.81719262955104,0.45856609769968903,0.00038376116376690085,-0.021113077254678814,0.16682025123037916,15.799613273082809,0.4499131086293098,0.0021453508433659156,0.10320252894389564,-0.34431660286598836,15.34039136114576,0.5172698309593833,0.00035575981991778724,0.0821586306885227,-0.8442981090747979,20.093932078230086,0.5743534765927204,0.000674059402375261,0.04386318136658418,-1.2423143384076878,24.79102410133662,0.5092156625555607,0.0005298068725014182,0.05662034204473143,-0.7741859541442979,19.48675003295749,1
0.6317093264154348,0.0026965464495500844,0.03950466789873319,0.6055458901394811,30.128794918284882,0.6327512613861966,0.0012298086734626435,0.027621048785856583,1.819783336376125,30.11906775077296,0.6318281560168479,0.002436148971244064,-0.04748450070852461,1.511348191330331,30.120786429045832,0.4994130682112742,0.0008414287350389055,-0.010223924175770394,-1.1857645809137802,18.768271678907794,0.45659444641532654,0.0015597099289746444,0.01767490596809035,-0.7547882350665418,15.751305172043015,0.4528229797467859,0.002960969169623038,0.014736018708715104,0.19237469723407602,15.597760542558964,0.5148452986697816,0.0039265904420351634,0.1897361424723792,-3.2440833849660993,20.170493809888843,0.57487398287674,0.002876035086118509,-0.21869945187137185,0.619166751572774,24.998833810515247,0.5094420311812012,0.002459284927953236,-0.15444255793877898,1.2591750858258832,19.646825819720632,1
0.6259622213145438,0.0019513477813554838,0.022349859619074763,0.2635344269865478,29.53155242429815,0.625806931143941,0.0003804149533562009,0.05130061745590697,-1.4608074781322837,29.400724336633154,0.6263721570677518,0.0017155077322850946,0.04517644675114896,1.5963973326705552,29.552603508417217,0.5008096971468733,0.0011923647018064886,-0.09291764315565892,-0.7520646186896149,18.8990114446594,0.4592278230166333,0.0018060850494779294,-0.016698976526030085,-0.5377086766108778,15.950414801106083,0.4495800174233358,0.003983500276065863,0.06559596873575768,-0.19383964210991314,15.453943425406402,0.5188776290286458,0.004500551809229895,-0.02874866636182516,-2.583029680733086,20.52559037686218,0.5763971847638666,0.007415646925278033,0.11204315954247746,-0.5626464632782574,25.466286467748905,0.5097153515873829,0.004114998576919048,0.145198540504633,0.2521942530485345,19.79024036798071,1
0.6297259650046905,0.001716708950777603,-0.019826329213896043,0.24260247001475457,29.868645787439196,0.6297088142482746,0.00013173405401364427,-0.029142328540407547,1.3225115433075827,29.74973762564462,0.6293704506797966,0.0014970789991903023,-0.0316324003604902,1.9663619840896582,29.81882116010686,0.5017358684002358,0.0013083845270070312,0.03232390578794497,-0.6986164414236858,18.97723657794892,0.4592510153404743,0.0019768652417597376,0.05785269114057506,-0.4399664827956572,15.964650159734457,0.44778128168411724,0.004451388073474607,-0.10829683939908036,-0.2012784178874363,15.367508434437427,0.5169814619586779,0.00495896853929801,0.0543236143367693,-2.2532705145294405,20.41220107257795,0.5698134322692662,0.008091399128697246,-0.05624831036179617,-0.3757909453715156,24.950314605109714,0.5052284408065664,0.004833014428324009,-0.06681858065388074,0.21159854758163826,19.501826372683528,1
0.6279891456115343,0.0016581784483583868,0.016932925089697903,0.3596244987980357,29.700482730621374,0.6280563729237133,7.048126486186443e-05,0.016817972717268814,0.901693281815807,29.58932618135655,0.6282167811621358,0.0014409733191367063,0.018650331451745217,2.142482727524613,29.70585633564472,0.5007483028054726,0.0013744850224435728,0.011178178420721108,-0.6276348711077401,18.907876598852923,0.45797563541709346,0.0020324320020129213,-0.0072008251484199925,-0.3586083618344356,15.881026165825748,0.4505915427320507,0.004702973739314216,-0.03614006033211298,-0.2640667241464192,15.575475435332963,0.5169974648056962,0.0051070322031199645,-0.044822714262777896,-2.1544637150645882,20.424398779194654,0.5733406299903746,0.008959879902255032,-0.07669647057591317,-0.3111205257892444,25.31699196259886,0.5091501234745631,0.005208285901864513,-0.06185379415640213,0.09573085003507152,19.827951774300193,1
0.6287669606694528,0.0016443341507715345,-0.008332910321500964,0.3083879589916678,29.77277253936969,0.6287086062971258,5.637117297349961e-05,-0.009823045581386358,1.4888352715491326,29.6497598392056,0.628656092823764,0.0014280960998164038,-0.004523043433249274,2.1400370385059815,29.746315339719487,0.5012316323169896,0.0013821369968897883,-0.004892320416988005,-0.6606763723473394,18.944764330406382,0.4588995299595991,0.0020583826666623847,-0.01689536480790199,-0.41059537740314295,15.946478712118594,0.44893855201989036,0.004814725130764949,0.05014549814264596,-0.18654882763467515,15.472226421405288,0.517653013063505,0.005183349279317103,0.01997183191056201,-2.1331453500838795,20.48091599169885,0.573547789091137,0.009198848492572714,0.07662523156616896,-0.30485031251363903,25.352494766300236,0.5084357337975217,0.005426380651318949,0.05734932110702551,0.10612818699805648,19.789569323364432,1
0.628491985454753,0.0017376641447336663,-0.04467125210302636,0.313644213381904,29.753750330274602,0.6284952281738369,6.854240402677331e-05,-0.015371409822540372,1.196188100900838,29.630541025694217,0.6286024259976964,0.0015013174383665298,-0.03398737398317897,2.0072920569321364,29.74667323820334,0.5000873407951805,0.0014253049841958583,-0.023392224713156773,-0.5629321669950972,18.862023700600123,0.4583686431107125,0.002080991331591793,-0.006103355971651514,-0.36965212403405123,15.911629332574478,0.4490824162832876,0.005166210208971688,-0.08508820150481017,-0.179268276017797,15.507925801576599,0.5168738666145223,0.0052497067004970005,-0.015154688525104765,-2.0661850669968844,20.425372845015293,0.5695246791132219,0.009841231601355877,-0.0698284288186275,-0.23807235737759144,25.05512814742672,0.5067967536313146,0.005520260796390369,-0.028507116628967266,0.1617884653338242,19.671720510775838,1
0.6283995995687824,0.001763776241954387,-0.00940027582673264,0.3086342643446371,29.746973697270068,0.628479904841729,7.469835562236436e-05,-0.004336464357809433,0.9763373862164471,29.62955198755621,0.6283842817138937,0.0015244904730746793,-0.005593941704132743,1.9683247433150293,29.727822707888986,0.49863259058514076,0.0038102577168702186,-0.07514186634548509,-0.9614970821800145,18.929543600572043,0.4565573350995349,0.003774992857443044,0.05133380099271126,-1.011272976581231,15.91269448893996,0.45639085972684956,0.008897841927529534,0.08611202674235574,1.2381758252273325,16.280386565803155,0.518555229311945,0.007123988929084383,0.2563523391315025,-1.249750270191581,20.69463961925953,0.5777099682628734,0.01503138920493695,-0.35745561446905005,0.0006204640982199418,26.143483358437095,0.5112205854910666,0.009119306942524146,-0.22852388014519698,0.8390727888546843,20.275815240983952,1
0.6286527797551881,0.0017655807487369356,0.0001926052640687237,0.2897604208978442,29.77097678745091,0.6285815243715966,7.502934118003356e-05,0.0011784479974418227,0.9355931856280439,29.639157129846346,0.6285954488672492,0.0015268067240165435,-6.457921082492213e-05,1.9474978269709557,29.747901572823597,0.5012538681730183,0.004364257508100523,-0.05294660834231357,-0.7353090612453064,19.167113082480462,0.4595195587807311,0.003996976976513636,-0.02195247889962046,-1.006823107306776,16.132643163914835,0.4482736863847014,0.01145066144123245,0.06874852386185293,0.5152303942440277,15.918546289520918,0.5190738785764677,0.008050882099660987,-0.029660332473972206,-1.0282034958159374,20.80359213190623,0.5760299654982707,0.023162344311398856,0.17663114263616075,-0.7378809109922165,26.599802565438935,0.5093976922527623,0.012403211311938967,0.1496418041427603,0.24654281914431225,20.37928830251649,1
0.6284133007794052,0.001766727704477121,0.0014543823069624873,0.3069532085387243,29.748483594866354,0.6284729301432186,7.521187669251125e-05,0.0009897737846631394,0.9701518526018115,29.628932473085463,0.6284444659685097,0.0015274351121693317,0.0011661675299022844,1.958156423149697,29.733713708783934,0.5012852543413366,0.004528787040595928,0.04384243042006958,-0.7023148369855989,19.181648207508488,0.4584616269169701,0.0041186709131451685,-0.013668346273222554,-0.9309800782533697,16.068811399224373,0.44992015837026506,0.011908732782143846,0.00792407782298038,0.464579284251978,16.063357393972975,0.5159861459041633,0.008287003470561797,0.0026807313509573105,-0.9062610340892479,20.581365964199005,0.5708026932409869,0.02399093706976875,-0.08590994359221071,-0.6126233490902053,26.211507939000207,0.5064058286332935,0.01307879487032123,-0.12434525298219073,0.2721713643610539,20.20134556593672,1
0.6285432912215412,0.0017678829788571394,-0.04974842724678519,0.2971857698481047,29.760823510905965,0.628502307497016,7.50063097412225e-05,-0.004186069922076263,0.9636194755630856,29.631686756601383,0.6285097984133932,0.0015270512350586867,-0.023672965639595644,1.9537409360964437,29.739844294017644,0.49990275085867475,0.004433663190878454,-0.026798153806286085,-0.6729125632182863,19.070798099830267,0.45801333166651925,0.004022685753864597,-0.10423482347758628,-0.9111153266404706,16.03089464460585,0.4514752936005535,0.010899384490826959,0.20318028386538112,0.5148952587736871,16.093800007199146,0.5172816054641917,0.008415291978714639,-0.07585361719219341,-0.9195890693098174,20.691251057795753,0.577594768895444,0.02402447067779484,-0.037080436065361266,-0.724528561196685,26.798989609310425,0.5116674495920945,0.013286630050831081,0.034462903588222904,0.16113878950384747,20.6184790466674,1
0.6275806859237087,0.0006570170610102017,-0.08126135715465521,-0.8545263594448274,29.587933063350206,0.6286042525986179,6.18714443042763e-05,-0.041084830357485,1.4427896485065725,29.64032646575854,0.6278022640136909,0.0008098880587255407,-0.1291119520418108,0.3409356204969474,29.620107918899382,0.5001457516077036,0.0041755806098237565,0.04620540140811363,-0.8102565585693319,19.069925928969557,0.4590785577903236,0.003866270252581513,-0.16936462448919593,-1.0253614969741898,16.092588165404294,0.44841277677897673,0.010580470567411092,0.0970397286178814,0.6241024961449912,15.863506200385853,0.5147870076547112,0.007898007392155999,-0.07727715876278765,-0.9604666351214235,20.45987729077642,0.5717964755097313,0.02408496329647992,0.1619295216905211,-0.6158918000624285,26.303627989340836,0.5080841340403986,0.012959793828383795,0.07134671963502776,0.28463607224169085,20.320236288069033,1
0.6289498870880176,0.0002089732083406123,-0.047979761284324685,0.4149315902863648,29.683811052519463,0.6287261367404801,2.6564040392792e-05,-0.008263796200801754,-0.15275885323280228,29.649207365534725,0.6300013321582881,0.0002536918383410823,-0.05332740065638131,0.9733465520450704,29.78639908512856,0.4982721073320609,0.005251292215187581,-0.22068689250646029,-0.6113436938407446,19.009227594808845,0.4586380521982241,0.003096925150507405,-0.15879736006179201,-1.1822209138867614,16.005337180451114,0.44867751957069646,0.00940421828874088,0.14886040541849185,0.735961247861482,15.794275895975284,0.5150715628115369,0.004597997462020927,-0.16513622812440482,0.09827176939526693,20.237655423473463,0.5826774995577715,0.020386028145350135,0.30140096352665435,-0.6929917640097593,26.972046219573162,0.5161995547356378,0.012870445038310606,0.44017583792113474,0.5949777672091556,20.9370614560303,1
0.6284684121999269,0.0001492447106332526,0.030161225829433813,0.07276907990686596,29.633984993569136,0.6284172680515596,2.4433283664685648e-05,0.006347642728095626,-0.12288365902357304,29.619927771895114,0.6278820283070116,0.00014019371184533308,0.03630537503785236,-0.043386011711158294,29.578062444996064,0.5041011203441337,0.005302175551983928,-0.013959323021542291,-0.7433900332751642,19.45120645576261,0.46071295288468245,0.004013022843364504,0.053418484612962724,-1.1517004872083183,16.216195562088245,0.4448598083652337,0.012814080731905991,-0.05382101695955302,0.7923606639500093,15.790760656567471,0.5176693658763438,0.004850576838179601,0.1561850629312615,0.1027498971754461,20.45756061353648,0.5669022500298383,0.028021066834887583,0.369580219630853,-0.8169536159061301,26.176921027448685,0.5010377530931541,0.016346290925964044,0.1785971929628842,0.20988237929723916,20.03753778036908,1
0.6283578253213822,0.0001319512670483381,0.0055539965217098475,0.3207118603413088,29.62228114195782,0.6285607628402158,2.3658106178985583e-05,0.0007501979032509265,-0.1731449120848789,29.633398143527796,0.6286872728133016,0.00011161411235759132,-0.0034007508479640958,0.3835202480405476,29.651835969121468,0.49933395279009185,0.005462734215034318,0.1031919081938793,-0.5504975062196175,19.10432206258587,0.4573315616313421,0.004060233265566348,0.019510274143490935,-1.0425438120074937,15.986869056464064,0.4526027722267087,0.012846260091999429,-0.09275752430314765,0.6352793355485253,16.31431845385561,0.5155474197460956,0.0050694266838795885,-0.09239006081846046,0.2973535254787797,20.309323225121354,0.5724044960871443,0.029979545131175216,-0.2796182444163926,-0.7640637326826761,26.792004375265282,0.5102574540509146,0.017306997152417063,-0.1520700006230526,0.14026139315855807,20.80791799536795,1
0.6286457538977787,0.00013056215865911054,-0.002266369385940381,0.2539398381655929,29.649322891768765,0.6285011591141197,2.3560166871089986e-05,0.0009629102306811799,-0.13761937354004955,29.627771477932864,0.6284436735767203,0.00010754707495686093,0.006672255345027134,0.4434851553138169,29.62856729794206,0.5012873431448833,0.00556519159462348,-0.03768629817064495,-0.5959590494556509,19.258499207796334,0.45936776980542304,0.004099366084076687,-0.065435664298377,-1.1196306258064568,16.129759185422284,0.44754115138503875,0.012924464707586033,0.09914470953310117,0.7476658103670955,15.97839155208983,0.5195223843936478,0.005151135362496129,0.029453658755950185,0.1338543878660497,20.623947108279303,0.5744764112652566,0.029467255642485438,0.12023517233244063,-0.8286537613127904,26.932312950059544,0.5080245189042745,0.01715950470377419,0.1265033235355978,0.18749244497940892,20.62647173367326,1
0.6286539928792485,0.00012682903144182821,0.02868700276432068,0.3071053065382322,29.649823555553358,0.6285939532159549,2.2741070956355993e-05,0.008788078069896454,-0.1515691934002799,29.636459690725427,0.6286682380154549,0.00010152197272806774,0.021752343922005535,0.4774728770517909,29.649294137691125,0.5015973732817245,0.005691107059062451,-0.02060789704176108,-0.5919740558434045,19.29113628860504,0.45861370583413097,0.004148388355427482,0.019914083985451192,-1.0715647066738727,16.08147057672025,0.4496820131960779,0.013322570746456588,-0.18439741168919843,0.6708980949137354,16.15191370964362,0.5157822613405384,0.005181193052577777,-0.014777129982785686,0.27822418719863445,20.335758869407712,0.5685535787819781,0.030356862719816934,-0.05714631263684833,-0.6952068061511792,26.490395737201077,0.5054794414504787,0.017738832874046567,-0.057948767592604644,0.2343509286761178,20.47588356236103,1
0.628700156503459,1.3435201008818388e-05,-0.017360328686445214,1.2721253371535541,29.645785713935194,0.6285642902445544,3.7098541545028388e-06,-0.00702868964189618,0.41553159533575146,29.63225455200547,0.6287594149623214,9.557864432813387e-06,-0.012281383708735993,1.3593854375521022,29.651087424750074,0.4966775293204007,0.006443915272401169,-0.2528419036475904,-1.1358055521866703,18.978492340044,0.4606068445524089,0.004388592507321559,-0.179676392456163,-0.9854971463039052,16.236655739181327,0.44772862976568545,0.0131642154797108,0.0066054475937887824,0.7301320916251359,16.008721388887974,0.5187427125353868,0.005398833563785996,-0.10459906030024291,0.1887365650303253,20.58156381936298,0.5753423289998224,0.030087975899792053,0.05818352497177792,-0.8022989665719858,27.05291988200512,0.5125219738943685,0.01836475034587595,0.2218578541232954,0.12231471054857249,21.059899554938305,1
0.6286683227068759,6.737268755224911e-06,-0.006703213733463276,0.3873391430452362,29.64228805601863,0.6285672005271012,2.767292179612322e-06,-0.0023656878025209993,-0.5277884513310653,29.632459198007066,0.6285730643380927,5.074318887522003e-06,-0.0066358946568707555,0.8388114008262271,29.63318279045118,0.5032519926620841,0.005299306122373157,0.007780112027352848,-0.6856654187643427,19.386841261932492,0.46057840849304615,0.004166986448055034,0.005282704573002284,-0.6307820657131322,16.218292274905124,0.4466371400514521,0.014874401771461878,0.05257959330819484,0.8013608448176286,16.06206084658871,0.5184132525912616,0.0059722545509109624,0.12283724937602297,-0.6789892356700512,20.598369371436245,0.5748188016770925,0.02769286177621729,0.25515594779730116,-0.7290258439477176,26.83052087855173,0.5068799785370921,0.017816103246232774,0.21569772956068067,-0.17329699856566647,20.587940088353445,1
0.6282038733092207,0.000303087104401057,-0.12287080923925331,-4.833167285921911,29.620436428778742,0.6290091737376128,2.312862702175904e-05,-0.0007790100885382012,6.317850098675091,29.67565206685519,0.6292021774877792,5.990292301217084e-05,-0.01746280055739735,5.662736632418849,29.69658632795511,0.5007829685708155,0.00534897956957303,0.05582966308915674,-0.6206416536106265,19.204593108943286,0.45809092504412047,0.004163321276822982,0.00599047793440266,-0.5494048126965687,16.046632945068243,0.44950793129854694,0.01448850868031592,0.034550295003636156,0.7641130115689834,16.22645316486582,0.5161382464659009,0.005664751572759077,-0.01232984198260867,-0.7701310059212954,20.399093326251315,0.570332019590239,0.02760479976958704,0.0070093986085761895,-0.6429275337588829,26.438651125690512,0.5062243062883729,0.01814759387682884,-0.07159268569799707,-0.10110093452035565,20.562650567671156,1
0.6303356457758288,0.0012314606388664625,-0.01706986613996453,-1.5660917562589238,29.890355062448457,0.6293161261809882,0.0002546244784744311,-0.013305899994370152,-1.6357238584203666,29.721751211765525,0.6295269302532897,0.0012693228191101083,-0.047660909219646386,-0.33900209819617566,29.816741582173915,0.5003413500639492,0.005437888460571612,-0.0377994623479051,-0.5869487053508128,19.178013739868444,0.4579296486479974,0.004273542993030534,-0.031145244996330035,-0.4900874953311514,16.04370941480013,0.44925445525521374,0.014949229760686394,0.05730157611376202,0.7161660518551076,16.243460419790207,0.5181871929343769,0.005628326910626507,0.010457886747657907,-0.8582694607022932,20.55534371047705,0.5759028144193142,0.027756256309831216,0.043605040298566045,-0.7258451713993673,26.92876684113404,0.5118611494677826,0.01846486204814174,0.04796174215728738,-0.19355853888245864,21.01653751664847,1
0.6281105274864567,0.0015699791121720089,0.007169354598269173,-1.2495731012199813,29.70539105974934,0.6282983305584702,0.0003003177825200566,-0.0015896862817808,-1.201424528374519,29.629132929598534,0.6278359560878323,0.001435816325621743,0.003831489099866192,-0.34709906861186013,29.669599489850196,0.5010060289789909,0.005430939814749947,-0.0034493579066096625,-0.616747294065248,19.2274176267888,0.45916870009185184,0.004297037200395996,-0.009301503469705652,-0.5399614774690393,16.130672888632375,0.4483658993827739,0.015207863191122445,-0.043906685758829556,0.7150148534781575,16.20278035584234,0.5168977131248097,0.005621351303893138,-0.005476252299804862,-0.8179334743538947,20.454723434012447,0.5698046057840485,0.027860437956410904,-0.0055798903105705455,-0.6252387328233198,26.41246906672803,0.5050422336554965,0.018369651466199607,0.01943062834718151,-0.06125796870489373,20.48942854167876,1
0.628677988267313,0.0016526376477343473,0.012794671838794014,-1.1692768034583307,29.764996155820022,0.628340374247336,0.0003254453241522614,0.004667889258389457,-1.060549184692681,29.634954897183437,0.6287250297382357,0.0015619302248246919,0.02787338703399156,-0.3028691158698204,29.762720063087922,0.49853808009045236,0.00850124844091095,-0.039330676445951035,-0.7970157717687504,19.269608682147982,0.4547850652804621,0.0074029887171989574,-0.275414582948189,-1.083938109011115,16.06003033523429,0.4562747289134244,0.02555487648074712,0.5069338732156426,1.019877229062434,17.505057977951704,0.511341970810743,0.010058841204495033,-0.28082168871608526,-1.5946143687081809,20.35465008257874,0.5809099281337647,0.031047924039039745,-0.05417114210117657,-0.4945270650937476,27.60677222421713,0.5148471194394765,0.022107455574461244,-0.11112757031336706,0.16558078818180624,21.51601844214462,1
0.6286075065825791,0.0019904514182213185,0.0690556524494037,-1.0762955276921413,29.78334820484592,0.6283788901832367,0.0005086119305528727,0.03601521720281742,-0.571142607022553,29.652139504954626,0.6282462442444722,0.0016729217465797596,0.031087793172144496,-0.25069545669562193,29.725796964793265,0.5040664469430954,0.008113632533817182,-0.060140636812019366,-0.6965475645334815,19.656632527540197,0.46335713158317626,0.007175484983982041,-0.13030314110689173,-1.0790923096528866,16.633473242988842,0.4418126809333492,0.025887972049792613,0.15288109290513427,0.9401060464077583,16.55559330919816,0.5196125146162008,0.011026505494559816,-0.1363811563004494,-1.2526070723904617,21.065748807530298,0.5683474228241808,0.03643305669920998,0.6645810851574465,-0.566125519043949,26.922455673058153,0.5051120465924845,0.025196776668750476,0.5156580071574389,-0.22506430313456044,20.999924944451145,1
0.627737214972996,0.002115337528525963,-0.060397282720112466,-0.9400539977537342,29.710585806764918,0.6288446820003887,0.000544686129140837,-0.011876972528175211,-0.5130410466634818,29.69872932956917,0.6288256608521872,0.0017492744030843295,-0.019557648485614365,-0.24587221288810293,29.786074686792485,0.4997200389076222,0.008053052560057276,0.10574012223789686,-0.6103854268063353,19.324934685881903,0.45688167249679434,0.006960107426263633,0.12372241854429272,-0.9703464491009866,16.170612649303614,0.45253872184706995,0.0246437978438133,-0.15045075806294322,0.8900779666176589,17.18298814826567,0.5154574107881698,0.010533321460449899,0.05437571807506836,-1.2898734518522144,20.706691463306576,0.566104840528396,0.027461484623243593,-0.1984212422106178,-0.34755673099282314,26.067751647346075,0.5045192260186886,0.020850010536869756,-0.15561303612244665,-0.07481839347382442,20.633374486415597,1
0.6288991480556982,0.002141932018358995,0.0030474252311694094,-0.9928809759748591,29.822063351247294,0.6287488159245481,0.0006012704764292593,0.0048271292784032305,-0.5497720505977147,29.693874529744868,0.6288331241386007,0.0018575615736527223,0.002600116168054556,-0.2860424397797395,29.794791907493767,0.5000713972950344,0.008099583924854803,-0.11270006863193693,-0.6092032905362594,19.35472438988487,0.45850949326101936,0.006947841097185311,-0.09186757566406961,-1.0093424105569626,16.281461896977472,0.4482663081670429,0.024804398776883695,0.16936496156082442,0.9525088659034898,16.906226737317656,0.5193064484122731,0.010344620421827155,-0.03535875950794598,-1.4286667243032078,20.99144096340788,0.5781728809651181,0.027085361695060792,0.032296147966492605,-0.5275025488837858,27.075607786697336,0.5118592204905883,0.02105003060119347,0.1112430162949749,-0.2041632798778493,21.207691884580775,1
0.628280561181256,0.002161518163839014,0.023486033549486307,-0.940987719097011,29.765187110991633,0.6282597814273184,0.0006157230671646545,0.007708885836307688,-0.4881007889868696,29.64883997890283,0.6281668281896606,0.0018802199791210093,0.012676420720254544,-0.24045854750030232,29.733653581294334,0.5025674254267066,0.008031030339537299,-0.0014385142032187215,-0.6959728112004424,19.537347527627876,0.4591534754362321,0.006895085477801245,0.043679727767874765,-1.0401459828233932,16.321879875745086,0.4482119397478448,0.02467086973275565,-0.17450952585607554,0.9592354714804185,16.892690080163337,0.5150440904663814,0.010304113743376924,-0.019135513641289292,-1.3165052623835376,20.657785551335557,0.5660345219446534,0.0270972759525186,0.00247750137346453,-0.3294630764522716,26.034829422969796,0.5025404221526995,0.021083268267782406,-0.035674572947019034,-0.034797265399069015,20.501177544121905,1
0.6286606032637531,0.0021676394342186344,0.003597909533205823,-0.9617784479929752,29.80146687532812,0.6286168417947285,0.0006199687145383975,0.00439133760095145,-0.5247631757532722,29.68281271897424,0.6287562814918677,0.0018867174355233342,0.005254495816919502,-0.28017210404668663,29.789701703889786,0.498787172959752,0.009281679172074998,-0.005406446174263502,-0.6366050569272238,19.345992551922162,0.45496422480954607,0.009429402776885629,-0.2535436139287763,-1.063093825381173,16.222209244730873,0.4554257532615848,0.029263456531337013,0.5304884307825879,0.9882346466381169,17.721442038360074,0.5099951474107492,0.015204636469421853,-0.29919492820133176,-1.531206088771272,20.632271877425612,0.5828983805648505,0.02838034180860388,-0.1342973672370159,-0.4985490192871266,27.58293444872108,0.5161903390482222,0.022740294974156094,-0.1696065728365786,-0.13800057306116212,21.666716787591447,1
0.6306406146097987,0.0024904129981403863,0.02983779946312004,-0.6257916087227569,30.01235942151924,0.6294350724853952,0.0006872588475321916,0.008858611558902774,-0.38027186656542344,29.764995440319474,0.6298404081163224,0.0021398614500169,-0.03094523716532449,-0.12232138779369925,29.910770224511413,0.5042700724265392,0.00824037723415912,-0.03810997513537423,-0.5557769611536016,19.6814108612078,0.4628247562738258,0.009477341394703525,0.03134659790166233,-0.9644094123006541,16.766829889702528,0.44244976044052864,0.028328900776614353,-0.21837151674674415,0.8039897199307992,16.778472946010545,0.5228538828783196,0.015808922631011083,-0.28841424825260237,-1.1601130369752997,21.673073987764973,0.566483493995796,0.03365052001891104,0.5170516983969858,-0.4870989881990199,26.557904654125792,0.5028808754121419,0.026460197166855916,0.44682857011975785,-0.20610757665945958,20.924742704493504,1
0.6298260851535235,0.0033715583191297567,0.049136912177003,-0.7326489957914157,30.000562631101594,0.6291830337542424,0.0009004916121617667,0.02527926809382719,-0.5607033829466813,29.756983126614383,0.6296926610072104,0.0027399822198139506,0.023400109019928617,-0.4043561897325545,29.941222233741858,0.4997009461019698,0.007805629524242644,0.12119579623885707,-0.5151368619926865,19.305194249934235,0.4563353122447424,0.009011581549044505,0.08470685148732338,-0.9102724098528947,16.285000824742283,0.4537732947819948,0.024967417442863498,-0.15267557505224472,0.9139357909290274,17.29085412006993,0.5153158277746183,0.015300982746991558,0.1762028072407239,-1.1531203772052214,21.048552899905374,0.5699919824399808,0.026095848553822368,-0.2711628700287274,-0.40165826647191627,26.297907296422306,0.5057504422558808,0.022281575713737393,-0.252288206617766,-0.08561502744271825,20.83259984096799,1
0.6298433711561074,0.002701219817387454,-0.10301424362885464,-0.2423462030819266,29.95259068068343,0.629290219386203,0.0007724994266644049,-0.05113748570152821,-0.24894400065589845,29.75762847370833,0.6296275011622957,0.0022508054591697233,-0.15903225461226955,0.3467311316943317,29.898868870469318,0.5022331420846908,0.007578090793868576,-0.06050432517104809,-0.6048666060031713,19.478638394365866,0.4609730131621322,0.008941848963617103,-0.04295776817671704,-1.0577242555543458,16.598905738090817,0.44379219407765047,0.02486915062900392,0.010819553056750975,1.0955977340002367,16.611680510865416,0.5167880436796549,0.015491909110339675,0.0001564134974544329,-1.171253748524475,21.1766424309335,0.5748369083379081,0.02562705041418484,0.20285428819379545,-0.5003557372003217,26.679212069711024,0.5092963501551909,0.02153708624410817,0.15733602101811855,-0.16832618935699203,21.04745230316892,1
0.629365319992474,0.002085553327658252,0.044975554833512565,-0.5964061056649363,29.861883896938902,0.6285003654328667,0.0006755862317042265,0.026360892007933012,-0.4284538393221547,29.675946582339634,0.6279329969708715,0.0015476788508191485,0.08296929258023233,-0.5835723642773277,29.68701688632215,0.5016162592656104,0.007483988083823928,0.04310707132507868,-0.5971819773609224,19.42523048517477,0.4584060993863707,0.008803977769997673,0.057591745972884134,-1.0225275273706171,16.411705751576864,0.4517699473836323,0.02484005042290632,-0.18912063641326604,0.9859257773847285,17.145370133220815,0.5163237671030416,0.015460534453506442,0.00037138911239192884,-1.1633021015656944,21.138346985220174,0.5673968029314019,0.02648385452072555,-0.1457506873198835,-0.373472054982354,26.1052401327919,0.5034131710471161,0.021540805448720845,-0.08629086323266924,-0.07564755658371873,20.600881161983818,1
0.6272032173913902,0.0019114565711557416,0.030118418796200197,-0.5890981503581624,29.645238479223885,0.6281622294944113,0.0006362143504176877,0.023554746219772715,-0.4300646613795831,29.64116385418511,0.6279533317234471,0.0013570169278567983,0.04506428806150187,-0.6056979104289799,29.674823264354725,0.49824241223465443,0.01004133575018694,-0.33349141404919214,-0.5341803666802556,19.36147144671938,0.4581914654966366,0.011334133149517025,-0.43113964523985626,-1.0639401651274014,16.584182282110923,0.44888371415021794,0.02978891843454178,0.6473262970281144,1.088373905093995,17.31662412635318,0.5146147641107588,0.017898713569563334,-0.4738181352619356,-1.2423211670296896,21.186631462205582,0.5841020150599765,0.029711230483722775,0.3129449339658712,-0.36235923952686455,27.786768355579873,0.5182585922962152,0.024632110349808726,0.316264460035485,-0.01719839026926637,21.96717380254993,1
0.6273245685639179,0.002196193188634167,-0.014684331978430332,-0.7804344124919597,29.677726870251878,0.6276515935569139,0.0005554827344241942,0.06116178925898219,-0.848152226294815,29.587094939437385,0.6281223707756393,0.0012962113199620532,0.031997614420178344,-0.6796134668866758,29.68624808783791,0.5039939419542204,0.007394995087133361,-0.21214269623302434,-0.3213745749661692,19.597971650939428,0.46368631596814225,0.010462486521207872,-0.15516229862574288,-1.02062535598761,16.89959897377746,0.4418361260823828,0.025146290417544154,0.3019262221171812,1.023700179393354,16.5022626642598,0.5188357782640101,0.015036805554748395,-0.08438493156095056,-1.0512037382936539,21.302015971562955,0.5752683590293308,0.029643192044849893,0.4895600756131229,-0.5516904307018462,27.013622578841318,0.5106549833911067,0.022513425778606967,0.4501711832847787,-0.1988610566747377,21.223631912279778,1
0.628954543949118,0.0034728048698114155,-0.07110966676299724,-0.10585901342563782,29.92577393693426,0.6296060413853725,0.0006842193291360644,-0.04587546752656135,0.41814448563987083,29.780914781528022,0.629950379134881,0.0017492738126610936,-0.10592829782926305,0.22546593936855572,29.892257275050447,0.5004828873849103,0.006912702090626774,0.07361526893563852,-0.319531414000437,19.297773997091642,0.4573621725366093,0.010131223055748902,0.08187604905775736,-0.9833688681480474,16.43822227118096,0.45305338767924314,0.023497820634189367,-0.0893517295863469,1.0907679621637798,17.133141633502913,0.5174133781044384,0.015308902623583441,-0.008216039393115437,-1.0099593715292523,21.21160408225368,0.5677775449888093,0.028498646886901242,-0.17572737890559786,-0.48061539225428174,26.286750414144645,0.5029468062072768,0.02125432077723237,-0.06839217823767307,-0.10264699957275344,20.544481478072694,1
0.6294997029506739,0.0035616447735933574,0.03683477307768512,-0.1540326755924454,29.983802414369922,0.6291025825681815,0.0007389551183061919,0.02255915949777565,0.30052125450633344,29.737437133301324,0.6295341005410134,0.0019931697401472594,0.03029189530972909,0.05477086056367493,29.870983341569602,0.5009253196549492,0.006756050716666846,-0.062222821489602176,-0.34882258732372307,19.319410943389325,0.45976748650091054,0.010223109600051045,0.004689117737518067,-1.0299149754754477,16.61047073365615,0.4479043551296295,0.02324624377840687,-0.0026145760151602415,1.1941801496519042,16.7665953904088,0.5176657801145937,0.015278564119007248,-0.030003069581593378,-1.0200620726431051,21.228953237430357,0.576563147143138,0.028015194499907702,-0.04757657810555149,-0.6268733127884594,27.005004091263153,0.5100945379637402,0.021051587552137662,0.01838514429910948,-0.24577229325047484,21.072550303391306,1
0.6279591601696297,0.003807821175693273,-0.11754647530784335,-0.1772748543282466,29.856731780072295,0.6280196548946643,0.0008196471524148391,-0.0756511455484975,0.09645291265923003,29.641305409329686,0.6275707846788504,0.0022703739070438415,-0.13429674368265787,-0.16367406990587402,29.706389402803353,0.5026020509179696,0.006722495631144246,0.06054507180301244,-0.4002941780030659,19.443126295725868,0.45895161338953755,0.010438950552558493,0.09552916810540446,-0.9811228911729719,16.570226098353793,0.4492309094833122,0.023993823835319728,-0.17077635236547328,1.1423756465363017,16.91117371645395,0.5170133961139911,0.015408271684923421,0.10124599371816778,-0.9920874101718212,21.187925986783537,0.567585831120451,0.02846299066474851,-0.009641757469397494,-0.4942837792861002,26.26778698584337,0.5031605975830475,0.021591248421237996,-0.007740765928031995,-0.13647304832872734,20.58554640518132,1
0.6284885603627348,0.007194116221035638,-0.25751522884908973,0.1021780570829617,30.157204888368362,0.6285115208915041,0.001736274970395421,-0.13104801281587997,0.25364383442627364,29.755489239810622,0.6287211140702897,0.0054781406422604005,-0.23602505310927918,0.2280174399359111,30.05215035336124,0.49941614441705884,0.007391353567525617,-0.31586584602304585,-0.2968936827000287,19.25319656182694,0.4605556050384312,0.01102150129394514,0.0037588749481242134,-0.9256254318574516,16.723950995675594,0.4468814658353123,0.025467309981527117,0.03256747839983998,1.0378616079525862,16.86230927666681,0.5185354143456554,0.01572946817921036,-0.09476100346211214,-0.980974350026797,21.32990384005812,0.5768143905318165,0.02871161767363367,0.1148326934992937,-0.6153204823780005,27.078272792193204,0.5119947756085681,0.022031907135150373,0.24352498013298254,-0.2424803869964903,21.290759896786227,1
0.6317555862174808,0.009032347004096332,-0.02249877213196999,0.48403771800572476,30.60202773207758,0.6300237332473079,0.0021694129565400454,-0.00971902561363902,0.5785487905948644,29.930279392899585,0.6301627121822393,0.006671621420890687,-0.0535336833564779,0.40846484353036117,30.27657827201159,0.5044119936874343,0.006175540876462415,-0.11812436017544514,-0.2555953526304817,19.53934947803813,0.46418229260273325,0.010004136022954949,-0.1425186287168771,-0.8536658726082027,16.900196123143385,0.4411298669091165,0.024755777210864558,0.2367285582984846,0.9345625954004926,16.426594474548093,0.5199460750338022,0.011835625188901073,-0.18569529126833673,-0.8406308850574142,21.15163033470789,0.573149777107328,0.028073152214931663,0.5161127536536263,-0.4712662498255501,26.71496328876841,0.5077612772522132,0.02059510281126417,0.41588858146924246,-0.21204502633294156,20.86065120879348,1
0.6303229990368159,0.009089407432238645,0.14620923134747543,0.49512462618049635,30.47064738359309,0.6295011788830306,0.0022076829327630685,0.06839994949688388,0.5716724354913338,29.88374860315886,0.6300560431802775,0.006604618562778382,0.08188145789279144,0.3927320386581493,30.26153808974469,0.5012852296146626,0.00571569856879898,0.06442133238667841,-0.2835071231781835,19.269477801328,0.4575889476050123,0.009083739515119897,0.08977435248478705,-0.9649882882276971,16.37627009688857,0.4515955069938453,0.022869345851142673,-0.10068981623259779,0.9988246030340306,16.987719238261686,0.5178764461331488,0.010865189202676338,0.05348464705994871,-0.9588762585254973,20.918725010460555,0.5693046541476968,0.026239217566940403,-0.09635856841344698,-0.41800623594084935,26.249786292520742,0.5043288246888042,0.019149117458694975,-0.08540939922718499,-0.1357740983481625,20.493101947842728,1
0.6265796000744959,0.009023717711962495,0.012165635964728638,0.594910991119468,30.11290475289886,0.6275503502667209,0.002204142357658428,0.00362842528090368,0.6733190038988363,29.69956469345803,0.6274384169804788,0.006611329257513647,0.014981337628534042,0.47917808464613404,30.015160897778692,0.5017340106629417,0.005690512044672892,-0.0008508736104489989,-0.30409233793276896,19.301374200499847,0.45934212718929746,0.009007682035815475,-0.04854883949174166,-1.0289401885281708,16.49120770645951,0.44829802429201143,0.02253742094841612,-0.004315759980508538,1.0821737158407039,16.740603043991857,0.5150005870837917,0.010753651888542213,-0.04808116492182041,-0.901402582466771,20.687690592000887,0.575753575648983,0.025741624748803576,0.05880808552485803,-0.5334659297267319,26.76679372185565,0.5098879352148257,0.018685364857277387,-0.005802008465533942,-0.2424748381349064,20.8816449852614,1
0.6298222718670339,0.008978706703281627,0.0028895543118747646,0.5002365622385471,30.415131356524235,0.6291703052380225,0.002194962699099219,0.0018133859465172542,0.577525641245087,29.85157271423132,0.629367448364914,0.006609118780013466,0.009595511217725172,0.4102524772730303,30.19682866932321,0.5004123180379154,0.00567834933631359,0.07265160905610618,-0.25219741988507743,19.201134454193195,0.45741159293235256,0.008973986968867347,0.07441249608597761,-0.9720236524690448,16.3559774368646,0.4531972374506687,0.02235393541294169,-0.15908321743638354,1.0031791278635884,17.05827142302652,0.5169364183678091,0.010347543809269657,-0.024373665112803977,-0.9823245446232021,20.807462789506346,0.5680620855569709,0.02533050157462989,-0.11661894154905417,-0.42018439931357376,26.076547095072755,0.5048250980695305,0.01861545373027148,-0.1044491279540235,-0.14081031931537683,20.491172049108435,1
0.6279030707930469,0.008979430658240728,0.020722544542879806,0.5605919471560927,30.234147842060157,0.6281790705574538,0.0021961612284357446,0.010710537718007562,0.6398738606809619,29.75818678238624,0.627993748223744,0.006615306513786666,0.011241153976197349,0.4600792066792219,30.067743767628244,0.4998163659493679,0.006515631223575811,-0.210239219948471,-0.3788250723265422,19.218386685857034,0.45765917853949456,0.010403377507350493,-0.257441197453762,-0.9433072496634967,16.47874421315231,0.448769433304072,0.02476672882329674,0.5150361921342852,1.016769815023482,16.937288253028296,0.5126393637614515,0.013297703719883956,-0.4455151379915268,-1.2437882959426043,20.693963871102344,0.5834958108840063,0.025753279353483493,0.10486745892029392,-0.5578526872399957,27.440794771096563,0.5164617808920673,0.020308913767002404,0.13234613170544374,-0.12353188387282327,21.507817452923607,1
0.6285226148901943,0.00895649538861913,0.0005026365209308548,0.5425549934094213,30.290831465888374,0.6284960823090117,0.002190801266351973,-0.011127286558824112,0.621705624000063,29.787668704543247,0.6283868830791225,0.0065876606400286156,-0.009934567660428328,0.4478961532043354,30.10274249930423,0.5059454586177085,0.004295283190946174,-0.26622275189916744,0.01166416491086053,19.516411488321264,0.465775802693834,0.007567166559343218,-0.15019240294975578,-0.4931346586893045,16.8310027035228,0.43923301546735244,0.0183235288863827,0.20957225384040723,0.5295225045584442,15.825364278333073,0.5236724628400939,0.010599583181061936,-0.2610025876559744,-0.8424729587072045,21.351832780674307,0.5704688748891399,0.023789699280745022,0.6694445659956922,-0.5552840570984727,26.16804303807121,0.5052790067246004,0.019047377647583793,0.6098723738199445,-0.40328320845295,20.557521543666113,1
0.6285012797113587,0.008118956072169337,-0.12196431484112469,0.6452241449971632,30.22684214425169,0.6285630013781864,0.002175048694742929,0.022849098251359057,0.6252532264107338,29.792812106027533,0.6291453138862988,0.006520466278072203,0.05442706225584726,0.4284427227136546,30.169301453459042,0.5000007309402015,0.003460822403905064,0.11406610393373612,-0.38605283344088537,19.006155678444145,0.4561753605950427,0.0065185406615377835,0.1298935665019595,-0.6073032773642444,16.08956898000509,0.45406626667986766,0.01598422800880753,-0.06746835524152045,0.633455107414249,16.646045962896203,0.5186004077850959,0.00971029515744051,0.09488258596360949,-1.157641302309192,20.889540563265676,0.5686448997115902,0.018603179463085928,-0.20955729724415206,-0.3002321391005892,25.628411927868687,0.5039623134283437,0.015650761454825607,-0.16826815302146164,-0.12255400836457342,20.206507349360702,1
0.6283961540236602,0.006986009630155821,0.07849125504368049,0.7608978333646246,30.13309419201112,0.6285725476237444,0.0018926039971233627,0.05652577901267364,0.5931773796497936,29.772811267752452,0.6294694088220757,0.0057997473281231286,0.05550320618019988,0.4210069377860543,30.14656155049212,0.5005602713528611,0.0033898835267940487,-0.0761412993010947,-0.4082425439782302,19.042895275246504,0.45884172736597717,0.006381244292216462,-0.08947647898752387,-0.6972997221509709,16.262391885538545,0.447765354774387,0.0159104521373429,0.1469710181064421,0.7609209642164951,16.214409428380822,0.5177346007157004,0.00963202463210282,-0.04969971486479052,-1.1478703942450983,20.816453581144035,0.5789149540416715,0.017787786584039268,0.04804672985281855,-0.468452748131712,26.451985508199197,0.5134535422796387,0.01591632342904586,0.06879295354414239,-0.26230399590704495,20.95039843971255,1
0.6277998679219413,0.006836192803948447,-0.011376438662426325,0.8138212451312076,30.0658288297027,0.62788641488776,0.0018045980234154336,-0.010741284994973399,0.7001333637819973,29.701641503778053,0.6271958247900707,0.00560811875257182,-0.0004070825312071924,0.5220180877719262,29.91809598524761,0.5018478878611525,0.003441168985298444,0.07551513990237324,-0.4554050298806615,19.143494196214572,0.4588245025853876,0.00651455675735417,0.16275397239132283,-0.6816021596363752,16.271071512998837,0.44982617960226795,0.016609650356560007,-0.24168436653697506,0.6721868543227899,16.40488351555332,0.5176107057591137,0.009683249750792764,0.023209591589727685,-1.1325012402386427,20.810623685292246,0.5683752462017949,0.017991689289976676,-0.005329866143635842,-0.26507466294499477,25.560166544579598,0.50287157327974,0.016270407715717326,-0.05322304724009902,-0.06832863484137365,20.169996611926145,1
0.6316685096735458,0.005971736337065673,-0.10563052580919352,1.1762660550495154,30.36729144743274,0.630264430555361,0.001535845269910982,-0.05161158337800331,1.1607946607033302,29.906146481718924,0.631782453708265,0.004692856286408815,-0.10395027858756856,1.0155312919957624,30.283451526216947,0.4979586198977509,0.004432516248800089,0.08946161257204199,-0.7987665885114599,18.925215237196667,0.4535813443544884,0.007388685445744959,-0.18695007392615673,-0.7651627445905627,15.976965418967,0.4559811890487299,0.019016834912197397,0.29281686374037363,0.6882054182457641,17.001159140974625,0.5099326402903849,0.013416303231056593,-0.10583670777991405,-1.3535692433877204,20.495153761612414,0.5806226017000634,0.01815267846273101,-0.1479842872606134,-0.35494149861918783,26.627493626613383,0.5142655666086908,0.01650603552127942,-0.19731062363163115,-0.2124886650032116,21.056627103526512,1
0.6300260019107519,0.003062172565082737,0.051416166652071604,2.0959306834378073,29.996558001089625,0.6291421195250506,0.0007689308659721874,0.030024616945950156,1.8119095867381447,29.743386376117414,0.6297642363752773,0.002005723039125394,0.05958770633539856,1.2524513317503387,29.8936480111955,0.5040364981744043,0.004346984920319917,-0.04418204772030332,-0.7478008747267336,19.3756362459974,0.46315480305001067,0.0066698884375842125,-0.025819505770515477,-0.6237238913787364,16.581999613503292,0.4416359325278743,0.01644588916647365,-0.04585225213485858,0.579206163340035,15.84516806580144,0.5225300867866499,0.01330118207239835,-0.17074573233481166,-1.0038558525890868,21.462114343152262,0.5695594670768348,0.02164661232892646,0.5287004249313851,-0.42697332207928834,25.931698302604165,0.5053070164566811,0.019079525552418083,0.4219592493015053,-0.29792632114626433,20.562023456905376,1
0.6285227620729064,0.0009497854345474431,0.16722410542184285,-1.2613091682304003,29.698348805438158,0.6284783233197562,0.0002756062476817187,0.09198682185223139,-1.417261653056613,29.644270078539332,0.6277845769786947,0.0008666090653724656,0.1678930210833613,-1.6970567126496743,29.622639702761468,0.5008847119294401,0.004517499189895638,0.1553936873032053,-0.7005887914562959,19.150707038400125,0.45703372773102385,0.006196864787068462,0.15145365515121312,-0.6105672496965494,16.124555115521744,0.4520269004820522,0.015136149088153134,-0.16866996243692128,0.6005599256533911,16.444698939479153,0.5150781176568318,0.012381794014830942,0.11999758836323143,-1.0127850021849365,20.814162803765374,0.5683960348115928,0.016760461307229014,-0.11216501670845813,-0.2986845766084381,25.470828065950567,0.5034379651490892,0.015638346976331104,-0.17933305596626725,-0.12876345104562714,20.165971532757666,1
0.6268396341744832,0.0002441598169439955,-0.017490887515631992,-1.1110754817960622,29.487662349353855,0.6276472985166327,6.984754069721825e-05,-0.009837960198279871,-1.2490199491941327,29.550753568153624,0.6273255297617613,0.0001933659545351999,-0.019264148917168877,-1.3554064593352873,29.529608102451185,0.5003274754420391,0.0046733587109487615,-0.05966001440947405,-0.6209000576625537,19.12039724577553,0.45838201214544994,0.006231851575452556,-0.03771510867447325,-0.6359437459982029,16.21971219597185,0.44883570610004314,0.015147245856943287,0.03657600626556248,0.6603550307747912,16.22990802368812,0.5176842944721829,0.012137937544448939,-0.0570258401475634,-1.1002464727946453,20.99798453402635,0.5745959575932805,0.016573460291537497,0.013683306802846906,-0.4367548282193213,25.988474647764207,0.5109055079329636,0.015760867820485674,-0.030461240650011157,-0.26797354616562097,20.743137071433914,1
0.6295995161799733,0.0001169618353847546,-0.018925297668547225,0.42030709661605187,29.738321483872706,0.6291074241486909,3.2157005078803294e-05,-0.009569570145390949,0.39296201395172436,29.685590952300906,0.6293825157599566,8.889219272427057e-05,-0.010974769918836391,0.7770227482360361,29.715754358086496,0.5014458905534012,0.004697756044808734,0.057427669236760626,-0.6608974842055195,19.20623253378286,0.45807596933345923,0.006193602597149118,-0.0037473029665350266,-0.6330437364994406,16.195846118248166,0.44998319372905626,0.015190460011872318,-0.09381260482684758,0.6275576664824277,16.310459638773654,0.5164468615605103,0.012218096031562308,0.03681258386083125,-1.0572915108814012,20.90794116751318,0.5704981183542208,0.01656420880783414,0.06711626469311371,-0.34259985095348666,25.63585918020771,0.5061089212971555,0.015931588181303726,0.03272063583007728,-0.15482261094456073,20.38990554165925,1
0.6279286554550159,6.467339862196521e-05,0.02747919829176093,-0.8608265926642299,29.57686555711383,0.6281673951458001,1.750691231096814e-05,0.013761654268432899,-1.0704492527560467,29.595866235830492,0.627907697450801,4.57523082357028e-05,0.01612632912862555,-0.7631371290211935,29.573491409656935,0.4985650891765197,0.006221081782340403,-0.062067985136108006,-0.8265582181164658,19.102896162812524,0.45477056861000864,0.008723659271928783,-0.0324485694756077,-0.6582172023975518,16.156771041663024,0.4561346867681081,0.01788367410541299,0.0024354529840318606,0.7221092814567971,16.927805819278568,0.5118229679637097,0.018973293409777697,0.1984607247249438,-1.180856923900117,21.051230002462102,0.574718163957366,0.01957690323570767,-0.39352675544429927,-0.4564090938095783,26.2212634381318,0.5093816488744422,0.020149562407613668,-0.2807442501913732,-0.1444786648835024,20.95129243391682,1
0.6284800148090744,3.1736342853154825e-05,-0.0059555325525905145,1.4622380585470378,29.626383165452207,0.6285010784119697,7.972876668334463e-06,-0.004150998457081556,1.3985314081638702,29.62661041024912,0.6285354303759331,2.41667411116874e-05,-0.0041149405842518805,1.6563784897419709,29.631047381681718,0.5024812772382196,0.006184958364739309,-0.2325037900284394,-0.7020959107608382,19.394244467112152,0.4630473784626414,0.007726923361941505,-0.23822104043221798,-0.578101567763463,16.652757931368015,0.443092857037794,0.015415504346256114,0.23473992237181485,0.542249450764589,15.865593318466583,0.517870380271516,0.018227644068281496,-0.3603757294576957,-0.7930204952349341,21.463075468245172,0.576010978869181,0.021423273220941053,0.431448764211408,-0.48339644382548685,26.469470801687045,0.5108491344137082,0.020082847300022088,0.46687861900361716,-0.3230045133711858,21.058643560044242,1
0.6286872243797904,3.030033917622591e-05,0.008127627399007076,1.507894445118588,29.645814182476418,0.6285931736001132,7.322775495487379e-06,0.0034225617757887017,1.5240149607103797,29.63524522763633,0.6285667697886579,2.3082501423982698e-05,0.005968348986300387,1.7622014781223163,29.63392191129645,0.502418725801118,0.005828137977883577,0.10885637284389443,-0.8468586131127198,19.363125413034812,0.45880202873296005,0.007509471770654616,0.1658424550123852,-0.5593847098052883,16.343148528739423,0.45088941273483735,0.014856494003480152,-0.2125846827940444,0.4974557372959986,16.34697524498502,0.5192598060592928,0.017483565263553495,0.12982918730306514,-0.8732374605205482,21.51608979365804,0.5672661677216921,0.018395512800571067,-0.0815121235078462,-0.28729703308586046,25.495585825366383,0.5020403033426729,0.017701787298346847,-0.04504593169409521,-0.09760933552377249,20.213267223607897,1
0.6286909983986482,3.549173944894703e-05,0.0036936342498389285,1.05354622890947,29.646554248780898,0.6285892639328681,9.331870451747242e-06,0.0043763497789538475,0.8956462070636934,29.63502526328829,0.6286408028692546,2.729767883336772e-05,0.005952684782597806,1.306987175846294,29.641214455641244,0.4997801207705683,0.00570624182337425,-0.03220951345133838,-0.7753512018033392,19.15577457873798,0.4586478501389008,0.007378730898276159,-0.05816504576250037,-0.5611596031486973,16.3228648692501,0.4498846313066517,0.014774211600501548,0.14435218140357714,0.5139583989880671,16.273005269881253,0.5161318877371164,0.017259700126724613,-0.028178418059482735,-0.8208602222394493,21.256627224808582,0.5771087496600109,0.018156003858463086,-0.02062738064690106,-0.490664502827732,26.32263245558685,0.5114981708390931,0.017461423836585926,-0.0047479408352884,-0.2750027970905486,20.914423771787714,1
0.6285817187424828,3.386653411222068e-05,-0.014192584468386116,1.2842676291618682,29.636129408818334,0.6285275168072518,9.385257961108079e-06,-0.007958134243162274,0.9598446091536368,29.62920746288088,0.628517992994356,2.758878013824975e-05,-0.012011575298692678,1.359159567174645,29.629656633554223,0.5040370803939489,0.005781449099132135,0.12700762173304025,-0.8675653214053294,19.481830614239982,0.45999867219421503,0.007067332312407384,0.03309100474389354,-0.6310678634146818,16.392890972651216,0.4461597967546,0.014124629124674316,-0.07947170313682611,0.6182665585184267,15.974614873233852,0.5184620080394614,0.017406453281743672,0.09654929950426955,-0.8606901573337982,21.448291576372316,0.570733408648564,0.018283299959791458,0.2091618944769213,-0.3613772436061313,25.783210978095216,0.5041058718537925,0.01666597151861793,0.11418539607219153,-0.16740272111557997,20.29248664518814,1
0.628737908706507,2.340310224771077e-05,0.004182055884971336,1.0186912048694055,29.650083667913727,0.6286453842871813,6.635089544924469e-06,0.0007529746963286232,0.6009559845964042,29.64011743554467,0.6287075443539255,1.907102123589595e-05,0.005229573130550391,1.358896084615637,29.6468994801372,0.5005009686885055,0.006789285038079004,-0.001474724813851358,-0.7318267317277369,19.289998567177765,0.4578670315889829,0.008493767888999115,0.09629504381729631,-0.5470746772815239,16.35170521999393,0.45192148783027375,0.017364833559164416,-0.19894197580930073,0.80509451376466,16.60247502058278,0.5174624531823135,0.019795864745082097,-0.0627967307172933,-0.8023799565865691,21.547448275145424,0.5685435297596504,0.022157229731197256,-0.3385281794747297,-0.44172833004802575,25.882765892475785,0.5053062652270278,0.01894079005006958,-0.2933394026117228,-0.23313548642645832,20.55170008953171,1
0.6283498193568501,1.3974440128516266e-05,0.003094154908851454,-0.45441748587035213,29.61279627000347,0.6284062734310063,4.319298233510455e-06,0.002788114505961281,-0.4816086948287583,29.617402964627622,0.6283608209388595,1.0568379931449616e-05,0.0017759205933530753,-0.11898480910160109,29.613581156936736,0.4999124203278,0.006065482175407088,-0.18644008502712667,-0.5420927682033304,19.192277780830047,0.46047775971988725,0.007015378675263329,-0.19834795825430673,-0.48106514461396643,16.422120561717957,0.4453530203515585,0.014324687512083205,0.3021636830939052,0.6993485320657467,15.935475331113329,0.5163998850829976,0.013864183825753558,-0.07040001862273831,-0.8996473833786689,21.026112701635753,0.5785860772930271,0.020399585879911027,0.23351162389095004,-0.39107110006101925,26.616708017913375,0.5141351716727868,0.016551201671772743,0.23038050715798852,-0.2097602496008636,21.04991203003663,1
0.6288357981177866,1.5431205670559256e-05,0.006436697838312688,0.15177991905613225,29.65872648380213,0.6286781504335824,4.519686301363883e-06,0.0031626034969651773,-0.16912174833319135,29.643050719230565,0.6287229633913385,1.0756079605581902e-05,0.004585033971536756,0.1916984601457168,29.647738302059786,0.5047087214060859,0.005706679973677339,0.03901712189774642,-0.7248504942423899,19.527111327804576,0.460345926883204,0.006544913665945189,0.08628337716145446,-0.6579845605359568,16.378201541126657,0.44679087594814765,0.01382372933423794,-0.2063581328218414,0.792824819260612,15.994612483022086,0.517802876490554,0.014230455525240677,0.10421810518994823,-0.8970097226031071,21.162040126509712,0.5684789614456122,0.018363132194602904,0.20365904775300003,-0.2646676723651537,25.596496502871744,0.5033614979524166,0.015436633829044087,0.13388556605634605,-0.055594762276150685,20.14527072491681,1
0.6284422879350865,1.9137369652463556e-05,0.006537589829204826,0.0816326189801742,29.621894360235743,0.628469013411793,5.229852973692419e-06,0.0042324578930543755,-0.08133873124524169,29.62338457052948,0.6284629087967102,1.253205122119218e-05,0.005931014649745436,0.10929470778088576,29.62334945178202,0.4987972880226883,0.005622591846052663,0.03858765297353656,-0.6099366193298273,19.075976887017053,0.45743609781917655,0.006504088919526663,0.012263319742324863,-0.5827643120541747,16.174886349147624,0.4510555766424658,0.014235122875287835,-0.04387567105585535,0.7080935218804777,16.31223408429135,0.5170585214289091,0.014230607129061743,-0.07687894594006439,-0.8782997623746239,21.10427852121929,0.5721657302556524,0.018405954784378138,-0.10304470481830846,-0.30100553480356906,25.915062369967774,0.5094018930654453,0.015385594770233688,-0.1635560126614909,-0.16004064819524708,20.600305662396742,1
0.6286163416140765,0.0018400495353543998,0.25820601533454324,0.9869491408231761,29.773051536436117,0.6270787714766105,0.00019344528655496684,-0.005503040951706395,-7.194402747888674,29.506398873951216,0.6286251077438855,0.0002129791504606465,0.08654294636237703,0.7053662486771232,29.653474913584954,0.5049444656763195,0.0059087372396728404,0.16080530399783532,-0.6125601062412065,19.55991506202158,0.4594744018436954,0.00646966855004987,0.04965821247873686,-0.6478636896667734,16.31250991892533,0.44922342552459044,0.01441188367795743,-0.012925437643040771,0.7430179824655803,16.20160584517239,0.5187472780053566,0.014317943034686701,0.08508275209878952,-0.9090751774136011,21.241933167414327,0.5739552241057146,0.018393480437507433,0.03657207789695743,-0.3409791024947799,26.067962498243627,0.507041949016379,0.014947927709289934,-0.0252775847208761,-0.13561250519648793,20.388012005162075,1
0.6268970425025235,0.0024747939877798704,-0.0665144056680611,0.7408930994218801,29.65812739747652,0.6280129141671377,0.000635175538745571,-0.02041039204408046,2.2742787927815122,29.62701951691972,0.6283923028019138,0.0006767931051818118,-0.04381799584470747,-0.1556230813989686,29.665849156335376,0.49849358263887655,0.00702384759655889,0.3061128521812831,-0.7856946310380674,19.156953617056057,0.4568551451784101,0.008124709251214281,-0.055867614296562285,-0.580977288473269,16.25497526028882,0.453567540825019,0.016254830562747284,-0.05394655254508546,0.666947504667165,16.63212101839744,0.5154097498089536,0.016842059804502357,-0.04435416231638767,-0.8202320565570427,21.16985319039278,0.5666726377112695,0.022076044799503956,-0.33536791551206857,-0.3273455300767048,25.717468189961867,0.5039810908138945,0.01939757331929114,-0.4046374167048755,-0.15976783011941298,20.48519091797477,1
0.6292172756649014,0.002595590990315548,-0.01585355512103248,0.5978736216768862,29.885652232920386,0.6289450496517749,0.0006582239548793465,0.009658469646325663,2.0666892414403106,29.716599233771575,0.6285124277866584,0.0007512757405946914,-0.003412817658036582,-0.15733492609929844,29.682684795974968,0.49928278904888884,0.005575471788611333,-0.144474499803678,-0.6049993811487074,19.108832670390026,0.45770725245510846,0.005678304983958248,-0.1780176183346423,-0.4092325577889356,16.13238924006324,0.4508173686568625,0.013125147762462236,0.28774961769452334,0.5771006613743018,16.21398342562451,0.5127636801987716,0.008429098252569083,-0.10367830382447835,-0.7232568102005786,20.343247650514215,0.585217441456873,0.01960467667811982,-0.1177344534306031,-0.17760451204615474,27.13670510808051,0.5179268497380775,0.015320794995229191,-0.08585291792715549,-0.19067916823547532,21.252355455617632,1
0.6282533637250212,0.0026238712613447543,0.015472808995056986,0.640749819762594,29.796838150724803,0.6283321564320901,0.0006646390191932597,0.002574484834045765,2.105726841655684,29.65928069791535,0.6284472701020025,0.0007629585450674961,0.001064860896531128,-0.1462995566791718,29.67740677973445,0.5038336961940948,0.005113112773092091,0.01930907638808621,-0.8337542633237948,19.416999851754067,0.4610702565721728,0.0051742249623414,0.04206526054634763,-0.5553761218467598,16.326826259377963,0.4478061798738068,0.012008341500720872,-0.08940325359464502,0.792629226794404,15.928395376041266,0.5193006501321402,0.007657786612843251,-0.05433403746705162,-0.8945858036686825,20.79216360142516,0.5677272074472928,0.018451369601078318,0.13828247659243315,-0.12903498709870886,25.53896500617241,0.5022117333122993,0.01403441122510271,0.12353146835277068,-0.05152694863801175,19.954793311398404,1
0.6286730366666425,0.0026276433421738494,0.00909080305288068,0.6148927201559846,29.836679634695184,0.6286109815580594,0.0006657572550010991,0.005425613659003403,2.06777576283879,29.685648497024093,0.62864284667262,0.0007650443725472687,0.01474102883133499,-0.1673764120234425,29.69600043401765,0.49940003746693457,0.005054407805933637,0.055026213519237865,-0.6865833852534866,19.079055984287265,0.4563641170835469,0.005127902371277539,0.07348354169885946,-0.4625901531126061,15.99958032758294,0.454072018619793,0.012316195814952358,-0.05409542555007585,0.6660514543068207,16.375003347315506,0.5163195428586543,0.007445364976100706,0.021774594797021873,-0.8520873290730565,20.544897283564186,0.5745456076523112,0.01895507777399465,-0.22648458094165136,-0.2433973502675246,26.160374900717866,0.5085979066805834,0.013548203590979926,-0.17772784642189549,-0.1598568844251905,20.402954366722867,1
0.628272065257768,0.002624885118275021,0.0009760219986848506,0.6400013876864696,29.79867559749694,0.6283895345296956,0.0006643569327113046,-0.00022755570977517348,2.1009002043974148,29.6646679460042,0.6282806970144158,0.0007624461480551409,-0.0007327065030834357,-0.12832704202821793,29.66166858302509,0.5003299684823113,0.005607678376814517,-0.06304672163854197,-0.6609924847837896,19.189724001997565,0.4599979681526215,0.005454722948770996,-0.12938906572060327,-0.563875483606622,16.273509301049568,0.4443101157404838,0.012878909957438772,0.08541967653770921,0.8278092965731523,15.758900258049634,0.515782967797454,0.007948116049238846,-0.2174206353911079,-0.8932753141958365,20.54056582788989,0.5765356767405894,0.0202948231921519,0.36683235115226204,-0.17447090770678209,26.431320907823928,0.5101488001307654,0.014306396191187856,0.2523174880014262,-0.11683914224960512,20.577558188762378,1
0.6285318710325081,0.002625764446302222,-0.011904209062644222,0.6241317967313941,29.823230036798247,0.6285660396206567,0.0006645328739536286,-0.007423284353335502,2.079056965339919,29.68132039500234,0.6285256731679564,0.0007620773080426506,-0.008976690168950308,-0.1556924649094581,29.68473285813761,0.5018521785413675,0.005104675476004853,0.1425134970466687,-0.6850381947080298,19.266916668228106,0.4570693518347153,0.00609264829810715,0.14065885711079695,-0.48341782432950003,16.11928540305544,0.4513343787795611,0.016203612478328553,-0.18072586242609331,0.7613431906929243,16.476771433521236,0.5143277657514711,0.009947450977894914,0.1728254502827672,-0.3298645477105568,20.576090169081734,0.5692925197686104,0.023575676911482508,-0.08484754645593168,-0.1927400520386,26.051648071286742,0.5057596008310393,0.015620024735239125,-0.12260829655326377,-0.11112645382927921,20.34033986786562,1
0.6287308648936207,0.0026331249484758145,0.009073753414967634,0.6104337928641572,29.84253878142823,0.6288729457952641,0.0007213504166525899,0.01803207266845286,1.8615426452236712,29.71446857732329,0.6286703734769403,0.0007671033505004245,0.008384414780636118,-0.16826388838580197,29.69874853450971,0.4980239140021021,0.004262825007339405,-0.0047713372566642875,-0.7372381480417944,18.91753546939111,0.45625648620578196,0.004755295873051986,-0.017246971815573886,-0.3228521776377181,15.964640484969365,0.4539129549955972,0.011435887479206548,0.06341962023499753,0.5725660567334374,16.29902847692391,0.5173803231581343,0.008211078878032279,0.07712236922946342,-0.10695247220455203,20.683799746315557,0.5792635919581751,0.019652531352538406,-0.322970251473124,-0.13791247895635111,26.620260492709374,0.5116237496255591,0.013099031224009077,-0.18483502212496222,-0.07857737503907668,20.60124289914543,1
0.6284484942614638,0.0026350488681552956,0.006120268866786072,0.6266107392321045,29.816056861706073,0.6283694257705273,0.0007336887034552947,0.01049833855453386,1.8636033895883095,29.667903107294368,0.628418305410221,0.0007683762971023567,0.00456194019813938,-0.14018512054853802,29.67507733908461,0.5039505920711068,0.003861160572790521,-0.04692517086882847,-0.9932870324353865,19.333190826047936,0.46017716322788477,0.004780045707998232,-0.011168797070601866,-0.46813438725561923,16.23594999912662,0.446467726137264,0.011356418191448905,-0.041550276080799975,0.7490990627292929,15.790382232330636,0.517649738584016,0.008196807959159658,0.046325773675818416,-0.09660993416903284,20.703657678185323,0.5733807145823312,0.018687014842052076,0.20413228789198296,-0.16974752472184984,26.040247387432707,0.5062457548710839,0.01230542036349857,0.13431402433700668,-0.006559094095158895,20.131958431273418,1
0.6284919714188114,0.0026304229301458357,0.008226905942009255,0.6254249545856201,29.819813157173606,0.6285497280127362,0.0007346689356612461,0.00019764249194309524,1.8398920388915352,29.68497254510528,0.6284549943911214,0.000766343093431,0.006310257954658116,-0.1453150757009562,29.678385387049737,0.5001114514863104,0.003344361159890547,0.057992555752468755,-1.0885155747177366,19.00584251891272,0.45748065058787546,0.004564942091342489,0.04038512028296831,-0.39289821113598866,16.03444663943227,0.45257417627197166,0.010267580026560719,-0.07205546461162537,0.7414457910814823,16.12155479908452,0.5162408318481339,0.007992114061599115,0.014342356243673526,-0.07519365459030244,20.579261175602326,0.5685069995616039,0.018115238445693658,-0.11675323716510227,-0.11167844366043192,25.580543286271645,0.5058233436619752,0.011467503396166161,-0.11073289965282734,-0.0031933753211910087,20.037889375819844,1
0.6284015440851299,0.002631135339937716,-0.06070322160031594,0.6309552338754971,29.811341560798546,0.6284803573379593,0.0007360404081435186,-0.012051160895166002,1.8429863954382049,29.678533957176292,0.6284106061797438,0.0007689317497568374,-0.026967807901982388,-0.13717722441720057,29.674392696421478,0.4985079477812554,0.0061707403504541744,0.014157289486585789,-1.3032050523005072,19.09489783601453,0.458660491431723,0.006345103962764083,-0.2793734269501293,-0.576724605386907,16.24724617327377,0.4479988150083661,0.013056662174239071,0.39245884121328484,0.8189514296594294,16.018913369561204,0.5138738378183564,0.0094285568314672,-0.259602392999966,-0.3352613997365397,20.502687295091054,0.5813813502017624,0.02046792770676173,0.3590472721419081,-0.1001500117002692,26.8649472274822,0.5160473407650807,0.014836162793040123,0.3280003774496779,0.4009985184677463,21.070740389988316,1
0.6265699373401761,0.0005389926489613002,-0.013236894460163184,-2.4687365868565316,29.484126934408543,0.6270950190781815,0.0001671407097464274,0.04618518606688127,-0.13483374784564528,29.505980633971095,0.6271664808114468,0.0005124665245595591,0.10180801865387978,-0.5889543230794556,29.538257121823506,0.5040298881376334,0.005167893420063993,-0.027728845794068424,-1.18473746265166,19.435883723287375,0.45770963845317963,0.007731627456561176,0.19534126798025508,-0.6653590249263643,16.284498916756053,0.44887206331328183,0.0178115698499793,-0.1849981668428905,0.8544574033834933,16.429515860632684,0.5146574714744518,0.011578256055157207,0.3183551794003725,0.08355282301114442,20.722214418917353,0.5692057642585795,0.02642373002876573,0.03869416439415724,-0.2092405429853404,26.25499617701818,0.5035632699979685,0.01818823117882023,-0.030595144183843792,0.004652419539453961,20.364126624061218,1
0.6292515755851927,0.00014951534663122404,-0.05039874916723863,1.8711651418392583,29.707880038884266,0.6289717911971441,0.00010102464361981211,-0.013725029741221362,1.1003627362285338,29.67788938275866,0.6286401995736696,6.479779771821795e-05,-0.002540559340121984,0.7412803394685878,29.64393257603287,0.498440411031384,0.004919308513702744,0.08255681564902106,-1.1594375813790476,18.997242081199122,0.4553322403536608,0.006216942328732798,0.01653301977343602,-0.5213589848280914,16.00961241523752,0.4539790011269207,0.015718618373990897,0.03740337660334436,0.8153814470776806,16.62044776949008,0.5159124420228022,0.009267498580934294,0.048110352937783096,0.3397930287824512,20.64821848253398,0.5767524809849532,0.024284522048513904,-0.3936794302333516,-0.1730151509277821,26.745311455762433,0.5123485050274005,0.015453847597342234,-0.2994291738834839,0.15739970303543904,20.831159017489245,1
0.6283541600514543,5.9264735465386895e-05,0.03790895743100875,-0.6145671676252027,29.616556874472096,0.628338805596712,8.459087994991876e-05,0.01292878794264618,1.2844831049196221,29.616983821518993,0.628243164760032,3.573665263530596e-05,0.01739860220794076,0.1399447319293067,29.604355067372566,0.503265110763503,0.004822393644662806,-0.07012684857982898,-1.3771908288798047,19.352540008090116,0.4619121295998886,0.006177879424550561,-0.1047943257338313,-0.715025294330447,16.459374237779564,0.44488056157442163,0.016012710685393693,0.1165281149150012,0.9250937780799046,16.028844145727092,0.5177755445302651,0.008984826327702804,-0.024462432675846912,0.31792849085059555,20.77174073677095,0.5766149549081447,0.021952475862018157,0.34664408340426317,-0.2759648099083265,26.560843680568464,0.5090404429146737,0.014204403745878388,0.28974043277769124,0.1393684706732711,20.485288816402534,1
0.6284208667958666,3.5102484976917516e-05,-0.00879565160912199,0.6956044133411671,29.621056520723418,0.6285278412581325,8.013310766398782e-05,-0.006155312321664996,1.3901004838336672,29.634473392712763,0.628536617476205,2.7288735597619723e-05,-0.0006010641188914922,0.5801739547327607,29.631390329566425,0.49982649876764035,0.00483044234034689,0.06712178397320262,-1.241876605948982,19.094442398459517,0.4573264100702286,0.006460654368420789,0.10051414457952368,-0.557652277426003,16.164146824342364,0.45176190157652596,0.01722032718436817,-0.153958799847766,0.7534990526281389,16.580965390346158,0.5165584778955669,0.008945332310984145,0.005918291937020537,0.35761722762822007,20.67440417244669,0.5683437544831111,0.022693002939386014,-0.1588919403575329,-0.15381446946537308,25.905378962011472,0.5051711288819163,0.01496912373805559,-0.16192753628306478,0.18001832138712548,20.24755536580333,1
0.6286628976050795,4.792386807742842e-05,-0.011693005928516187,1.0953633111297574,29.644824278128837,0.6285548784121425,8.28055700981454e-05,-0.004986843547061026,1.3390678537555682,29.637220250365008,0.6285316047242026,3.8911392834849726e-05,-0.01176354840832372,1.1107694015857708,29.63177780335838,0.49986061681370897,0.0060777876205701156,-0.06482183013649356,-1.200784524923342,19.189304002025807,0.4577145622185906,0.0071497603630145245,-0.19064357969891554,-0.5791358641635185,16.241778801884777,0.44835543823517765,0.0169148213880437,0.19499219720965344,0.8422366057964599,16.328391707344597,0.5152963388108016,0.010150117097568677,-0.27049119620330003,0.10682135505138769,20.665882424606316,0.5812030207206469,0.02268054589825256,0.17233141325474943,-0.3575205876372209,27.013131743581035,0.515092215246458,0.015929969618661676,0.18873181656119375,0.08994751790967924,21.07781701734371,1
0.6285480662040409,5.181688582673667e-05,0.0014800411296637117,0.8951854595719365,29.634284814214144,0.6285623927229061,8.419925455368238e-05,0.00028857561814432664,1.294970419249679,29.63803186075284,0.6286074444852361,4.3232161394429744e-05,0.002465363003752885,0.8253462070346586,29.639248124612628,0.5038921334378117,0.005769953523094794,-0.056089620064908086,-1.3589909959065767,19.470022721247208,0.46348662250999617,0.007228975512685425,-0.00863536035386575,-0.5292596860326848,16.646432881367996,0.4416324750802175,0.01626608727289009,-0.10245577432046743,0.7317436640279188,15.831633686604786,0.5211419421005903,0.011416369310670098,-0.3315527807051711,0.3512882607939651,21.213980615217707,0.5665396151225962,0.02530957222531577,0.567055860497027,-0.3049780716270876,25.94544350741783,0.503290288367427,0.018769638903287467,0.4101468239880909,-0.014862706762539283,20.38653685621585,1
0.6285455536108874,5.1448945483931666e-05,-0.0032768187857223907,0.9147175575640416,29.634020694267083,0.6284064365266023,8.374445853128151e-05,-0.006968817236901903,1.3525366378842305,29.62329580003601,0.6284443893807381,4.3505024703013904e-05,0.0030883401707790803,0.8851185532184689,29.62389566263768,0.5005762585068729,0.005883486529555577,0.057607593215145414,-1.232399340132635,19.22862229674259,0.4560376511303557,0.006995065958398819,0.0008885443562989259,-0.3885705002652951,16.11541032455841,0.4545843468226986,0.015563471457813572,0.027143558352054287,0.5809382427526237,16.65021651609467,0.5169213252240519,0.009866758109488252,0.09172113981047336,0.20332008861604736,20.77071433545638,0.5698549027898872,0.02326530660290566,-0.1987802266509485,-0.19697460659823707,26.076728456140394,0.5064156307090083,0.018326659878014993,-0.15159126180312826,0.04624069607648862,20.5904321579533,1
0.6284245759987551,4.386542491596579e-05,0.009925998658602997,0.8087028544089515,29.622054620384922,0.6282365096054112,2.5959393998634008e-05,0.02616035129719818,-0.7930242761205628,29.603004395245147,0.6284216338797016,3.82006978792945e-05,0.006979111628092061,0.8997540675450176,29.621358096245604,0.5014748138743522,0.006029659097323563,-0.04725289859964127,-1.2160527139661124,19.30696894447566,0.4592737325977421,0.007462672976496468,-0.1281800685988932,-0.42811029872160716,16.37216490933041,0.4480310266976515,0.0171070781032593,0.24371797611015183,0.5853615625000195,16.320808845922567,0.5152998279120825,0.00917037772307872,0.0669654295061059,0.24271920748939899,20.593651399974462,0.5798557001330727,0.024560588443932975,0.18449364822883302,-0.29494665436671735,27.034931018112243,0.5124581364673081,0.019486220492126602,0.11729770984092217,-0.045095957786829025,21.137980938783322,1
0.6285176999500339,4.200107760987614e-05,-0.0022201991523502773,0.8625069755417466,29.630695516029203,0.6285260352346276,1.5201738454093243e-05,-0.008107309439163823,0.3929258962442132,29.629498201227634,0.6284864871542575,3.678242651917538e-05,-0.0018138203475350778,0.9466523364354471,29.627366739724824,0.4997527142254937,0.006052033864629393,-0.00611802003171219,-1.1452038350330305,19.179308659163674,0.458995252179054,0.007556411519165827,0.05293523693777474,-0.4202009443563243,16.359922566636783,0.450084328584097,0.01754259119992886,-0.01725820587435567,0.5415489006414514,16.491344461569543,0.5178879645410405,0.008944883514495459,-0.027666891219908646,0.1833357023721141,20.777517166307305,0.5671481935155437,0.024923109449064076,-0.00273124890429971,-0.0979815108636821,25.968590604826584,0.5049229715736316,0.020163427440109887,-0.016849208608852417,0.08816599698931128,20.61313417227412,1
0.6285210563076017,4.187503193347742e-05,0.006172236483034332,0.862962565389155,29.631002619014836,0.6285577259829269,1.3352192695234303e-05,0.004630952625492402,0.27343456127966964,29.63234917922157,0.6284878969748582,3.687143307598338e-05,0.0050761143025773725,0.9416797035640305,29.627506234338615,0.5001508799635356,0.00917457661631417,-0.10597037198603687,-1.0264937587955416,19.440236374229684,0.4560906436013111,0.009378545943122228,-0.21790128081054438,-0.460003865025721,16.295413038340413,0.45228444657252853,0.02031624455410481,0.5770395073919424,0.7465130092035924,16.845493642860138,0.5136396465016428,0.010479140962568889,-0.10547011217401314,0.0654559875595504,20.56238291560504,0.5839416179372998,0.02638939791966859,-0.008927414738886918,-0.27007687197920427,27.526901432997832,0.515584072425274,0.02170104780766819,0.0827817562200378,-0.00014970359580315304,21.542897718164713,1
0.6285830877712801,3.6621126363364116e-05,-0.00451623141151658,0.8443137619799584,29.636462330756647,0.6284804375390363,1.1562155708847333e-05,-0.0034753441490993353,0.20042034892980864,29.62493012721683,0.6285777135338583,3.112684818921812e-05,-0.004753830054810115,0.8965293106032289,29.635549033124995,0.5037329804398956,0.006554900774614052,-0.2002990884336125,-0.9403269724931711,19.516081326035945,0.4650833123224615,0.007319951777633986,-0.16087197171875978,-0.2539841240282469,16.76436298660733,0.43767873699094667,0.017785603894247014,0.09028017165061761,0.40488389944378017,15.68333544922355,0.5206021141925338,0.00883408581154063,-0.2783350979948708,0.17334284905043065,20.980714447684207,0.5710073066064953,0.030716677310980833,0.6849620406185623,-0.3775310079776202,26.7267349358629,0.5048631413162876,0.021287554990166407,0.5646202622937575,-0.28850459522831234,20.69178842875355,1
0.6283512913224691,2.892172273914424e-05,-0.011050211618389039,1.356111499029197,29.61404110547878,0.6284834107306075,9.844546934712498e-06,-0.006019682766066681,0.47476494762328897,29.625083313741488,0.6283217092008677,2.516050305312859e-05,-0.008886185302586114,1.2787674175222414,29.61097464620842,0.5019527717265649,0.0062822780870511515,0.10144493533011792,-1.035544503234299,19.36163245674036,0.4563006746378727,0.006644532130135825,0.08528262347058108,-0.2226153745245293,16.107468303253388,0.4538673833908002,0.016815455934323004,-0.15829724422817365,0.33289963300084385,16.69401386709077,0.5137676438231227,0.006973872765253158,0.14040728617158177,-0.07961889145570976,20.312855972595962,0.5673281350218242,0.02620616453129338,-0.17362158645389714,-0.23973931459558837,26.078847134366296,0.5036899129696629,0.018199845298941555,-0.17959291251731768,-0.07633842974312502,20.374553184175664,1
0.6288735554742548,3.0647194226403684e-05,-0.004757632322363814,1.235612757127138,29.663414050485052,0.6286857908029538,1.0465101231996864e-05,-0.0009489543987255544,0.3480279775762567,29.64421118430633,0.6288358167528397,2.7067003839949273e-05,-0.004610444048846474,1.130287390889334,29.659589290624986,0.5002784004824877,0.006298484393123115,-0.03095049608671413,-0.9709835605721189,19.236973694289837,0.4586469891026428,0.006605936179386414,-0.06535174849280606,-0.27774080271439233,16.26561882324357,0.4483154555674838,0.017082757529245023,0.10186305172085813,0.42052878058513105,16.338130134715172,0.5170122285082889,0.006543756414738936,-0.01882709480236011,-0.07579299482079896,20.5318613067237,0.5778847972512823,0.025531624316323484,0.016582190549674247,-0.41468384230035915,26.935653116469616,0.5112000234122512,0.018124016710918473,0.04989526844535985,-0.22697227094551858,20.940587031859433,1
0.6283749243889617,3.2211972364136184e-05,0.006409460849760018,1.3165462930711171,29.616512106017446,0.628424102271786,1.0651048599833617e-05,0.0009894839488489016,0.5090005787220288,29.6195521013039,0.6283492387972051,2.8747758238016754e-05,0.0058009848896729554,1.204759673520207,29.613834776386646,0.5017807491916626,0.0061824973645752115,0.016650628973857468,-1.0529007039949474,19.341298824429533,0.46002511528357787,0.006129565788417429,0.057855576159788646,-0.32712968362245615,16.325320870218068,0.44738124528659395,0.015313039973244114,-0.13484484289406906,0.48034662055678334,16.144413355583833,0.5167106584789132,0.0065532364656981385,0.02832488886540263,-0.06475800883904989,20.509182342390066,0.566441162223971,0.024355144211880973,0.13587519578273993,-0.2763120451799369,25.866449941302427,0.5028791360636177,0.01716553017859887,0.09989750789489904,-0.11413711381704586,20.236806144823106,1
0.6288758681190237,0.00010143082708596528,-0.0016290073374540803,1.3540844436660475,29.668870193888544,0.6285833878721511,1.1152797727264263e-05,0.0009185544651022504,0.6202553207591677,29.634605970194144,0.6286443317490803,2.936315525689799e-05,0.003254638337540139,1.0424893591317372,29.6417000615076,0.49955754471478986,0.007634685349883496,-0.033742213491393946,-1.0220349828645106,19.281797252001585,0.4559391320912604,0.006976438753266022,-0.09350346152239652,-0.26163114736657184,16.107293380651573,0.45406274390673124,0.016824513790283865,0.3649778894216631,0.5888499559114067,16.707987175789242,0.5129481410653133,0.008718912519180786,-0.29529688683327243,-0.5215287679404969,20.37888418309642,0.5803026407432887,0.02383752850344435,-0.05434862988201833,-0.46115628245200085,27.020313723277457,0.5141451614743991,0.01735887884009185,-0.03185834074221669,-0.2079270326873387,21.110450564231996,1
0.6285065140800237,9.780403329461082e-05,0.00344204456457875,1.034085369158952,29.633770366540517,0.6285220590210587,6.733035215261744e-06,-0.0018453280736616673,0.4912105038041493,29.628496645311284,0.628584116701789,1.3636343721109802e-05,0.0015458825545464627,0.5225682549845997,29.63485847216799,0.5034108385629491,0.006751120989558826,-0.17949173344791403,-1.0502525752458272,19.506268381926223,0.4630258511379616,0.006466849945758082,-0.1329762016767837,-0.24950682985019898,16.55801730763863,0.44177492654735195,0.017127980917311054,0.05380144842679149,0.6572025635604126,15.904852017324881,0.5224238643085444,0.008307646358757826,-0.22018887947895377,-0.018388758692600225,21.084267880478507,0.5721969072125448,0.026647845502384478,0.5407673792423952,-0.3567732411121522,26.52763811394656,0.5056440080185662,0.01739104416096391,0.4539543008157689,-0.24309298360588916,20.46262698129233,1
0.6282141282751591,0.00010794787226925479,-0.002839532839962522,1.0345718988311348,29.606962464886774,0.6283137398948059,8.828082774833048e-06,-0.0005115528069914443,0.5924882316145824,29.609014958670166,0.6280886746511157,1.760753374015723e-05,-0.003691676227465135,-0.18834767610061143,29.588456699371406,0.5016946910431221,0.0065844250597664675,0.10521238331465704,-1.0689295155247822,19.364564680986756,0.45682368774088206,0.005766371781807306,0.052577909084238705,-0.24813524136260878,16.078302637942166,0.4532733602280189,0.01603719232334785,-0.008974047213972047,0.5557046224241082,16.596007663857694,0.5160412542727548,0.006865646277172374,0.08574624373257833,-0.576884659212572,20.48045103286561,0.568238994092457,0.022289321264070648,-0.12724697806327429,-0.3369256435817571,25.866576354081786,0.5043834875320992,0.014102585110540609,-0.14132526390847622,-0.12918078714410455,20.12379398530825,1
0.6286484909147654,0.00013111432906257612,-0.010335424203133492,0.6604424375200442,29.649621845056515,0.6285620848010866,1.6720573980819518e-05,-0.0020524871702687353,-0.16165620820263812,29.633009406186204,0.6285647556852232,4.910168746684036e-05,-0.0044890162460278216,-0.3177277266926786,29.635657431594364,0.4998707730077914,0.006508835128853137,-0.07995961655452222,-1.0211667673092653,19.221963027590657,0.4588778159666455,0.005632313267289501,-0.14149508348098833,-0.34317582036632005,16.209454930753328,0.44832798433088517,0.015730228580465813,0.2796857356359039,0.6845538291975579,16.238885530019044,0.5178418004199854,0.006887365482946514,-0.023095354324225437,-0.6234134619552077,20.621674815403942,0.5790714716775265,0.021473792281389775,0.019212440048904544,-0.5353677084019378,26.738343327131084,0.5130966063649043,0.013867086646096611,0.06504922272305136,-0.3065610226487783,20.771273971549764,1
0.6285250544224034,0.00013227693379548591,0.005715648281958474,0.6809373420993858,29.638069295852265,0.628474738215234,1.6210271555104262e-05,0.0023734659862594265,-0.1330511771880354,29.624736803198097,0.6284743579402156,4.949297375883546e-05,0.001777379122519629,-0.2764688828622654,29.62716387418563,0.5021604252774897,0.006396851236705666,0.014857226871346774,-1.1361535888298886,19.385748945131414,0.4604632164351816,0.005098741478201084,0.02095558773264744,-0.471486233098751,16.27928489612435,0.44561360093684643,0.01409704965693385,-0.05531904474016458,0.8875685555390582,15.936042775105832,0.5171506143027593,0.006979587279577918,0.004645726490621782,-0.5888247885269704,20.574846299217864,0.5689751754442288,0.019896082109615933,0.19231549096629935,-0.46696877912048873,25.752266346495894,0.5040229881900719,0.012948582259979288,0.12105296326363973,-0.19209495780352306,20.011133034042164,1
0.6285218416366746,0.00013280685021782866,0.00100698243256081,0.6769677880621898,29.637805612992906,0.6285356803254563,1.606765892388872e-05,-0.0023738164701235798,-0.1750978157906306,29.63047161492418,0.6285616572104699,5.047280820275973e-05,0.002826499329200316,-0.3047021738781107,29.63546675644492,0.49826467872252095,0.007054257793374256,-0.450744564845073,-1.1592971481555494,19.142091831393962,0.4606763812661581,0.005407415270770324,0.03329456401807229,-0.3505173882011511,16.316853349273202,0.4471597488673453,0.015752697614972843,-0.009998781862673722,0.677383948224792,16.16208769904104,0.5182845627219033,0.007274587053865047,-0.20745438532596372,-0.6221238227150688,20.684736038673584,0.5728136172926269,0.019023098488706355,-0.062162846302763586,-0.573300133905303,26.01636729985407,0.508046625910748,0.012652675037486447,0.07891622938181492,-0.27937984608533567,20.29465101022116,1
0.6285621943038324,0.00013333584407672258,0.00022441236396408826,0.6618610598944796,29.64164926056533,0.6285472193708801,1.5996916549705988e-05,0.00022542133807446074,-0.18716926688854832,29.631554295239567,0.6285395857683139,5.070024616056244e-05,-0.0008545163455917493,-0.29553822695014953,29.63340263405115,0.5030972938085095,0.004514838490718692,-0.0609318048800116,-1.0388330485859112,19.31711457612162,0.4618223070660496,0.004123691059665093,-0.15558347464527156,0.041307720661933195,16.301141386200857,0.4417529541213987,0.013835920460059539,0.16578753866333795,0.3910844219045902,15.659783549668095,0.5163733775897795,0.006454988324831663,-0.05461993023413525,-0.648265563324164,20.475779017298326,0.5712444568331247,0.017060826413676063,0.446302529001157,-0.26329658189626753,25.7365183643049,0.506532431573214,0.01028113704745121,0.28895561393234054,-0.14552936047755252,20.003936959171842,1
0.6283798536130998,0.00014503594735348405,-0.013877463408362378,0.5660816550058976,29.62532569211571,0.6284656601641462,1.8212699361830554e-05,-0.008083866369893555,-0.1811854140113373,29.624029190169487,0.6284092245163145,5.694212380350303e-05,0.002822928898833621,-0.34712254584589536,29.621575226451153,0.5018172890086436,0.004304631470598641,0.05229668154632566,-1.0662077249200423,19.205087094923137,0.45871150115130366,0.003412834214929813,0.036623384832102035,-0.08054546154673685,16.033767828540988,0.45186612518398683,0.011014979712238283,-0.052681379210888446,0.736713441671681,16.128833130364917,0.5160869284206908,0.006738328568022061,-0.011549236724254563,-0.5577754504021006,20.47456514053637,0.5703158716488451,0.013295641852577313,-0.007832766459250962,-0.35624902972755146,25.37839200618437,0.5064719362191752,0.008232170397673563,-0.012564099830131292,-0.19023267452093567,19.847717272747854,1
0.6288390462753636,0.00015914730203749945,-0.016502656301283558,0.4402173908312706,29.669667859388937,0.6286904380423766,2.1499256137899392e-05,-0.008050280463319681,-0.11028141041874168,29.645465961397857,0.6287210505343768,6.533920925119467e-05,-0.018657568708739025,-0.35599592073055114,29.65159705536337,0.5001688536057975,0.004199158360790533,-0.02887237698055528,-1.06499956020453,19.073403877498837,0.45879972633740496,0.003529599257899189,-0.05712848182037539,-0.04871237925629795,16.04847951163036,0.4470356571842846,0.012183024312670038,0.14930248255254527,0.48395993833955286,15.88960970870148,0.5184498521341562,0.00688126598056916,-0.040104975518870045,-0.6082221411624685,20.668482370906755,0.5770240840526822,0.014589761738171116,0.14667945442521907,-0.3661258327292378,26.051401886887437,0.5106363682507836,0.008735975820713743,0.09307337758608711,-0.222812559445679,20.20267475425906,1
0.6286218028038985,0.0001621647944174162,0.015172348706834593,0.44696923842287034,29.649403016818635,0.6285575494352427,2.2677685545767005e-05,0.007861681516843633,-0.10538276191396379,29.633022620133204,0.6286232984437419,6.601495017488008e-05,0.012678588944853297,-0.3649666880508723,29.642428957284675,0.5015425610523255,0.004206781693354995,-0.015009176477293995,-1.1207723546126755,19.177172386327705,0.4588009157810832,0.0035728361925013593,-0.008316655624747982,-0.05926018981231285,16.05176090236214,0.44865543541041547,0.013062824149172692,-0.036307669428848166,0.49561103857128513,16.063526466286984,0.5169483163287146,0.006931202151837753,0.03298888303533026,-0.5585931851835202,20.555576090867955,0.5702951215487471,0.015149593577698349,0.0219111645053488,-0.21129147632218473,25.513809349422196,0.5064199599473357,0.008922592005151804,0.004072879490556736,-0.0915996406734039,19.89485999586081,1
0.628043348824759,0.0001638541953320461,0.038632997599833185,0.5112395517309117,29.59500881068092,0.6284291286392683,2.306158268996461e-05,0.006746522795843535,-0.045304237078896324,29.620944286292307,0.6283369394191097,6.728733907689385e-05,0.006093625301308525,-0.2822564189332262,29.615527470984738,0.5032744234974454,0.004564640811971002,0.013152906612050486,-0.8511710592289264,19.33416932108731,0.458633887224282,0.003572547016364491,-0.03489265434365524,-0.048866642844597165,16.04024666749513,0.4490732509591344,0.013172984508741043,-0.015505030806455627,0.4746679132411341,16.09980970817227,0.5176118156816674,0.0069979326467620034,-0.007903657842836309,-0.5698713303104349,20.611996395855815,0.5748326452980499,0.015172265154410544,0.009587491585747954,-0.3116273818800423,25.9051903789529,0.508479547565818,0.008979584138152247,0.027534574660797118,-0.14923719633416294,20.055847998178695,1
0.6284368500680244,9.648048423876105e-05,0.012156390533003658,0.06001841100802038,29.627105145090212,0.6284935070703301,2.209980189025623e-05,0.0012342556942568361,-0.12773051095201887,29.62694201755711,0.62849851532875,6.852326008530172e-05,0.002257379022765127,-0.31371098957116533,29.630849504029538,0.5021858490708506,0.0047535581914728816,0.011731267572949622,-1.1908984168173156,19.266060331694828,0.4599854540662703,0.0034908749337995036,-0.05147441714557166,0.13533124467015278,16.127321091542626,0.4487086796958816,0.012536073122615822,0.04498070024166001,0.3304782177517468,16.028130353655165,0.5191254646144824,0.008999590868197398,0.09195334726264848,-0.4793803568748137,20.87781332508677,0.5709469933208076,0.014631534289872754,0.0004523033339244864,-0.18033176263292033,25.531268726105854,0.506013519745396,0.008512787845267539,-0.0052911570621221315,-0.2110852637381716,19.83367246293411,1
0.628352245139127,8.452837283325476e-05,-0.002245903542838712,-0.032469236431251484,29.618245897443288,0.6284920093315012,2.0371302413915922e-05,-0.0027035343436231374,-0.2790377563086248,29.626672910894698,0.6284141431574471,6.664193573286329e-05,-0.004002914610643504,-0.3281806893167215,29.622756652267366,0.5010530253340187,0.00460365644870791,-0.03736385062280012,-1.1979582010769967,19.169730641932347,0.4580443126418344,0.0032270592863317903,-0.052798547760223524,-0.12450776073361618,15.97414681295334,0.4505564056650103,0.012855960656063904,0.1327593609387983,0.3427856959229476,16.176421689981726,0.5148375567011246,0.008852874454301675,-0.0401760618207509,-0.49913943100391667,20.534440943867093,0.5738301624981518,0.013919775354772365,0.05128078223956789,-0.17635790172620663,25.726142530702315,0.5090593496596011,0.008404582181028524,0.009822461426363727,-0.07999502584792452,20.057545692085316,1
0.6283386634371705,7.423808352618127e-05,-0.003933656987665568,-0.14561984298333955,29.616204315931665,0.6283008967707349,1.5693756630951388e-05,0.006166258252905177,-0.815355477844469,29.60831260420891,0.62810048336603,4.957993684449164e-05,0.01588943423276712,-1.1452407720358773,29.591935205674524,0.500712609907192,0.004652211092051732,-0.01449217720714624,-1.1501964786329293,19.14774744981721,0.45848952670507565,0.003224718389127299,-0.04693246793773126,-0.15555451579075447,16.00457761816374,0.44895905596345737,0.013180089755207342,0.12373672776481343,0.37840755053792,16.09264418675526,0.5183426210888352,0.008777503278786694,-0.021353929723854415,-0.5946580846903844,20.800465705423502,0.5748048328812633,0.014174897942184076,0.012332407782430832,-0.2185826390708705,25.8289871404959,0.5093032704323429,0.008410916264383795,0.0003371463109093087,-0.09432634983005166,20.076644399045417,1
0.6284844738815116,5.847707281465366e-05,0.004046143448510953,0.051904127706984944,29.628782346647313,0.6285246142437321,1.0860992835287322e-05,0.0008014972577240487,0.036638716998277164,29.62904301673722,0.6284239732259259,3.253778483195246e-05,-2.6821825573342117e-05,-0.31924329028309456,29.621159555457012,0.5013478573090783,0.004623430829181562,-0.009563806397007157,-1.1852020417357583,19.193359433489736,0.4588378122908018,0.0031563713829732723,-0.018732430973749492,-0.17830151026239965,16.023481831425705,0.44827972933590987,0.01285514260050525,-0.0020023237925751447,0.4165298427283336,16.022884232448135,0.5167453064657472,0.008716305771268723,-0.0011166506314966296,-0.5514953065150063,20.671935008652312,0.5720307920475068,0.013887774770896694,0.0779872829373468,-0.16380003076251975,25.569137361833718,0.5072565077801874,0.008128191275540394,0.020682690869619602,-0.0643089451128997,19.899673505791334,1
0.6284755232908271,5.871561205253026e-05,0.0006762899545059708,0.0760080620203066,29.627956208467822,0.6284979964437488,1.104159263155822e-05,0.00148647749840769,0.059344265832512,29.626546942890215,0.6285269178940227,3.441092355653199e-05,0.002447772375947066,-0.29551937395401906,29.631002897145148,0.5040958179313535,0.005163734964239031,0.16278833108166946,-0.876556248430568,19.44056091154472,0.4585661356555328,0.0032919421566719653,0.10538646945327612,-0.10000690564796998,16.014821277347355,0.44938164200447045,0.013385237285932784,-0.34073132626318303,0.28651639445203325,16.136297071956584,0.5189918323102648,0.008896514499558325,0.09139103573725871,-0.5790097058164997,20.859781223324763,0.5721830795825433,0.013654865334593685,-0.06116909532819437,-0.1722343465558622,25.564970776802173,0.5069866785216929,0.008110883175544455,-0.15867488366842303,-0.058886793035061086,19.877867269874674,1
0.6285937385721133,5.825776829019162e-05,-0.0034599140392124195,0.03777497872084263,29.639067687758462,0.6285418866889949,1.106072071257476e-05,-0.00036398386655989157,0.02481345660315991,29.63068624252483,0.6285024364990229,3.37805400792444e-05,-0.003172650622023987,-0.2803185111403994,29.628648211356488,0.5037788691622127,0.005837838949714296,0.10925748235653249,-1.099983494528556,19.466486258355683,0.46077634616658497,0.0039035398813667176,0.09484968471825372,-0.15200127713642742,16.212475040218276,0.4493351439826541,0.012904003841651007,-0.31434672782563505,0.48719746988876733,16.09755165562561,0.5199125432771192,0.011313496226907789,-0.1094122268547747,-0.7265176314276794,21.110377670057364,0.5623194867458599,0.016603160512403174,0.06243673071952083,-0.27080062096007046,24.943874265977378,0.501542971538643,0.009486914179569128,0.05590607665162334,-0.04160014496097637,19.56793307177402,1
0.6284039698603986,5.7544355989766585e-05,0.004245324494607905,0.10933476344213111,29.621124482566394,0.6284702421935732,1.0961156193898009e-05,0.0006280194809814565,0.08492147640529822,29.623924524771994,0.6284003363972228,3.317049918435052e-05,0.00019190871034613366,-0.24846233813571814,29.61897832575036,0.4990084649132709,0.0059438333897295715,0.03922309813995212,-0.9735608570454855,19.11555227497242,0.458067093375327,0.003735736718293773,-0.03381927128796358,-0.11594088392495436,16.013354169652782,0.45271942102840956,0.012616153359536732,0.06377797085024695,0.38377723456270574,16.3052109118281,0.512771008908126,0.011879850251857121,-0.15501582437373496,-0.6551051850495526,20.59916698688674,0.5745645256622298,0.01472151005996262,-0.21861881075411982,-0.2802695386861424,25.848721305646965,0.5101783752423524,0.008756996897447768,-0.07681317702744395,-0.17386559268544027,20.169165862780623,1
0.6284556011479422,4.4044701613301935e-05,0.013501490404051908,0.41613729197685045,29.62499250398598,0.6284918894978572,8.313879735937506e-06,0.006873138451353178,0.2728452519796924,29.625769364444473,0.6283724250604775,2.5520217338590023e-05,0.011185129595341459,-0.001724050254604895,29.61578133931197,0.5022556025507442,0.0060718913069579975,-0.05748522737191647,-1.0418927457936351,19.368871728735723,0.46010704373537853,0.003662083403987944,-0.00595614676066325,-0.20185884323772285,16.148381049013324,0.4446968331041214,0.012095327311970399,0.03220742144050831,0.5852518894266642,15.726699724048427,0.5208522899397634,0.01193578601350786,0.007680239352761298,-0.850277297975954,21.22978126016173,0.5736646154638341,0.014032476779618872,0.20979464482915944,-0.273184385908248,25.720235109336944,0.5068920121177681,0.008599720401478097,0.1592042019069892,-0.07478074476084404,19.906842705869355,1
0.6288138154204326,2.6047186796081752e-05,0.005113487514652348,0.6222523767005914,29.65743857659307,0.6286661893637393,3.4706549049124145e-06,0.002127828364235418,0.28941643523669947,29.641845152147322,0.628790937750587,1.5332481138246938e-05,0.002817675708786105,0.22783762721094517,29.654487858398923,0.5016818308876346,0.006003356505202321,0.033216305854471384,-1.036919398361751,19.320597839592658,0.4588471107374021,0.0033458100302296975,0.02422859552852663,-0.22235560737366297,16.03814026964163,0.44888676132803434,0.009610768194368319,-0.12899781052750753,0.9060909154707659,15.823646183551132,0.5152438093544985,0.011792201575201533,0.06064305281656018,-0.7243983726669847,20.783336647425017,0.568142649367183,0.012101601364333147,0.04483971946706167,-0.3361003001145698,25.104473753207788,0.505090741703211,0.007368508462758926,0.014201674519881413,-0.11051143786576585,19.67901892781664,1
0.6282593552574098,2.5929083350164886e-05,0.007255335223741,0.45873890320297384,29.60515506230214,0.6283697699720221,2.929751337459854e-06,0.002619913403678953,-0.581500954556244,29.613859387700867,0.6282629123705186,1.4573464958014736e-05,0.00787057064770047,-0.051721805199156715,29.604649965928346,0.5022038101630514,0.006076335163918105,0.08411529593796824,-1.0289341562897236,19.365298822801392,0.4581464545853666,0.0033077111471734753,-0.003700249861859961,-0.18708099921788157,15.987133663576445,0.4506726469645514,0.009336832545604662,-0.040866103342714954,0.8904138983723914,15.923863212527388,0.5185998813390456,0.011811079339356921,0.059335775036984506,-0.807234384113576,21.044957640477826,0.575494735064693,0.011595708795118625,-0.02013538060419462,-0.5110960395082521,25.69764670737736,0.5097554595807924,0.007138620697787859,-0.03590412495874756,-0.25669409329451504,20.017055074568162,1
0.6282877093373563,1.5549820847109837e-05,0.0009601751086090182,-0.17056101538507346,29.607059114571364,0.6284352262000719,3.456836185743551e-06,-0.002662849608087159,0.2220785236645041,29.62006832056291,0.6283292889249318,1.3333730404035268e-05,-0.0013360816265881592,0.16361110981311824,29.610813845118177,0.503579845813002,0.005213906073692765,0.22786085192020583,-0.7906039316081909,19.40527863263178,0.4562829195884363,0.003798568478499773,0.22834057219978698,-0.1287450740146452,15.89565177052004,0.4541286061289209,0.010754032716984552,-0.16836692527357516,0.8402193245518949,16.2632577389016,0.5140325262691616,0.013241566394862403,0.35241090687990156,-0.7175356449188434,20.797083767919037,0.5675547475093058,0.01351313558900435,-0.366447797609187,-0.5167600610323403,25.158851390112712,0.5046372425542914,0.00823975447442865,-0.3529179252505031,-0.17832025652719752,19.709147824067625,1
0.6286250116334744,1.439356532601091e-05,-0.002177200798087253,-0.2028138784389524,29.638770517673052,0.6285796600681417,3.431070278921221e-06,0.00017368946193063728,0.1191428410869598,29.63368307805418,0.6285662034885583,1.3073599689633833e-05,-0.0016927651244290631,0.07105316437185456,29.63312785897852,0.4975285162282151,0.004596935472289424,0.0391647290676963,-0.6810269211172731,18.90527005946811,0.4578101773251389,0.0029537056151860324,-0.09777885673554348,-0.04105956753259531,15.937836100209406,0.450670003844657,0.008453293141117271,0.2200471968369056,0.8239505609784552,15.858302619843418,0.5148023706211764,0.008681935545346287,-0.07100586279745136,-0.9918758961426032,20.519074290144353,0.5820285168257411,0.012072071230856707,-0.1317927182241453,-0.5555484264023697,26.300122850961298,0.5146197232433815,0.0065811765419285725,-0.003267384384598726,-0.22566412138968153,20.349516530434816,1
0.6284701327031076,1.439280816737615e-05,0.0005244670960372622,-0.09999497842467449,29.624168145294014,0.6284897352821642,3.5156242630427797e-06,0.0019018923117006814,0.18559990514319277,29.625211207823824,0.6284731833350662,1.326867211642195e-05,9.804226164256136e-05,0.13162109332717153,29.624372544584997,0.5032243525393153,0.004424727147745872,-0.09419135851560978,-0.9182830035725091,19.32003598307918,0.4601909521551487,0.0028607373128215503,-0.024978463374560667,-0.12440198540382331,16.09487299455847,0.4455258516112847,0.00783832851444356,0.03559569977623947,0.9718581227887524,15.467032644115859,0.5201610930134282,0.008498773339982672,0.03569569922905602,-1.1403440007918135,20.92147642852803,0.5704546594653539,0.010837851875789145,0.184505789444814,-0.5890947622710568,25.20838992673836,0.5047408579255542,0.0058566269907755234,0.14931756624897274,-0.2621146054091821,19.54064042177423,1
0.6284815848016126,1.2369418071703556e-05,-0.006078403463558035,-0.23068817752874293,29.62509801954329,0.6284759040068476,3.6521774519508275e-06,-0.0011843806393425638,0.0895882056847263,29.62391740492327,0.6284664024688625,1.1429304917371088e-05,-0.006741723783888265,0.1733991904442006,29.62359719597547,0.5009862134861355,0.004290842863990741,0.02546979401619559,-0.8947808001099085,19.141561329673486,0.45790472822022527,0.00284994393048835,-0.008463491736436068,-0.0021206868583915203,15.936651360339004,0.45035412732197,0.007603408109142847,0.06345693356873383,0.8949432460527053,15.77406519977155,0.5154091841782398,0.008423807290804452,0.024973364218074,-1.0115460389047848,20.54685877466543,0.5735164717103004,0.01066729713888506,-0.02896594495898941,-0.6610346564781014,25.458465737504874,0.5087722257700769,0.005789957992031927,-0.08140182752383995,-0.34788254881169717,19.842145220038212,1
0.6285877339145536,1.138556276205616e-05,-0.0034322097966408283,-0.35494912236531867,29.63503297373192,0.6285251285810985,4.330436850716944e-06,-0.006415315246595887,-0.2543735314605289,29.62860824666844,0.6285774868424293,1.0136486017781133e-05,-0.0032367009712800376,0.11934417719390834,29.633974372351144,0.5019673987081897,0.00440276060140415,0.08821701495655943,-0.8711468269719029,19.223649486943902,0.45849209449661626,0.0028681887948725985,-0.04104189323127899,-0.03515617257889924,15.978371024512633,0.4486457599914909,0.007808691657617645,-0.12056496747170325,0.9004673828760471,15.674069529539397,0.5172836181755841,0.00848339733254801,-0.09907346844518322,-1.0607071185685908,20.69644702507032,0.5729690111678422,0.011061661659398552,0.17179964149807636,-0.5837853228039858,25.440574544694606,0.5084884470387201,0.005757874447726945,0.023356956760615888,-0.34706864408813287,19.81812026702049,1
0.6284330790769486,1.7664309675201225e-05,-0.004372470947052287,0.31655497773284996,29.620917274776033,0.6284967785989602,7.507546653425598e-06,-0.0005370487644805744,0.7830293372362055,29.62617061164763,0.628437828370305,1.1755161294606267e-05,-0.006126442287001654,0.1409773960076071,29.620927691444674,0.5030929949748333,0.004485804364512307,0.10378848398541485,-1.21525367407753,19.31464164242999,0.4541188436093124,0.003270649915973752,0.20379253614118154,-0.4087352295243213,15.708822402861486,0.4588531184073063,0.009778979880111234,-0.27469386137213914,1.4077457517998087,16.514608331536447,0.5135259091322716,0.011162214282509264,0.5898558248609445,-0.9964420431450489,20.60416830816514,0.5685225720282188,0.012692576082537469,-0.5071073658336142,-0.7630321490788794,25.18059424802636,0.5048211750386346,0.006866800072204541,-0.38332784036673284,-0.5492439864729037,19.621474612897206,1
0.6287205999959291,2.712600477210386e-05,0.009402639740885732,0.43895093719737993,29.648726788796214,0.628539259388334,8.833234485783112e-06,0.005381540405969165,0.5768699394130584,29.6302737037846,0.6286668716062839,1.9883530228521397e-05,0.010724979154351888,0.6422585557719442,29.6431240403793,0.4967233754629648,0.0047952509475149094,-0.0002672816032514569,-1.0300118942912078,18.859906949965215,0.45809029139617913,0.0025543629938032863,-0.011108870765011936,0.08363892687683994,15.927526491899163,0.44981796302423466,0.008511293137895257,0.1469599456040846,1.0747559585009092,15.805050681649629,0.5171756714483464,0.00879103171633215,-0.10769713211950405,-0.7655950505096882,20.71083698236218,0.5786588432722456,0.011721188466013216,-0.15475569814794354,-0.6323538880869353,25.980822213772964,0.5121977973481499,0.0063615836340738694,0.004903780551322678,-0.5531291295450704,20.146750959543702,1
0.6283651497221953,3.2647264624886844e-05,-0.007630076990190582,0.46450617378088876,29.615623001487005,0.6284536105528283,1.0268212705085486e-05,-0.0066330489405622695,0.4736073644193356,29.62230539400663,0.6283607672003366,2.5764498131502002e-05,-0.00875388504862129,0.5790272089668133,29.614700604606398,0.5029723915830937,0.004563291642116686,-0.043330089787397386,-1.2801796228696087,19.311275583627907,0.4590051258089378,0.002507300640773469,0.006703510809992208,0.039989797792357326,15.986968161333154,0.4492230801675354,0.008418658904044038,-0.08328357018149213,1.073544635388232,15.758083940539853,0.5188474017922704,0.007907821140126984,0.031313090487044754,-0.7444299053660148,20.775375740363614,0.5716777933802846,0.010936236206152361,-0.0017696165941774034,-0.5952094602576529,25.320443937566623,0.5057465545937483,0.006211225043814802,0.049295544662542434,-0.40819955453352536,19.64309896450083,1
0.6286989754835559,3.368345833198537e-05,0.0019522331852871444,0.30549780039550806,29.64717270897203,0.6286039197998147,1.0668378948362642e-05,0.001982291104703937,0.34428369142341153,29.63650605911907,0.6286671057328866,2.695024579679694e-05,0.002554134088308735,0.4104610090864211,29.64366905548131,0.5004795255139246,0.004506057992170018,0.037219338649375044,-1.2083462162679939,19.11942995081881,0.45854918056465055,0.0024934314396809335,0.019584297413653196,0.06986094793665182,15.95456525127483,0.4508334900599373,0.008597340185448948,-0.02139382150476371,0.9787296267768145,15.880015855694984,0.51534860951849,0.007932905208239794,0.004086888448232268,-0.6273100208188523,20.50584918535783,0.5723676634651295,0.011013493729792117,-0.048108996508079205,-0.6057682089581882,25.3853541995445,0.5078591544624377,0.006173425073736991,-0.041367988097145425,-0.48298641088543726,19.800902513304205,1
0.6283875787220626,3.395249723608705e-05,-0.0016643432702757588,0.4497750186002661,29.6178336667087,0.6284552748657145,1.0852622958898503e-05,-0.0007423252559064508,0.4552334608207649,29.62250553208951,0.6283595080890642,2.7291725181541316e-05,-0.0004112419695760927,0.5620129217745062,29.614694943108226,0.5011116462249774,0.004495349506201445,-0.03985270535503371,-1.2401466698981236,19.166122012131922,0.45862468332863643,0.002500549046941554,0.0038298801372895763,0.06433831380944999,15.960285641345575,0.44899940709297026,0.008571724046636902,0.034826197202613984,1.0417596496106976,15.754342647189041,0.518072343956635,0.007888639295920815,0.008570892075003944,-0.7170528480744849,20.71368082585229,0.5743694522862355,0.010984736175962571,0.018571549284099098,-0.6645932851718871,25.555390555990485,0.5082763397925264,0.0061509561426740115,0.0123525454444246,-0.5018519534821142,19.831033574024453,1
0.6283752053785623,2.8759396562074733e-05,-0.0023351276187210113,0.6496771562101383,29.61628310043687,0.6284378208606539,9.689726860133348e-06,-0.0017247509268435435,0.44674053509408984,29.620774141394204,0.6283745080223833,2.3828631586997216e-05,-0.0010747084034281595,0.6803525705755816,29.61585249366535,0.5006057877592728,0.005110770021195059,0.03970888516687571,-1.067995636184239,19.17365858692459,0.4563514050914006,0.0031122454055514852,-0.07104572491580202,-0.022947537788285836,15.849551529677978,0.45049656359827583,0.009083174156602779,0.11624404377994454,0.9000787470302596,15.893191423627762,0.5123835747588841,0.009213166067559635,-0.04655705960156076,-0.7127961457687819,20.372043865201388,0.5756581569091398,0.011446884346061571,-0.0034705035980830967,-0.5933076459235825,25.700742962810637,0.5113009527819262,0.006924763389032823,-0.012348449551318086,-0.3013437974078504,20.11958231446634,1
0.6286539702705715,2.7457603060533902e-05,-0.00359553160662196,0.5915142373770932,29.64246793789792,0.6285795206580851,9.01076241428827e-06,-0.0021997446352152172,0.4626982941697644,29.634082830724758,0.6286199466244158,2.2816368257437297e-05,-0.0028096191612985155,0.6269332287085186,29.638916208307293,0.5002831432160746,0.005246342108292851,-0.036630799002823955,-1.0220542607293364,19.159471069975332,0.458364320951919,0.002738886796668912,0.008949737932886226,-0.09081985058131156,15.960016427082037,0.4494232740008514,0.008325697891508258,0.03350570413721715,0.897538893464644,15.76469758499494,0.5183575331359769,0.00866580604506394,0.01956426157035729,-0.551121919017443,20.793359559245875,0.5761418566930032,0.010708018274325996,-0.02677279760990947,-0.46031999746893376,25.6878512798247,0.5087909003265584,0.0065317372490573365,0.002821381548238966,-0.2790437638452599,19.89846207556349,1
0.6284746832777329,2.666950227454801e-05,0.002319956811264179,0.7059650636688343,29.625505607246826,0.6284994753375411,8.97158585160389e-06,0.003990598193656436,0.5348991328542073,29.626533184820357,0.6284528878451707,2.218659638044209e-05,0.0024443254579504803,0.7446769809269503,29.62311922620226,0.5025223587627046,0.005383862873503009,-0.004412779195710925,-1.0761468557644247,19.33805993187165,0.4591552940265109,0.002686669567836781,-0.002061660868445059,-0.12279850607969457,16.0105823504628,0.447473809624778,0.007875038592207145,0.025867456100866104,0.9896025443937885,15.600213628331732,0.5179043540296193,0.008844746990331904,0.05742063896285629,-0.549201338390268,20.771380271497353,0.5724209661106585,0.009557606473559218,0.10209120759650914,-0.581302370680387,25.28219506227285,0.5060068650631155,0.006644140575637725,0.031314987758416735,-0.1577200058465043,19.69488746442234,1
0.6285426577518064,2.6409396562021147e-05,-0.0010101024509714396,0.6784383492130744,29.63189474137343,0.6284834596607122,8.81022380588625e-06,-0.002913753378024686,0.5769611440078585,29.625011386593982,0.6285189354662598,2.1926666528575483e-05,-0.0007984302727236381,0.7181753365461847,29.629326491296148,0.5007288195942116,0.0053000573554093,0.011148416527206328,-1.032405044477971,19.196905552216222,0.4583175279475955,0.002629191259406513,0.040448567662933865,-0.09239877202960155,15.948681884995713,0.45001180986851136,0.0075679916164889584,-0.06601505239148214,0.9979267699903731,15.74832855620518,0.5160619590878558,0.008857144854625557,-0.013172954792473712,-0.4889206480277655,20.629424640561965,0.5712854631385695,0.009028080845801218,-0.04623706445854725,-0.5628882527416089,25.14560901209804,0.5074727310243712,0.006139866820277659,-0.04738177287329626,-0.18194167381868326,19.768993099700587,1
0.628505303309759,2.6413157782253398e-05,-0.0012416708450743164,0.7001516841883219,29.628373295312798,0.628534075923181,8.482743938611824e-06,-0.00256936708043376,0.5843592869596843,29.629759067796986,0.6284809549204737,2.1939108810662254e-05,-0.001297716305447394,0.7418892247864782,29.625746796383282,0.5008778452745789,0.005300047024807029,-0.01130952512545269,-1.037856010155224,19.20809967135359,0.4580268029306207,0.0026252685767437015,-0.009544261370611484,-0.0784025547260514,15.92841128989245,0.45022127239233506,0.007578954398275703,0.047345522661259465,0.9920783476196043,15.763282184065384,0.518014802991643,0.00885910928334496,-0.0382000867155165,-0.5492467747931276,20.781024295852838,0.5741529250422088,0.009009050995711977,-0.028625267960169065,-0.6493113920304403,25.390538373772007,0.5085163684163098,0.006031365151973428,-0.020547226083253933,-0.22298692735292258,19.840488292294438,1
0.6285816928854185,3.4145370903483375e-05,-0.02545481542217609,0.5674859631782739,29.63614760474925,0.628721516982283,1.204164322154045e-05,-0.009574578157483304,0.33357453570682005,29.64769702533611,0.6286291883296182,3.582967359950459e-05,-0.007872716169903815,0.3667208465359706,29.640750627342946,0.49710349925547975,0.006176473588836483,0.3374613200975051,-1.1167822069957358,18.990450718477103,0.45598641698145986,0.0030592434419580332,-0.2016754920240365,-0.34621844916541783,15.820654950074129,0.4536582421605171,0.008781367916681635,0.36236089820901113,1.006086299247725,16.085256276847215,0.5119127590708947,0.010579023760057572,-0.310464499582898,-0.570134484476341,20.436948225712456,0.5779400147884377,0.010038151392124446,0.13214648874049484,-0.3878713385918464,25.793922755041685,0.5129776230997729,0.007012882546932372,0.01670488098450279,-0.01575311489671919,20.254906443554944,1
0.6290764929424149,0.00011903152705237832,0.02993617725926867,2.5609629022716205,29.68910088095649,0.6286514938974289,1.4918962747767003e-05,0.0057980313648358095,0.5564031233286539,29.641306561703512,0.6286601828455496,3.5670846116939054e-05,0.015068681913936732,0.3491966061451969,29.643661554767647,0.49963395074821637,0.00457752710550118,-0.11314840817533184,-0.7648458304943022,19.061293361327422,0.45862768996923964,0.002259993911156317,-0.060807216506905126,-0.36837814445953265,15.94269139991464,0.44713179598913344,0.006455123823084944,0.13954890566307626,0.8335773128522177,15.472192386743393,0.5162504228050266,0.007477213427084916,0.11144500969916277,-0.5694054437875238,20.54190122208194,0.5800779633441532,0.010673402509572607,0.10892109909634151,-0.34755813498381527,26.02661505252093,0.5117300099007106,0.006020853103107452,0.06320642179495861,0.04394554802753433,20.085613357103558,1
0.6280252647823494,0.00013020198726561877,0.018749584091594218,2.179979189268901,29.59081493742817,0.6283256401848254,1.4279615269502166e-05,0.00012051425568271323,0.7426770750557606,29.610539950055244,0.6281428818338389,2.6175265956917648e-05,0.0064219625967721905,0.1803563542135085,29.594197969569823,0.5029711609689966,0.004241140908212034,-0.03457027294876114,-0.8759065337119063,19.28734358469521,0.45844004429745583,0.002189531391483855,-0.0024620960684243465,-0.3835492499856102,15.924570889128802,0.4506759939560895,0.006023505343039852,-0.010312664704802577,0.8560221876528326,15.67890326000814,0.5160600416369996,0.0072385441687580435,0.025488682731269252,-0.5807516125578146,20.50949976156673,0.5706215485363318,0.009741072990583964,0.020075027219425334,-0.35681652055440777,25.141510775353307,0.5062443647535484,0.005640394970411256,0.04247627383870384,0.15619769953465326,19.63864099116471,1
0.6287812841552533,0.0001304100975268123,-0.0038074400369636496,2.018595517289894,29.66209309501169,0.6286607068386841,1.358586404645084e-05,-0.003285458713875755,0.6182145836142144,29.642076678157984,0.628700918104981,2.256930564816874e-05,-0.0005456657909358453,0.13852896520243682,29.64653346057141,0.5000957409062818,0.004096962265770256,-0.004565049796044385,-0.8302050064714003,19.06035646311222,0.45878485270779396,0.002256068307299904,-0.002635063187378772,-0.3670754908722908,15.953214635298615,0.4491444507732385,0.006111046547574021,0.0582272737348844,0.8522667064902814,15.58202276905004,0.5173997666290426,0.006989758305237728,0.014604132743837317,-0.6850320119052994,20.594931002671668,0.5747972327049258,0.009883659116397759,0.049213982794741096,-0.440333710835584,25.510780179006478,0.5090149648982183,0.005730913349577408,0.06848635558254151,0.11752684924699988,19.85630517464381,1
0.6283640026530506,0.00012990064911200074,0.004424604673853971,2.137037947691662,29.622711635296504,0.6284445021667752,1.3235966895140092e-05,0.002510427025318007,0.7944363502561975,29.621666384323678,0.6283517261319581,2.1493329059707545e-05,0.0016951779472358375,0.3208615123261398,29.613532386326263,0.5013432270082989,0.004059099825550695,-0.014961625127191569,-0.8933296500755007,19.151250732122854,0.4585020339923094,0.0023160679121788695,0.029035024760489747,-0.33832933003502363,15.938197663632595,0.44941224841687594,0.006552411392671917,-0.04269930307286801,0.8173053257154387,15.632731120091103,0.5173381907897983,0.007015430785863916,0.003873368902488794,-0.6848842050246272,20.59205215187855,0.5714364405304313,0.010112337039391774,-0.03363558028905311,-0.3468855348908662,25.238783358371673,0.5063427718825326,0.005980606815416691,-0.03799723763502494,0.19182382999022357,19.671290102167326,1
0.6284491325033512,0.00013758296033580678,0.010166188288656675,1.9032252719628553,29.63130454988095,0.6284820481819666,1.5622627645286676e-05,0.005149243192204889,0.3745906239743096,29.625382440970732,0.6284143617192348,2.622011542854864e-05,0.005059522796444282,-0.09107503177675033,29.619786039666188,0.49970451915816283,0.005453518051636683,-0.06370531496095502,-1.0577029895060936,19.131405820852915,0.4574120442481248,0.003215422904619338,-0.21248267134635695,-0.8892422038141862,15.92987466168547,0.4485116717190571,0.0074108040096161655,0.19935736824737327,0.6665711294911114,15.63560347182834,0.5119542530473076,0.013463821030929251,-0.48100152037220173,-1.244866638301473,20.653609547280762,0.5790429064210151,0.011377013034934248,0.2060047023112745,-0.3002452747940362,25.988700525322376,0.5116369027687785,0.008250862767829837,0.2618124176127318,0.35422783200521396,20.24348786543154,1
0.6283726285167792,0.0001547083148094658,-0.015254805954924566,1.6754962651621998,29.625360435477372,0.6284002166498515,2.2338875213659157e-05,-0.010482942339211765,0.5600439580894471,29.61816549818434,0.6284254978124875,4.1669834167833004e-05,-0.01363970797855596,0.5266954212335719,29.621979040293883,0.5025411304262523,0.00465081626357221,-0.16792167069260894,-1.1375901824483374,19.285229486261514,0.46124979611046046,0.002722149157802022,-0.09298630637555322,-0.9243536691565359,16.157792118572953,0.4439034795067315,0.008180404922003792,-0.007975212990483593,0.8336799936583964,15.384122398092021,0.5192070883652913,0.01405956876603735,-0.11994412620708073,-1.0412920672230963,21.258608134344023,0.571003280805219,0.015332898939052278,0.4646380793109699,-0.5997558660478911,25.587990523264157,0.5055945886256022,0.00784030682094253,0.2017618655093772,0.3368385549951366,19.75212430831164,1
0.6291149559749258,0.0002771952134884131,-0.04609924988026981,1.4974142864086075,29.704434533148103,0.6292013730793958,4.240458286138088e-05,0.031917947493797394,1.743486209675902,29.69521553050652,0.628715935001468,0.00026403769228210133,-0.08653344371475591,-0.18660202768847237,29.665818308586644,0.5022571917559948,0.0043688687869245495,0.039845017334591976,-1.260433150366349,19.242967790528777,0.4572612932720916,0.002559978922812806,0.007726700314117874,-0.908981726068853,15.871030214653087,0.45270885168743547,0.008052222909104614,0.009785910854299307,0.6345855541114388,15.966762324985478,0.514273575155516,0.013968341974042994,0.11307903548089676,-1.0202420577351035,20.869455563821894,0.5716423894028807,0.014885281164609484,-0.13733363937085097,-0.5243748594436168,25.609637408348707,0.5072909661455219,0.007228381318957292,-0.1358841108932995,0.3685163496432103,19.835709542567123,1
0.6309900879652882,0.001020050624083109,0.03888014189129563,-0.7493453507858544,29.93662057946532,0.6297880385699365,0.0003138967861223679,0.03672625211924474,-1.4720826933401134,29.770701376605636,0.6306074544517709,0.0012584931051944682,-0.000786423898302635,-1.5654531626419614,29.918060610545066,0.5001746360809202,0.004270675754151351,-0.0019731890966183663,-1.2271899753868851,19.079129999208266,0.4593946293176132,0.002586693139351426,-0.0335298294443388,-1.0085684832599484,16.019672200752044,0.44659583145284076,0.008366388677231388,-0.002215160834827423,0.7610369247148248,15.577700512444187,0.517662196134338,0.013490249336290533,-0.05838780695387058,-1.1333365158773347,21.09633964888243,0.5737741399314525,0.01523804289741485,0.10530403162750257,-0.550330719114648,25.81887244846455,0.5095810276399582,0.007306003045620932,0.07250962390838434,0.29354453541302317,20.016106005170634,1
0.6270771262643272,0.0014691810850060777,0.03353829148402643,-0.9367355145026124,29.600648571584962,0.6277057299343294,0.000424938691580891,0.013230740762415816,-1.35659977035444,29.582531717606177,0.6273606756166856,0.0016451283777186982,0.03268658902306054,-1.3054768508105756,29.64034579821801,0.5015691477158345,0.004265131487864948,0.009255548222859955,-1.2911262718305587,19.183490475631153,0.4582569520726624,0.0026526918694090447,0.04903908475266966,-0.908980011004532,15.946256757555746,0.4511328478796408,0.008934005467586688,-0.09095387571541935,0.5831902655983464,15.925179887301047,0.5174540931032636,0.013450493265992569,0.02215412397656591,-1.1329343635733726,21.077241886882533,0.5711091650907347,0.015807678796881153,-0.1153849478852288,-0.4757708363198922,25.63219411476691,0.5061640411829706,0.007526164881306936,-0.07107617606778599,0.3852463643907835,19.772088945217416,1
