cap1_mean,cap1_std,cap1_freq,cap1_skew,cap1_power,cap2_mean,cap2_std,cap2_freq,cap2_skew,cap2_power,cap3_mean,cap3_std,cap3_freq,cap3_skew,cap3_power,accX_mean,accX_std,accX_freq,accX_skew,accX_power,accY_mean,accY_std,accY_freq,accY_skew,accY_power,accZ_mean,accZ_std,accZ_freq,accZ_skew,accZ_power,gyroX_mean,gyroX_std,gyroX_freq,gyroX_skew,gyroX_power,gyroY_mean,gyroY_std,gyroY_freq,gyroY_skew,gyroY_power,gyroZ_mean,gyroZ_std,gyroZ_freq,gyroZ_skew,gyroZ_power,label
0.6284878723013299,0.016133459666662516,-0.12922328147767326,-1.3571615129567671,30.81865143757197,0.6285510688548733,0.016246365172832598,-0.1363873600737976,-1.3423334933777369,30.832964484684894,0.6284640620860629,0.01612128924188588,-0.13794116489279695,-1.35892023786062,30.81550620392817,0.4468220672393433,0.018511460184599,0.21279358478815813,0.7895058378280725,16.343595036563343,0.46525301079051523,0.0009210849087931968,0.023934951307501173,0.3805803960924527,16.302687586973637,0.5274033334675888,0.006193119047846413,0.03798672417294735,-0.30055867041527146,21.319861520994987,0.4487651440405283,0.002107188730535244,-0.042525560486431746,-0.7017541247354937,15.260193553988316,0.5225292046207743,0.012492186514740749,-0.00879141126921662,-0.32562955999214943,21.402179528212233,0.477849346646535,0.0012594642287765232,0.00561029639651367,-0.5667144007858114,17.218700209718488,3
0.6271893763302628,0.005222037101838985,-0.36875331297860936,0.7701086325006182,29.888919279151892,0.627267806782845,0.005335064359932473,-0.36412360043222824,0.7531414765165901,29.904662369597055,0.6272261238265866,0.005209417476107975,-0.3658356099299114,0.7682783165209898,29.891442674021324,0.44481873138101585,0.010174150814570682,0.2695863997590838,-0.01833508252081463,15.592664944334459,0.46398111831252586,0.0010380790211182468,-0.03546930054887021,0.2961231993259571,16.222703708853402,0.5277437742606175,0.005442395456766416,0.09064364143897202,-0.5265453503232116,21.291249109113835,0.4486591679401391,0.002230830628357869,0.07590740546563457,-0.595399202828304,15.262210139753828,0.521760343251384,0.012576989564957532,0.03226165703197181,-0.30319691938086246,21.34823641204201,0.4794003449204562,0.0014037950219609123,-0.060310676691821385,-0.5657324513691613,17.340732634864036,3
0.632842006513311,0.0011971315527668825,0.027168216589065652,1.880647062492684,30.12526312548927,0.6329791082790363,0.0013056718400720607,0.022761462454476078,1.6524439791251626,30.14631107999463,0.6328112183377885,0.001184676026814456,0.028737214478885664,1.9125086195779475,30.121418880045976,0.44110658622470517,0.007113052321491013,-0.05803780640177042,0.30148780338723175,15.11949240260133,0.4651671659234209,0.0011792336357379636,-0.03378974015393654,0.3164712456050834,16.315800208036663,0.5272621298171091,0.005237142748253311,0.030023655472860677,-0.5189578180545085,21.237950078816308,0.4470688227901627,0.0026526176170027518,0.04918893475772779,-0.43842106088110766,15.18658362698185,0.523916294339759,0.012668284542142643,-0.022832805177582405,-0.35653650459309655,21.524074316721432,0.4814685854681308,0.001815973062006396,0.03202594583515317,-0.4826972837071487,17.52028191603969,3
0.6257278836386844,0.0003451633617596074,0.04974897582286808,-1.8382444594757088,29.390695915991234,0.6258447473395399,0.00045798974875663754,0.04761409167371078,-0.9985366411863399,29.41001482434492,0.6256750231523543,0.0003326643809744528,0.052039790727961055,-1.9538666341862938,29.384809758944552,0.44592691100153664,0.006818697297632234,-0.105051864788957,0.2033652671874718,15.418394346677708,0.46559716049947525,0.0013496316890881824,0.0024597811739692776,0.15364768950965257,16.358426434880588,0.5279734101916708,0.00541047508334849,0.035061388309896524,-0.5343667110811267,21.30706929637445,0.4487336471710918,0.0028924614252537582,-0.03458451469851781,-0.32976616259026575,15.316183603229026,0.5233728557920921,0.013540992081566852,0.0344437780369877,-0.3081832042765697,21.545969377533705,0.4792207186151982,0.0023837559628883463,0.03703579612788366,-0.5818726360831846,17.400335227508766,3
0.6296814556657214,9.501348701620791e-05,-0.02714120843888368,1.6518990677284455,29.744436168736826,0.6297944211338051,0.00021516646036606507,-0.026732025757223554,0.6522803028126021,29.763998284911946,0.6296763756962943,8.233186298689574e-05,-0.028713397141583608,2.1050629622609445,29.743017916112585,0.44646973256544487,0.007446217529540985,0.23489836289406146,0.34987869806779504,15.501161754465528,0.46420540098299823,0.0014217928337338875,-0.06600919349416412,0.1734426123056051,16.266711742330273,0.5264313899740478,0.005906342551492054,-0.15346050359325353,-0.5162743354604579,21.221819975061013,0.4478777142623798,0.0031466509048700526,-0.062438264162002766,-0.32732503020735665,15.27743568692742,0.5212789381936883,0.013722466248100765,0.019142661396950866,-0.25511197243152584,21.395342357684893,0.47919046989461767,0.002420945676341182,-0.042530081627712435,-0.5735452606758682,17.400912962886082,3
0.6279376923955775,3.289715546075517e-05,0.013860369155424879,-0.919832985700154,29.575365304335314,0.6281318323345876,0.0001563633626075915,0.01782181785675041,0.4865358685878083,29.602790798233446,0.6279675151759482,1.983161752673622e-05,0.016094651337537846,-2.1878760687336714,29.57720754841608,0.4449549302479292,0.009242631587893058,0.14965773821097594,0.07016652001786737,15.532821483899555,0.4638352820258501,0.0019482768022188004,-0.1370225449487213,0.03245648944581797,16.279910147264182,0.5267465756755145,0.006951741074990827,-0.14421028699489757,-0.47576605340688727,21.32407546349036,0.4461568686541537,0.004055295099978185,-0.007655884048082262,-0.5400426970925816,15.229288195944365,0.520713500928891,0.014739413044875216,0.016336375968616257,-0.19998089615963452,21.426407819042435,0.47932219422123024,0.0027568622659415155,-0.06185480542051858,-0.4548187367280343,17.435240248158777,3
0.6287514564896032,1.8469222946710625e-05,-0.009215026434997942,0.07945867519347954,29.650996275332844,0.6288070163548188,0.0001438507078299775,-0.004161474125074727,0.5013167168602255,29.665514738658125,0.6286298813388675,4.563823354494455e-06,-0.010598619119121189,2.3706902335464823,29.638502301337137,0.4413300090118685,0.0073123047006437075,-0.013260063074152784,-0.6311869792934403,15.149023811928833,0.465114208460328,0.0020649963066868347,0.05096730720452802,0.03806714615416554,16.377651745070636,0.5269468886318669,0.007189839595482935,-0.027027686537490936,-0.44695745648695157,21.35752488797612,0.450037365092257,0.005214956588295156,0.0158444318413401,-0.35547118595629457,15.575929035972447,0.5260885649417667,0.013026461853219148,-0.16999610094632217,0.07274197738642466,21.721646539324784,0.47861241894358436,0.002827256241672349,-0.01634500101489067,-0.4253097774379485,17.389455529410935,3
0.6284182200466796,1.5293974167211942e-05,0.0073907156951588115,-0.0318219551541428,29.61934120058615,0.6285347510378334,0.0001381407587263116,0.0006868677085130059,0.5872657002096409,29.6394174108101,0.6284325843134959,9.709144657989153e-07,0.0040213252565477475,-0.6041713365021678,29.61963532469091,0.4468758079863998,0.006484224782671579,-0.11621385282552948,-0.5123552269466108,15.45718171618003,0.466125102014829,0.002254069449982514,0.14288165476101394,0.07889084101255622,16.46224694392381,0.5259123591262981,0.006858894479032594,-0.22972997012934598,-0.558050251534513,21.251343902582533,0.4486307628530754,0.004738708795804991,-0.005743954220911118,-0.21669811863571092,15.445881554249494,0.5171177738174634,0.011854978436626383,0.08984575741818168,0.07646316299467458,20.93307780415504,0.47843487179209415,0.00275082551869513,-0.03020080562763655,-0.4642507515022727,17.371055579387267,3
0.6285262525987817,1.2030591885758694e-05,0.00600515005304858,-0.029339169258823926,29.62928402923961,0.6292747137079734,0.0001030099212024369,-0.02751849665448236,2.2951682695994364,29.706622632587862,0.6284391044828563,2.415080259824366e-07,-0.001537716140665668,-0.0027608125721514994,29.620195974835013,0.4429374977792605,0.006179269618520433,0.09403845270313183,-0.49164540655994526,15.171787972191938,0.4652050524121861,0.002473742741095395,0.024232017412020468,-0.30297225240722175,16.414237522077922,0.5327187282271256,0.004796638828541175,-0.08027080991088742,0.07993517540486557,21.639144528606504,0.44737360265270837,0.006015573792583204,-0.07411084544284374,0.16141997206780273,15.455887986935906,0.5234864378427485,0.0070358510753667745,-0.27701520441966165,0.4394651907733735,21.07350677497387,0.4789277729550491,0.0024708334671078493,-0.03140752180715345,-0.5019198298592589,17.385727554642212,3
0.6284616016661023,1.0128724614834226e-05,0.007040116161570076,0.08054947249126629,29.623048383275705,0.6286524164738485,4.732243422322034e-05,0.016472655572948747,-0.00953890346520856,29.643791415513206,0.6284634310503399,1.8101933757463651e-07,0.00013027167091483882,-0.08177154897651906,29.62248470799838,0.4447685113126556,0.00650964454590904,-3.989377345714473e-05,-0.4231654411911164,15.318140845542953,0.46359977096842936,0.002298457357592087,-0.011894383408388332,-0.13264517660926262,16.289441917610326,0.526359306100513,0.003906420554991631,0.07005251339381818,-0.13639959555169232,21.068134054965395,0.4496997091857116,0.005960521226994179,0.0036970846289765547,0.07304937768477314,15.608315703926094,0.5246647732041813,0.005371299546407324,0.10787617452069087,0.20383213475955156,21.042960484538764,0.47939387271797745,0.00242408388769798,-0.08809903216719994,-0.5787758388647056,17.41576859765518,3
0.6284093813972044,8.445668949774539e-06,0.0070203509546266085,0.07375846871570439,29.61800127660356,0.6282396977704889,3.949107547663152e-05,0.0006599201006978195,0.010764064664864811,29.60430617869191,0.6284483310733955,1.596200143032112e-07,4.928497773326601e-05,-0.2002629642863473,29.621059674051274,0.4477752374604568,0.005397125056938891,0.02749010256619433,-0.15517404154187556,15.43708700042111,0.4644579286689833,0.00256638728479031,-0.02357126791595482,-0.12629127464491502,16.369000221835666,0.5248598289700191,0.004232981234109299,-0.12123212559853469,-0.26667626624589735,20.974078616306922,0.4469876357071279,0.0067992631471079125,0.1952043618814175,-0.11526332999301814,15.487991458514594,0.5209628741688825,0.005431913581380565,0.06597128683598763,0.038183043381978664,20.757135324694886,0.47802118620267664,0.002607456634147336,0.021025798825636155,-0.3904968519086,17.330770875322955,3
0.6283110742269046,4.836105024574811e-06,0.0034764855194224786,-0.010403228628434666,29.60846832148434,0.62848466381645,4.322921649061043e-05,0.007419657347516595,-0.0006277447445133817,29.627671910956032,0.6284535268298491,2.0364688175778232e-07,0.0004899646512113165,-0.20088909780280728,29.62155272373494,0.4443169214771089,0.00507097122937556,0.022058667579478886,-0.09825352952913827,15.181566374290949,0.4628780840652684,0.0027104944604637764,0.02171730585548881,-0.15054212156405505,16.269785643169357,0.5280721486465985,0.004349342313496789,0.011840386930202007,-0.3510781273281504,21.236365894416405,0.44796357153359895,0.007813062415603424,0.06148025295968834,0.006996481755317311,15.628518725339996,0.5209768809435505,0.005889751175806415,-0.048898817087224544,0.037254347331391664,20.79210987283495,0.4792401861194015,0.002445711802488091,-0.08814037768202759,-0.45435606995626593,17.40631937276601,3
0.6285657357771736,4.283439905588934e-06,-0.001088597833606486,-0.19021600496508675,29.632433289035493,0.6285082121896741,4.173326319253279e-05,-0.007850099371023322,0.0035406355464681783,29.629781220715778,0.6284486153991047,1.9457022538113804e-07,-9.932707551807418e-05,-0.2553023078011673,29.62108906297556,0.4451909791685269,0.005090729215884228,-0.022673858203004937,-0.13688131871461248,15.241339556952822,0.4657140939782531,0.002635910694328946,-0.06816827249980795,-0.28895841567204944,16.461778691129222,0.5285003535977569,0.004498146983386764,0.05063594070601163,-0.3559077704258548,21.281309658242183,0.4456584163793805,0.007761513260035717,0.01785241208085453,0.04692357628061415,15.470208787975933,0.5239201449219179,0.0060882427185274006,-0.04032549132871788,-0.05208549468818273,21.037453830296286,0.4812420647153806,0.0022232710538333546,-0.010842610765458338,-0.5069518934373324,17.534066421847857,3
0.6285324641227108,4.504272743012716e-06,-0.0018896962505388082,-0.10341658061228576,29.629312700395474,0.6287456810236752,4.0510024981938525e-05,0.004410535334291588,0.05995457106980723,29.65208259729306,0.6284530054119009,1.932983919330843e-07,-0.0008330399825144941,-0.2970391325130992,29.621502804924805,0.44382308477976823,0.005248791574552276,-0.06210120083576287,-0.09116101094899731,15.161830370274068,0.46626550159620594,0.0025728389356795586,-0.016847389379254063,-0.31191754315643083,16.4956539296474,0.525298688958368,0.004532663027302786,0.04013408881640623,-0.2426364813835865,21.030820510623922,0.4481493076901639,0.0076968227896527484,0.10111339836226324,-0.040230387674019825,15.632400035172294,0.5237205757007005,0.006275922568186285,0.14159505063446132,0.016406508147007955,21.035661375966267,0.4794341255907028,0.0016968666592548174,0.11760920320476886,-0.37064385792395604,17.364849191353994,3
0.628516907337475,4.069871566994475e-06,-0.0007180266518037604,-0.020572923898860042,29.627813881175765,0.6283790630895743,5.619155490119964e-05,0.027645447045617888,-0.9972361447514373,29.618676694762534,0.6284803094461042,2.075200152204134e-07,-1.3056153067680931e-05,-0.2522597139757677,29.624077808591437,0.44558149506204436,0.004907608540855896,-0.08006165827930528,-0.08881731568267588,15.253878187652841,0.4647628915761413,0.002552613270911711,-0.039832492697429334,-0.2426357898337402,16.389234286013675,0.5285760118063259,0.004454891241772153,0.007957160192265889,-0.3531296902832727,21.284106971172232,0.4491320413512944,0.007539397290816019,-0.04180355820388687,-0.05776628576299078,15.686884692148952,0.5211266550430361,0.005968501819076605,-0.053130071694241554,0.004755578318629604,20.809643429337434,0.4790596768845104,0.0014358547116687164,-0.022291138801126154,-0.27747293345565993,17.318616299915345,3
0.628418273776344,4.174785905177284e-06,-0.0027392499560766614,0.06337685254226173,29.618523445359983,0.6279449240866488,0.00013404706732547773,-0.023343215961200925,0.6288527940328619,29.583531559446133,0.6284862640141924,2.439046390216487e-07,1.4500319234223014e-05,-0.31704953454715395,29.62464185303208,0.44449119133670745,0.003727139214828638,0.15905231507071205,0.06394137117071566,15.093739740091735,0.46582772162910574,0.0025112194834709177,0.014104385738126057,-0.3517674527066647,16.46049020963912,0.5286429738058938,0.003998084238787355,-0.10242041919312844,-0.2494855941467887,21.255612765245676,0.447912543624662,0.007391402508608509,-0.12114203909193028,-0.02461366714794194,15.593887290860637,0.5203921681415399,0.005767407470506168,0.1979355935205876,-0.06831906617046854,20.7373888025464,0.48081521294531226,0.0014086699835394948,-0.11211670895658893,-0.1845933290194639,17.442986753755367,3
0.6285962495498237,4.148771636426892e-06,0.0012730262679340187,-0.03191859819384746,29.63530038020892,0.6289765294138474,0.00014765398575150422,0.002310837240796615,0.5191283468480492,29.681786986457247,0.6284385689480736,2.529779962799057e-07,0.00011722637325994878,-0.18623746635032076,29.620146340984416,0.44375905646780517,0.0026254181919505345,-0.0022286177055289014,0.010771960679566286,14.963438460994087,0.4656403146257272,0.002209061794097984,-0.08498109902213985,-0.221229262362711,16.425038268119213,0.5279066855793054,0.0033976614775727523,-0.16438333880947503,-0.12761009268185172,21.152837100289954,0.44551645196554307,0.0060693893106590485,0.03699555588188663,0.08454380648360124,15.335502981886224,0.5188843844870407,0.005153286496527608,0.0054789202515656,-0.023818353584224475,20.574418535580175,0.47993219407096716,0.001161976129544002,0.01897543283627834,-0.3325343104650436,17.361104551519187,3
0.6283636665053691,4.121543442128546e-06,0.0011483117513855223,0.048400111806586536,29.613372298020032,0.6281754091661768,0.00015265302079227043,-0.0033460628514901947,0.6555920127121059,29.606622174620636,0.6284607793894401,2.936054650121412e-07,-0.0013228749642679727,-0.1432762295636012,29.622243069113093,0.4458770630584359,0.0025461295258974183,0.04262154476385549,-0.04394139950666169,15.098890237037647,0.46461058119586746,0.0022905004283224678,-0.06944130003145987,-0.15138205275181604,16.359221443632997,0.529502640617071,0.0031060695427766625,-0.016666097318982054,-0.21604063181160055,21.257827627699303,0.4487719397306809,0.005619072726292546,-8.011499568605362e-05,0.0684403121167437,15.520530423468498,0.522658110478981,0.005141270782848092,-0.12250235330515713,-0.07736053685739833,20.868316571640165,0.47816020716424457,0.0012468362919975133,-0.1011909130839787,-0.3924003794144204,17.24005466425932,3
0.6285957536613194,3.983318437942054e-06,-0.0038058828762808083,0.0208366424410159,29.63524137964257,0.6287446750795567,0.00016889241840043685,-0.008368488967948728,0.595761106335323,29.661488022028927,0.6284694285244241,2.874776997774396e-07,0.00012483446773292606,-0.09964098693136776,29.623057967586,0.44440394302679503,0.0026435301607855306,0.08402058165240672,0.007637390782740785,15.007736075230346,0.4666732836405406,0.0018306690472487711,-0.03820298526756466,-0.07569901189772225,16.469266034284747,0.5293834292841663,0.0025041427874018854,0.06288123802101908,-0.5768224849134226,21.20381770631752,0.45100699360161106,0.005676188007435202,-0.06689478909628327,0.012103347048309968,15.675586033367479,0.524304878083978,0.004948171598687362,-0.1121022990467932,-0.21260647055830928,20.98333508700199,0.4802953624250901,0.0012351329032024942,0.07369764527464084,-0.11988671865097852,17.392672472365632,3
0.6285011692568842,3.0862851985070164e-06,0.0016158596231766742,0.17913951368136197,29.62625736689999,0.6285602734018996,0.0001635744118874393,0.0032238834408880868,0.6439808715150172,29.643705803909974,0.6284706470981848,2.914292182437163e-07,0.0003328124486158268,-0.18250002508613294,29.62317313556298,0.44343971984985925,0.0022711930904612972,-0.0016032794080462764,-0.3435431863864441,14.915977174233266,0.464239426589681,0.0018169466803619452,0.061912340056652804,-0.03374867879030871,16.298322444370474,0.5278320553272982,0.002654252351108606,0.02567926773990903,-0.4954177743072503,21.091915571310025,0.44931166924712773,0.004589757434658901,0.0015806748044079888,-0.4243407693015222,15.480715259287777,0.5223325616935243,0.0047438869229974945,-0.01859672723339001,-0.20601682557599343,20.813395507700765,0.4781258810719201,0.0010239697960867174,-0.05266132805327228,0.15070974495339548,17.22110062622041,3
0.6284819831298986,3.059138106588614e-06,0.0010340514745363905,0.216101563940633,29.62444661013664,0.6285541878220984,0.00016303305699475897,-0.004956536124288147,0.6511870258082632,29.64309197336995,0.6284479455679769,3.0179656331419304e-07,0.0003669357040931853,-0.09393725220211854,29.621033854591495,0.44302029794224723,0.0020185238782323934,-0.02566015755307377,-0.5462145243004192,14.869394596152004,0.4658419570826177,0.0018862495667175,-0.04659668178013121,-0.06894131505987654,16.415237141329357,0.5279430341569556,0.00263068126660848,-0.00555798861516188,-0.4189233110951169,21.098958962342962,0.44990626236068626,0.005308695466269824,-0.05624893024420402,-0.1270785575819968,15.574016832856165,0.5214046042905336,0.004930426067362965,-0.022105088703189446,-0.11856831062872585,20.754558632137464,0.48052993944527583,0.000903738113070542,-0.010932232772775552,0.2069322490728425,17.38505332311326,3
0.6284316707572986,2.871814818158789e-06,0.0029744299946335984,0.27803429739503677,29.61968987510727,0.6284100795176879,0.00015907320169020195,0.008733539754745778,0.6913251225730498,29.629213519882093,0.6284454680261272,2.9329444550108916e-07,-0.0004621977469934091,-0.19094465902515462,29.620799674982333,0.4460520681038678,0.002035034978593706,-0.03090796180895783,-0.5565912404932385,15.07277614789625,0.4649887609180277,0.0019241791428380804,-0.04878540760588995,-0.17521219586632644,16.358480340076223,0.5291322387448101,0.0025722738119184725,0.013492137385545777,-0.27551233870993314,21.18891771801407,0.4445104990891674,0.006146802206149189,-0.17239417567365145,-0.12789602241391898,15.274082148292587,0.5217603623910898,0.0051905481176014205,-0.16409254286484326,0.12762837012708816,20.801641242888607,0.47855466666074287,0.0007747814752289157,0.02345342559628294,-0.09957972335989504,17.233426502875034,3
0.6284738183358586,2.8616837123721213e-06,-0.002536311251715828,0.23191565142333057,29.62366228961874,0.6285576480131648,0.0001564799460563909,-0.0005505956197050521,0.6823644465383873,29.64293328169629,0.6284701365702864,2.8597635907240983e-07,0.0001225431748314021,-0.1829833059879222,29.623124604301157,0.4432072212685198,0.002128046077062003,0.021733850677417843,-0.43889171321978204,14.889923483544797,0.46568352765564053,0.0017556156642141948,-0.07484049695337497,-0.05171422381220827,16.394501653886977,0.5267346260108295,0.0025561718745815264,0.024997605537202594,-0.16011941748935107,20.99785918662668,0.4478096745099836,0.006330321275688891,-0.0046954799305779504,-0.07632678584155644,15.508456618256295,0.5236553641922265,0.0049137340902074165,-0.057178814570092884,0.11650047837268523,20.929736856222352,0.48029598543764424,0.0007690649024647465,0.0008622637978007441,-0.22046513633269477,17.358228324846227,3
0.6285300245601255,2.853348499403807e-06,0.004700615236341132,0.17789725910498008,29.62896053080536,0.628440482078943,0.0001630346080910685,-0.024710046280410958,0.6017810721996981,29.632372524669798,0.6284455573839639,2.914820649422224e-07,-0.0002823997683928381,-0.09177326151834482,29.620807964345897,0.444746060997689,0.0021027685481172552,-0.0021261320922973392,-0.46161328475695107,14.990534280532685,0.4649635388607034,0.0017944288918440917,-0.08587612854684878,-0.05718198907332225,16.34711967323663,0.527729458389504,0.0025096458990668665,0.05366890305232597,-0.198386671995131,21.073092390436894,0.44646219543654087,0.00640874359518518,-0.09635071147195517,-0.009362127406943737,15.423883922594907,0.5213726110418336,0.004832507465360899,0.009790670513816158,0.2032312193859499,20.744810518280143,0.47917769773359803,0.000859209869996096,-0.066446852700283,-0.23712534959473186,17.284426480775064,3
0.62843412699179,2.683836146169598e-06,0.0022850540789310925,0.13197310251124583,29.619907501469797,0.6281644596955486,0.00017917669148469632,0.0050835073656554375,0.7386421311447938,29.607553207014902,0.6284804818772507,2.9526928261243956e-07,0.00018107109014364742,-0.21499247535076085,29.624100557476513,0.44573496933389106,0.0019823275136868386,-0.0052883666209278535,-0.501473310172832,15.047666952544173,0.4646379841088095,0.001796383896441518,-0.037630195036111425,-0.021551750536186073,16.32456662908904,0.5283923449564693,0.002694891748669305,-0.060339355334367184,-0.25549498240409196,21.139307255046248,0.44712157526007273,0.006770495930893276,-0.009566188344691029,0.09014838942949562,15.494844428614767,0.5198580244711338,0.004415429015740604,-0.01520787943285834,0.2935738286886316,20.595669167692066,0.4790390187591674,0.0009573398607690848,-0.034197129863440145,-0.15411481014186465,17.28172176172786,3
0.6285078425498272,2.769481776186278e-06,-0.0037569524776117635,0.03440468172911519,29.62686305264931,0.6278786787450344,0.00011457269085995931,0.016262949229047696,0.12387227174829156,29.575851020819396,0.6284697520225734,2.391023563062656e-07,0.0007917030631185984,0.12277278446243749,29.62308488412298,0.4435856852672719,0.0019372725009588595,-0.06508229392514309,-0.47915472913590684,14.900977678123601,0.4652640469615047,0.0017645738389368312,0.004271827854708976,-0.05210425996358153,16.36587596870611,0.5280617953117199,0.0025346367404820228,0.10514172412152678,-0.2389806165161089,21.101257593883425,0.44842737801273785,0.006825767023706474,0.001993407212197762,0.04215498835331262,15.586640261107704,0.5233920837775484,0.004419584982198021,-0.17902524255323649,0.18292212511510988,20.872494790757955,0.4794710702187989,0.0009231654027883741,0.033621285757742314,-0.1798267605718539,17.310252278063373,3
0.6285422703174717,2.2106786414159933e-06,0.0011746406305749302,-0.22423413432403475,29.630067508407596,0.6289205946288173,7.404780762213519e-05,-0.0010571841812584415,0.7775604795158448,29.671063113883925,0.6284521251012419,2.093053441520575e-07,0.0008259604099863926,0.051549822364404974,29.621421004415506,0.4452621891633337,0.001754534067105104,-0.032640232945229164,-0.17317852721694293,14.999216803355107,0.46552328792087017,0.0017046035077574481,0.03735095864874943,-0.2122728663724436,16.379535529323352,0.5266958840156775,0.0025530987343608605,0.029242555322973707,-0.1560369928994543,20.994570874271908,0.4494028411942741,0.007375227116904355,0.018009790823638572,-0.008230855220351569,15.692985332162364,0.5222751176743683,0.004150052524257038,0.11251029668499385,0.16712240775926682,20.76495127742817,0.4790009162542058,0.0008432289755948868,0.013286366938506322,-0.29052603549411343,17.270539777121673,3
0.6283978101828871,1.9070989672951506e-06,0.0005892847586236316,-0.20912616748379667,29.616426713522163,0.6282726912202068,6.74726097928166e-05,0.0017384011930716703,0.9596247829858956,29.609486063105763,0.6284740465158796,2.0545913771752212e-07,-0.0006492837748361957,0.02353760412722046,29.623487239779482,0.4442437866901097,0.0018241765162100565,-0.087349544416778,-0.12995523579678206,14.936429713157127,0.46574024647255213,0.001757335506502847,0.0668121764324427,-0.2622972393605166,16.398591116304726,0.5277749753815006,0.0026015107550206376,-0.02839498278379371,-0.13824654088222937,21.083493643792295,0.45134186819154487,0.008325460575897168,0.13214332781392374,0.10907101794535548,15.894295231313933,0.5209615169251671,0.0038232286161425087,-0.07124825901382642,0.1657152360540549,20.637986576367386,0.47871102402411697,0.0008380632015250599,0.031818448038667846,-0.34632628705086793,17.249335016079254,3
0.628509873312689,1.2710128402480606e-06,-0.0035800255144042836,0.1709684137600755,29.62694361881512,0.6288676349162776,6.255860588672006e-05,-0.023017292346743212,0.960118080840171,29.665217005225063,0.6284651618653011,1.5928381423235903e-07,-0.0006755459525443763,-0.0982073728529624,29.622646262880682,0.44476418746830715,0.0017868788018688732,-0.08184649201841937,-0.1355808847941593,14.968367715414058,0.465746982371959,0.0015475061017110336,-0.030927659229469884,-0.3029682462245327,16.383534320670556,0.528389463001377,0.0024518426015468467,0.09039882412455513,-0.15674964375213835,21.12109319833072,0.449092367572574,0.008394902189032168,0.07766894700079041,0.19325965767047476,15.74751935788387,0.5253213498249509,0.0033889258892348274,0.07626138723477999,0.21384826046120944,20.947969559446516,0.4812432438354866,0.0006957925982666188,-0.0059660869144612105,-0.28079536429722296,17.421118132569347,3
0.6284314897383803,4.367755372157411e-06,0.005770811855396407,-2.638254255698473,29.619783511007533,0.6285427400607062,5.041693118855174e-05,0.004237841445525525,0.5431074119673761,29.633679059134472,0.6284438759745932,2.721473331119273e-06,0.006039891585440715,-2.607310432065425,29.62082928277423,0.4425331294062843,0.0019601774308302686,-0.010673362452290946,-0.19308203767779827,14.832720926540388,0.46621196311133056,0.0021390264853845178,-0.09470114287603537,-0.16790055982180113,16.4598075510275,0.5271175570788329,0.0028200389684180415,0.06201507565173303,-0.3070294846349589,21.047651807219687,0.44749866316365333,0.009700150370655265,-0.25397397721590154,0.24005237338169658,15.736940142422757,0.5234180712199784,0.004003864065159384,0.014718012437845096,0.04688242857330482,20.84377173679498,0.4808532659334556,0.0014604576116908703,0.02057515648020336,-0.9580021058227758,17.449563615180416,3
0.6284309211588238,5.584658156531693e-06,-0.0031689258294101963,-1.7027060196054913,29.61981996484317,0.6285302727740834,5.010177396650221e-05,0.0003415746838574263,0.5408528736976417,29.632480315783294,0.6283965804094469,3.9325004677912475e-06,-0.0016383331451399474,-1.2538019872627675,29.616460675306097,0.44496504018091315,0.002107828445168192,0.008671375323390684,0.0005437241243197409,15.005520828682574,0.4654216839628532,0.0021487201137198454,0.0965437928785135,-0.1267993597107323,16.40530608112662,0.5274213685320658,0.0029039320713963217,0.05868793202236888,-0.3035033677110782,21.077888472101108,0.4504734725251408,0.009715754161635769,0.08361225544788697,0.15680393541618654,15.938442016625455,0.5234244917446117,0.0037757404596912712,-0.0128180549607535,0.07077926070593432,20.827394685875046,0.4784656446359489,0.0014953511366970834,-0.017665657777782673,-0.7955397215984154,17.280358966382646,3
0.628512113767209,6.140693495249306e-06,0.0006118940433839093,-1.485645856225726,29.62751519772803,0.6285293005609256,5.1191111506014916e-05,0.0015123188669693421,0.4905673534491923,29.632469267021918,0.6285027978523496,4.2578034569963885e-06,-8.596436779728656e-05,-1.1967400501098786,29.626497595573177,0.4468501657612997,0.002213942695606001,-0.01806675453837847,0.06491406831386107,15.139462057542415,0.46425225627374517,0.002118913793239906,0.12955543363369126,-0.09952260771941954,16.32156142984449,0.5269649604593079,0.002799123339578127,0.05924717465059148,-0.328103793916213,21.03404034351978,0.44884683671326137,0.008404694400874485,-0.06379126506756955,0.31070732484902874,15.731708597727295,0.5225887142415753,0.003517600594070799,0.008999857353606644,0.026057917441257038,20.742724762910957,0.47809125069779523,0.0014951933483908454,-0.06814524732249605,-0.7728322115358439,17.253487607314586,3
0.6284726486364595,6.406327347358065e-06,0.0033753851446463035,-1.3208112579324272,29.623814324533196,0.6285821713236273,5.551386236624435e-05,-0.0009550435284917391,0.4812081986895792,29.63777398375955,0.6284330951309666,4.317197942571219e-06,-0.0005775719883253094,-1.08231046760698,29.61993110183923,0.44411326832192305,0.002241757877801301,0.03305853097825834,0.03999157160669122,14.958634715425825,0.46584387812521766,0.0018836714151671274,-0.0032393705535271877,0.013667254263548305,16.415180593728063,0.5259827192189285,0.002534385323257074,-0.03382010068770985,-0.2754339705350432,20.936881082691382,0.4497291550831999,0.006536094204799635,-0.10689542703104798,0.44950124847376755,15.652894441043834,0.5228054441156997,0.002885115126347694,-0.045381846149079585,-0.3596081167860889,20.712913449125786,0.4798181128974659,0.0015598003169588238,0.03113287483836985,-0.7905149230545496,17.382331833291353,3
0.6284111768585506,7.338267814616866e-06,-0.0025955176137887337,-1.0936083443679236,29.618088571874434,0.6286617852462636,6.001899687722477e-05,-0.004597442223063242,0.46889167509740526,29.645614422945346,0.6284667209576164,4.370931998742336e-06,-0.00046120018259654394,-1.102935193818123,29.623104900309286,0.44512982986289423,0.0021350132358253673,-0.08445023440382549,0.03354732250256446,15.018533386983767,0.46546177262261795,0.002090531493719695,-0.09161843776824002,0.0628054834203853,16.403798963509487,0.5272582910630675,0.0026018429646182577,0.07903041076802453,-0.36206269373352873,21.042634291487733,0.4476183660964764,0.006445645198489038,-0.002519533198913071,0.4710251849247026,15.504142869704134,0.5222989524669188,0.002821954050510425,0.107264353289028,-0.3903600550646927,20.668539280840825,0.47985350441055225,0.001593427737987085,-0.039218570946571885,-0.7468673023163037,17.387367579742634,3
0.628441726337091,7.741775950679889e-06,0.0008191246066858726,-0.9767440317065074,29.62099814653609,0.6284710876303172,4.186907491118346e-05,-0.0010345916942757771,-0.2825110484886727,29.626291410585964,0.6284529113241101,4.37524787735624e-06,0.000599165520678735,-1.0814256485466136,29.62180339972415,0.4449177016487694,0.0022532896697224636,0.07759394513267592,0.08059057308935567,15.01312552859122,0.464676149465334,0.0028312770810032238,-0.060032976934171534,0.2558874223366027,16.403808795138946,0.5281580915581181,0.003176106583041272,0.12424689144364565,-0.26181014809820435,21.156354613018575,0.4457202694369601,0.006426374997321693,-0.050424020266826464,0.34794079440408393,15.375543643823534,0.5223174671791629,0.00324591375353235,-0.029119705471924107,-0.6011578302057334,20.701362856795576,0.4802580614944762,0.0018999562370227824,-0.10221277801896295,-0.42386836876874007,17.439182183822087,3
0.6284057424987802,7.752043161381729e-06,-0.0026290903163729284,-0.9481444817700455,29.617606941602194,0.6277700671508615,0.0003102717629116781,0.05634998801553326,-2.959353569163134,29.580104401250242,0.6284595808731946,4.376286538445268e-06,0.0001884720649717453,-1.0909897940692388,29.622432204552197,0.4444079154446949,0.002329877927668878,-0.050410125928286864,0.15102987652316177,14.984790614889919,0.46483416144529505,0.002933431263164961,-0.04197338047972948,0.267940366438211,16.422383736965507,0.5279037942909738,0.0031722345425922154,0.028349292397565395,-0.29480719126862587,21.13592655816233,0.4462290762246724,0.008014378618908807,-0.12069022374838567,0.3501648576857969,15.527093152923582,0.520637255558854,0.004071965629130017,-0.12433068260821367,-0.10314911965826691,20.631061847244776,0.4799672201927861,0.0019491635983646261,0.010245328180414959,-0.4142781372032139,17.421878040748265,3
0.6285030777891867,8.076148102765552e-06,-0.003274351840535039,-0.9733582311346956,29.62680654424564,0.6281942391188355,0.0005511907625157665,-0.029921404884603375,-0.08752680118143737,29.637888271083114,0.6284671599441766,4.392965439232479e-06,-0.0005955920691305128,-1.0957698169007477,29.623147914064955,0.4464736716410165,0.00228918939357098,0.0009253659381350809,0.12286100780787636,15.11980547527002,0.46570758799786405,0.0029278356757121995,0.006620024370615152,0.22440546115008844,16.482926653911814,0.5268323288926244,0.0032616238902705573,0.12340087221411816,-0.2164267070176609,21.057782875362005,0.44738676842827063,0.0081790726735177,0.017113744177111867,0.34002042735967963,15.616870420192141,0.5222279899285915,0.00419887169374343,-0.06632839951880298,-0.16057544829750472,20.764872015201306,0.4788610992947477,0.0020160331437801887,0.010541784523434516,-0.343055903311301,17.347282883972795,3
0.6285110028303552,8.89923008548157e-06,-0.0009823402431489159,-0.7986120222456137,29.62761459393773,0.6290918823167189,0.0005785562081374009,0.01272579620331149,-0.13606534265998182,29.724557889161595,0.6285551803384993,7.389308929427149e-06,-0.006282294109990594,0.27751388677636846,29.631667913638037,0.4447117196637956,0.004640802801324842,-0.09227901070641659,-0.376009720309067,15.176057927772806,0.46371687041446097,0.0035460992340971974,-0.06842733992050465,0.2747263900304155,16.389911536346847,0.526770726227443,0.004694311917937227,-0.1363806030143268,0.43309619624498397,21.15893393269144,0.446349137114539,0.009639259159070573,-0.0688738720524818,0.18244953584075072,15.655371592988233,0.5201999323171566,0.006262648453323337,0.0893590730578791,-0.18245776235451197,20.759033704253994,0.4788818379370419,0.002077444479503967,-0.026460751935595606,-0.3213925400568541,17.353316994430234,3
0.628569906315135,9.474268062956296e-06,0.002557723527298106,-0.7957596152482116,29.63321063021297,0.6286280334636561,0.000597151461033784,0.01817645344535601,-0.08150156110548877,29.682179542345263,0.6285185209490591,1.0336923961368574e-05,0.0027548077722816533,-0.5590550058202711,29.628429770572595,0.4466116311730745,0.004659186526008373,-0.04613822130075873,-0.431749032847902,15.304425985355193,0.46370161614754873,0.004045099820139921,-0.04514468944782407,0.325117783541931,16.42577654802901,0.5279508379448273,0.004848176771953802,-0.041649032065951885,0.33014667475187587,21.263671627622998,0.44623006328004833,0.012165408845924427,0.13204010794831467,0.16024946062249537,15.834335457717112,0.5202948850374258,0.00638565790125453,-0.0048823689162170725,-0.15054935855955962,20.775546239400953,0.4798821547553206,0.0021122637673068757,-0.03886591569184861,-0.3648699855952268,17.427823702726418,3
0.6283771100388794,9.95509905834583e-06,-0.00043854715842339687,-0.6507177690024337,29.615071108891375,0.6284048495840057,0.000598973424156617,0.002973121030784731,-0.05435169454945335,29.66127315693985,0.6283794215682907,1.0497108432459776e-05,-0.004308560246414239,-0.43622086959212863,29.615329094811482,0.44476024137033077,0.00499282379552082,0.07006505937239305,-0.28836259599445535,15.205344383653156,0.46752062907942965,0.003832847774072764,-0.13017418444383055,0.3477268133790122,16.676796131393314,0.5251169133527464,0.004891414026778964,-0.006566379936644329,0.4133633829043655,21.043047589665324,0.4486135099289262,0.012507484325721022,-0.35087961202944423,0.041948377812375634,16.019609936909667,0.5236400597118865,0.006139550132814695,-0.05868373091407608,-0.1696614273230769,21.019245119958395,0.4801836696244239,0.001777358668676627,0.1644260944612806,0.25642581358793326,17.424751284530412,3
0.6286082286988813,1.1675107946843304e-05,0.00240250529458641,0.8692514756313061,29.636986847083953,0.6285291225979265,0.0005931782957125631,-0.00606943959573869,-0.0678493805505173,29.672559540411672,0.6284547907113439,8.247816724678472e-06,-0.0009237777232194988,-0.145666273966272,29.622267136040556,0.44507449039804603,0.004842680467751598,-0.07580931854186856,-0.3158357959655353,15.215206004844644,0.4649590778242512,0.0042257427121159255,0.1607942115442344,0.02959441206431425,16.526725764534948,0.5267991652698926,0.004371897974779699,-0.006274686532215412,0.5422589368265744,21.137322489812863,0.4531633963469655,0.012180154977789239,0.22573253022036444,0.06470871644233234,16.30311125251017,0.5200645025832219,0.005858223617781117,-0.0405785518095198,-0.154146156225982,20.71854006125086,0.47647601221220726,0.0017861804114955063,0.01208036489262998,-0.221567120145582,17.15938161647424,3
0.6285110833711062,1.436118594799626e-05,0.003347762496556994,0.4379978307550846,29.62802637178428,0.6286562442830756,0.0005930012216999108,0.0018576552602078689,-0.08385250724299545,29.684532601113442,0.6285495375559638,8.712985966908684e-06,0.0017800246743341352,-0.23163909997620255,29.631233848097754,0.4453725404474908,0.004721624861388333,-0.03330272982073823,-0.38207768454704305,15.226152723591625,0.4649196578760194,0.0042372932557735695,0.05495941471244897,0.03568088135830489,16.524831321893874,0.5279904947005766,0.004392718693082252,-0.05142581940968033,0.49026978695912565,21.23310837035005,0.44743658811584597,0.01306893996765541,0.09367774796369716,0.11600102774225522,15.982064086462685,0.5214532786038163,0.00618814672397443,0.01363450529320126,-0.15281804130925694,20.8514369900743,0.4794686307090307,0.0018472589600926138,0.013285573696623254,-0.32745141094396785,17.37845975059632,3
0.6284631961228697,1.5007371401489557e-05,-0.0029590686494499474,0.4783772468407849,29.62355971155664,0.6286553761975787,0.0005890170560136357,0.002523772125851975,-0.08534800785904216,29.68415591380394,0.6283841051851607,8.826783883880608e-06,-0.0029979263230737185,-0.09686609365292627,29.615646955709057,0.44338223995175846,0.004517246594531063,0.03288745543506616,-0.3487297608123242,15.078362050843204,0.46534937301497353,0.004124349149820364,-0.08504920269650251,0.022805523702693346,16.546454759493884,0.5292324937629375,0.004205286624613061,-0.0454575434660629,0.4871434166621759,21.317718644311697,0.44816081363374216,0.013096817641716144,-0.13991650315076248,0.12663150892681216,16.032773121251328,0.5223194657842725,0.0056636746186005575,-0.017931047319818594,-0.1423199973413261,20.880433747064025,0.4798715440403174,0.0017929336923959514,-0.026201805956318436,-0.34735577610541973,17.40342950171018,3
0.6283840598022281,1.4468399169016464e-05,0.0027563139873730824,0.5379959843705798,29.616060157553274,0.6284556404756937,0.0005980793694371867,-0.018684083674461727,-0.06574988233312133,29.66599477676692,0.6285088670995856,8.861613978004431e-06,-0.0014219926375446112,-0.21372927981679382,29.62741046114473,0.4463360512723713,0.00441951660939881,-0.04069713976905581,-0.44410922065932723,15.268234529001488,0.46603787894225784,0.0039359891512815905,0.05527882348321528,-0.02887796065751694,16.580611042869737,0.5277835453952792,0.003972823710868499,-0.02612078546083374,0.5892545521013207,21.185649263855066,0.44944327986994703,0.012776958285187028,0.11595541997379283,0.08714673038053462,16.095439549623002,0.5217247494672023,0.005651887937475193,-0.012582648842472677,-0.12032213961471068,20.832993272869285,0.4785519859173618,0.0017407415065831477,0.043308189800173924,-0.3093455836367064,17.30471511339597,3
0.628483755161818,1.3694162291358576e-05,-0.003399448163080354,0.5337385823079533,29.625400655682057,0.6287834366295784,0.0005944032889082279,0.0036267879590922147,-0.1074852964007463,29.696631606856943,0.6284383587284238,8.84270238925583e-06,0.0010724013483439654,-0.14565490854762536,29.620762164072435,0.4447124747825866,0.00451001287430188,-0.005538596426183373,-0.38028675642976667,15.166429844742291,0.4654949045122486,0.0034188240508693235,-0.16652718639448716,0.07110857856065762,16.504405939279387,0.5259706473575728,0.003522256095085701,0.195823623640891,0.5835264068473565,21.00903109216717,0.44903895798607446,0.012553434156708277,-0.010383707729906322,0.08570427162642354,16.051653061787874,0.5238556954105241,0.005275105126508572,0.09565406448493219,-0.10780530587343964,20.97221700041492,0.4807163872389154,0.0015538193900922538,-0.04141603467220978,-0.36499525268361716,17.446601006869443,3
0.6283859340143688,1.3735378494886149e-05,-0.0004740455050429304,0.5936355510791644,29.61618257304193,0.6285154733250653,0.0005954719306689001,-0.02646829089294156,-0.07437337410268503,29.671442438546812,0.6284625284597424,8.861479563988018e-06,-0.0009896951374132046,-0.16953631642625383,29.623041975338673,0.444976268974036,0.004265029790753108,0.0750603519904966,-0.46786237696303895,15.165903200769758,0.4648837827568922,0.0029737618324586655,-0.12457576912537016,-0.18595815588153244,16.428828235878733,0.5265344002210118,0.003060491050641295,0.02709259077070869,0.9761066326266802,21.01936193395501,0.4460681231805512,0.01139256033062579,-0.062160112298741355,0.07714388675207327,15.766307253302754,0.5187084463609345,0.004400767309404982,0.05324615258966675,-0.2165713564069939,20.50504070535905,0.47935439931494195,0.0012350351855021273,-0.04454387647089986,-0.8217832063127495,17.324940614421322,3
0.6285044911093831,1.3773826058358882e-05,-0.002105106339266527,0.5058786777073925,29.62736141397817,0.6277591239559862,0.00015524056868297073,-0.03577156050596719,-1.1769368143578829,29.567601630331573,0.6284634882412397,8.858388051441732e-06,0.00041294449201123573,-0.1706361852668719,29.623132224641807,0.4457172916738089,0.00425928674744121,-0.013712339275036733,-0.5042992776425418,15.21498002658829,0.4645023636965428,0.003176696592514276,-0.08329116968080846,-0.13542404511241554,16.417258988821708,0.5275523828020274,0.0029935363146165383,0.057144056216239025,0.9768037899779742,21.094885432288898,0.44926057168632627,0.010337891647524338,-0.20364056016903992,0.07420412854281097,15.902633577311157,0.5235332801448096,0.004061549499602918,-0.07159460332470696,-0.332758933043817,20.857086819409385,0.4793179038038189,0.0015064566745890632,-0.04583328266724307,-0.5131705312287002,17.342401761936113,3
0.6284262198925259,1.401365631627833e-05,-0.004820431628642319,0.5359959719441398,29.620000549198103,0.6292719753172008,8.445534650579281e-05,0.010527489604677864,0.5723747466839448,29.70499111461231,0.62845837803711,8.842383431113433e-06,0.0008565973212111277,-0.1657243380057226,29.62264930575153,0.44159626126098156,0.003909591496763732,0.28276297505390136,-0.6761323451117301,14.9148541177363,0.46708618690692577,0.0030127834094285447,-0.15871271812377047,-0.16004644542068494,16.585658922241578,0.5306369620345311,0.002455004802188956,-0.22989210210454492,1.7056313496898876,21.29983926615471,0.4485683343208791,0.010416611282937907,-0.29846321403875725,0.04282839641586978,15.861845526592997,0.5176090840114167,0.002988820445945971,-0.08465546480160324,-1.6828163084270944,20.31511000183534,0.4798465162411045,0.0017149591481094336,-0.01713742708159549,-0.6059795553643604,17.39585791311444,3
0.6286427015098005,1.4269292433281795e-05,0.006170113751235107,0.4514828947601096,29.640429389755578,0.6282582542048387,5.490827790640149e-05,0.023519217172045193,-0.25367697632698105,29.607195760803453,0.6285733963725416,3.622605571178758e-06,0.001534281655084957,0.6599889934029699,29.633106669860684,0.44516458627050526,0.0018086608856714586,-0.02226569900593256,0.037492527985984014,14.996704070743942,0.46509225232839413,0.002183206805486646,-0.1003441301690608,-0.32804321627564853,16.38486754179841,0.5289330550704869,0.0010581955043247973,0.0004252652336668161,-0.04153734290797888,21.061069723284948,0.4473173573654936,0.006993880940432333,0.06310500419733261,-0.6289568605986083,15.524508554625651,0.5245297390011939,0.0020390088019073575,-0.06003898357216564,0.020178154496656414,20.785745183590684,0.47899661868666227,0.001665360295366683,0.060731389113778345,-0.5902917548872267,17.331068715351318,3
0.6283168519745219,1.6586830378344007e-05,0.002250474413547754,0.21416503144491314,29.609882411085994,0.6286722036172548,3.889045255456795e-05,-0.005035104098720988,-0.31819830826439177,29.645033363562185,0.6283297546965178,5.789985739566972e-06,-0.008098917509408277,-0.02479887463359986,29.61029950671869,0.4445031145690906,0.0020666829981288164,0.07592861379441052,0.16210177124757927,14.97166095648318,0.46468672862079935,0.002310763580508375,-0.03452485816074391,-0.6634255760392307,16.36602818668015,0.5267058578069768,0.0012256419550866087,-0.014341048431821934,-0.623891608960313,20.89712705329016,0.44855650008840275,0.007305182583308447,0.002439600784360174,-0.18894522313194947,15.630803544031624,0.5213863107973334,0.0027070113741776264,-0.03435732592279117,-0.5085397209391476,20.588595223203157,0.4795063772125107,0.0016012061077109575,-0.010087136285753973,-0.6446547792457437,17.362966686030603,3
0.6283690753262234,1.8308578031397054e-05,0.0027911235676476576,0.2947356695926396,29.614931946749312,0.6287110678492456,3.6366185621156145e-05,0.0016981403755316204,-0.45377329046011516,29.64851161044637,0.6285336044257357,5.922490081760747e-06,-0.0002253341717680657,-0.1538359674785982,29.62952515619659,0.4454231673812918,0.001718559690163967,0.046715771236465975,-0.1501834437328197,15.007308270070805,0.46369181823463756,0.0025726623268815347,-0.08900308038874494,-0.5130845524401307,16.31613468452005,0.52725655389754,0.0012659289381804042,0.09552845879670446,-0.37908633852778056,20.943639263518556,0.4505227509924643,0.007244907693939209,-0.04115923482278383,-0.18885901849665465,15.758929356487847,0.5236696774199865,0.0025443243406530966,-0.006188738681078498,-0.5375524553466144,20.755524829894778,0.47842389904948657,0.0014413513849523044,-0.06351237580722557,-0.766993568675155,17.27336704111497,3
0.6284777759800927,1.3187256793854607e-05,0.011858188178272111,-0.3558444563837007,29.624799474569016,0.6285787098457039,3.675876605202205e-05,0.0019075713879735945,-0.3881631122792992,29.636059734034568,0.628456636703105,4.7806221420155165e-06,0.00572927118423916,-0.4250162610775064,29.622184582251908,0.44449386618325576,0.001508652154504458,0.02121156428752541,0.07256442843469822,14.929750040023686,0.4649637879164062,0.0017399924640527245,-0.06362720900140972,-0.169686988535406,16.343108747857865,0.5285012486851616,0.0011881534525067664,-0.0019100109145765432,-0.44965579896817137,21.036441095118622,0.44691783943547764,0.0058372158751739105,0.23556995507785106,-0.565286661376251,15.412120615188517,0.5207846489378677,0.0022620044109922023,-0.08608601252040665,-0.5559988519965519,20.508637119113782,0.48063097704595587,0.0011826997928871754,-0.04366170163931721,-0.07051705152504822,17.41297999188491,3
0.6283988695085411,9.808715129143423e-06,-0.0005789005092412536,-0.20426101912586447,29.617111284890477,0.6287053002019986,3.8723466616601215e-05,0.011796960625896191,-0.31741083712961543,29.648142124186013,0.6284064054643318,4.046796881361239e-06,0.0013714184635571502,-0.4754472178931022,29.617395245114377,0.444935420895827,0.0015565019294028863,-0.10118880426490201,-0.059397019597486896,14.96274580035681,0.4652297676161321,0.0017502226418236358,0.05692486819614251,-0.16558090734967965,16.36242172620698,0.5270838253525306,0.0011409721058923683,0.004794314583026704,-0.3282497564665682,20.920733856955312,0.44742300410347846,0.00483687204067344,0.09190875111810315,-0.6562664699841964,15.371979376083434,0.5232083579700244,0.0022868893169933394,0.037773757792161855,-0.5157562721780663,20.70025374818419,0.47935353475111736,0.0011797647073877257,0.03321319121824856,-0.06175105523398036,17.32078843422599,3
0.6285259525159306,9.453775286745319e-06,0.00037651206725730635,-0.2897054920986595,29.62906505332554,0.6286887999913895,6.0486912707616316e-05,0.02392689481478505,-0.06416535134826643,29.648196574136364,0.6284972332459603,3.803254153938967e-06,-0.0009057161749523868,-0.5773863609809744,29.625939355644416,0.4457544867742518,0.0015608178072451428,-0.04713226959042438,-0.03413011343527473,15.017780203689384,0.4648455822288193,0.0017315978139926626,-0.048760806269917356,-0.1378296683623337,16.3342443870592,0.5274035108889106,0.0011528538212144633,0.0062149951607383125,-0.38362319210162565,20.946895930116067,0.4482796411182414,0.004860718452621132,0.019238342675599818,-0.6803460208260773,15.431290913576412,0.5216799552708354,0.002453904552249961,0.07369379635347634,-0.4748294507515092,20.592837116720062,0.47971781106095546,0.001170258903808032,0.009367165545903666,-0.09161839772690125,17.346287527565387,3
0.6284923870440331,9.435272428490178e-06,0.0006115215241346839,-0.25875742151409686,29.625899253082707,0.6282714577607634,6.109731622246872e-05,-0.01783667251879517,-0.08533790561578294,29.608898049163063,0.6284531504798135,3.69704376065181e-06,0.0006128883638333305,-0.5524105333323623,29.621775757338533,0.4441471514965677,0.0014694718327922663,-0.05125730135831136,0.05649858177042117,14.90374282931525,0.4666275784624483,0.001980187146835343,0.10102145065838464,-0.11379142009815822,16.477131122495436,0.5293603677218395,0.0012498662344470114,-0.0036289359058817583,-0.36421376457147536,21.109170019944163,0.4498061636467986,0.005017947296233796,0.0986372014209787,-0.6684938779597103,15.545746964020099,0.5209757264925248,0.0027944526597162736,-0.11736946995881153,-0.507687728589734,20.56296756640005,0.47871620532201237,0.0011291840282687277,0.03273462380885811,-0.05416649032850667,17.271250010934917,3
0.628467162381424,9.723342725065075e-06,0.0024976023914426992,-0.214336419459854,29.623542591743597,0.6284890424497068,7.738147147777803e-05,-0.00718665324470269,0.568615138753934,29.63061196484055,0.6284559894882297,3.670730024408851e-06,-0.0004841554628832734,-0.5624968504126311,29.622041438294026,0.4459799897150366,0.0030452605173637358,0.13212174919033504,-0.5481449843798567,15.142710620251732,0.46396730919654156,0.002492389030238616,-0.033922425768528,-0.12145469949894752,16.329361588468604,0.5270146248707536,0.0021752356744134792,-0.09168550221034538,-0.588756581824994,20.99179855198117,0.4467891593115035,0.005133380088421032,-0.0004361962995156343,-0.5568449991177529,15.35141159241416,0.5207779924114205,0.003606361335458724,0.01750488058228783,-0.35382750328537327,20.607599542329154,0.47874109909772833,0.0013177559086002897,-0.02437415906047735,-0.10929478252895622,17.286991934633992,3
0.6284407623289888,9.648485108409331e-06,-0.004657165054286372,-0.19893859406798348,29.621048369646072,0.628670438100573,8.925012992465563e-05,-0.011132197513631148,0.48318864522505584,29.648593490231903,0.6284731859975111,3.6490762528290845e-06,-0.0002509569460694694,-0.5939017315976,29.623660945482374,0.44523910177795156,0.0031132589630288292,0.002908322454111989,-0.527676551141454,15.098220494666917,0.46575987530120083,0.0025723526875886574,0.01765995945047505,-0.2530571203570875,16.460273706925832,0.5279492030829499,0.002158724667548813,0.025780029795659742,-0.6576719899125615,21.064522703092752,0.4493373224813619,0.005129479374143517,-0.030970209773808266,-0.6200029824734571,15.522383676790579,0.523592611614717,0.0036978492900296435,-0.0017313309250894249,-0.4583289953186506,20.834832567776196,0.4800772028283664,0.001335903589941354,-0.08059915135364198,-0.15483784950845264,17.38441591631879,3
0.6283003691012441,1.1679947007200893e-05,-0.01416103318655837,-0.5000109828269927,29.6079658520355,0.6284551220402905,8.476598027677523e-05,0.013659041710652464,0.5819594272044739,29.62796071394122,0.6283923616537629,3.7557335490355156e-06,-0.0023177323920059445,-0.4780246514052448,29.61604993814214,0.4451265380797574,0.00317390946029083,0.03429135809308426,-0.5048313649174676,15.09519191777675,0.4656215373237755,0.0028204444758521225,-0.05107427868777614,-0.2558141784075233,16.468969092694774,0.527180356547251,0.0020755191015652216,-0.006479204982382525,-0.621793388085839,20.997523038212325,0.4468935365038151,0.005664474937827821,0.14767572898646325,-0.5314532001111594,15.397708618065762,0.5234105495435353,0.003951491804615549,-0.005337090869861116,-0.43069616167857777,20.83930564655147,0.4809101564289522,0.0011247807987920097,-0.11082121534765071,-0.06946728787827233,17.428827170849555,3
0.6284948573209894,1.6120698778453952e-05,-0.005556307436235586,0.19497311653243113,29.62662685762942,0.6277487921052357,0.0001461998226218053,0.022741391470550876,-1.737963750325859,29.565959736092697,0.6284005352999492,5.141466361914661e-06,-0.0009453766712620437,0.08434016599990875,29.61692292590549,0.4435526197605941,0.00310245145287235,-0.017664430601840586,-0.4546099939467396,14.985000894749014,0.46511431402174336,0.0033719218767945757,-0.05479384751851668,-0.06710169085634858,16.474371601976564,0.5266488724849427,0.0027889727063286,0.12281920735885044,-0.33395481002967836,21.008311596992925,0.44841026478382917,0.006302440704101937,-0.12461719154673734,-0.6335958002858664,15.546763029366332,0.5254882264324642,0.004694392445734545,-0.12633709198827153,-0.3569813703925495,21.057725749919623,0.48011536225198104,0.0016047918207124934,-0.016765591872504093,0.05956340041797676,17.40706167500904,3
0.6284273329513557,1.5961935194457944e-05,0.010500312607545914,0.20490444547406822,29.62024964323094,0.6282666164197368,0.0002811536724149058,-0.013375764854281269,1.3315019065942324,29.624725969821533,0.6285102170470923,5.382687504862441e-06,0.002461153874459998,0.007468654146964187,29.627280288819094,0.44532422076838174,0.0034483559535744023,-0.04817770138714195,-0.3681538358081052,15.128702960786978,0.4640657556812121,0.0034167525743753944,0.00015486449385015977,-0.12055455373689763,16.404616610201863,0.5263702882980538,0.0028467638925568236,0.005755100620342624,-0.2536316275386963,20.990586558272412,0.4476024694886442,0.005929831642846759,0.2024225931209333,-0.6109580940508768,15.464905343495609,0.5222981226702125,0.004058076506568332,0.1222431030028448,-0.29916435333429664,20.759947332348183,0.47923213140980353,0.001728457053181998,-0.010257931987648072,-0.010790465961642192,17.352663505104204,3
0.6283454524105492,1.2216045203067468e-05,-0.007264484965625151,0.5242092764763201,29.612254554721364,0.628862133553255,0.00029075098885719214,-0.003410993676072116,1.18773790760179,29.68158429946184,0.6285103312862282,2.59659137034498e-06,-0.0018731443944968174,1.25494680624671,29.627084887775744,0.4442534868064244,0.004075888352472052,-0.08155970850144756,-0.40076831396756185,15.10370277855787,0.4635412943241932,0.003455596826809043,0.04607875277247975,0.18231754650489004,16.371004030964993,0.5253066856275587,0.002779109252836661,0.04191312510073608,-0.16310633932339377,20.90168763208572,0.4445051894312394,0.004424034062824356,0.0985527965824089,-0.5553950720173819,15.146243277996653,0.5214199009282863,0.004218281178011764,-0.02083518082534469,-0.16920845237825677,20.70305628847767,0.4795261471652786,0.0019507210415999944,-0.05488245614331966,0.16608930132536232,17.39025279321663,3
0.6286809040176231,1.1963526337706684e-05,0.0009389417849963166,0.4200924133837894,29.643861231680173,0.6286590855242757,0.0002992358229373474,-0.003327330465870859,1.1791463673200768,29.663061886813743,0.6284543767592267,2.177037991659436e-06,0.002094915695155297,1.3736767625276276,29.621778875898475,0.4448113010186498,0.004456027760708374,-0.06792479311306499,-0.3033228641771313,15.169028067835214,0.4663275213932034,0.003412708289201538,0.03023073262693632,0.12402276047883255,16.562142204055554,0.5269675134839523,0.0030597009017261935,-0.009085893721647975,-0.2065868123512877,21.05352488678719,0.4480399936680331,0.0045019477342095465,0.013437605415016818,-0.37610863714937265,15.388631826785344,0.5205521980949196,0.004450526995866259,0.0677164724515355,-0.15371425227669822,20.652433318303043,0.479271742947172,0.001916497078263402,0.08115782124095877,0.20270538558575962,17.369426052862995,3
0.628327994722227,1.1977798303485182e-05,-0.0013795482909882972,0.6490219859388069,29.61059152844858,0.6288292850307496,0.0003146857126451948,0.008056056949353074,1.0858134098803753,29.68025697115702,0.6284622487157605,2.0794171307831303e-06,-0.0002332829561751959,1.5304248632694606,29.622513731432957,0.4458484216900866,0.004688081866573273,-0.03968427696930571,-0.28270523827821953,15.255479192392022,0.46432727270118346,0.0035223632253230017,-0.07627058576398837,0.16066382785407538,16.430641091732845,0.5276213919580462,0.003046716093231966,-0.015120038894938292,-0.2410233708275962,21.104281984780126,0.4498477383603851,0.004446248973839156,-0.09486172566454015,-0.4538570936978134,15.506246502160609,0.523587917444654,0.004508840976350443,-0.00630649786638815,-0.2602672099962744,20.89447727930217,0.4794777512551634,0.0017806973705203602,-0.07004413876484639,0.14171997883089768,17.374190151571632,3
0.6284718951550893,1.2750205377956283e-05,-0.0006406414930102411,0.5383106403067388,29.624212740185186,0.6284007985783905,0.0003203701148624066,0.014598218615167524,1.1025791560214944,29.64027466254673,0.6284383954168996,2.1289121647197655e-06,0.0013072927782423749,1.5061193134949764,29.62026880206275,0.44567494266695706,0.004646168695759527,0.01676648342437992,-0.2621671139323095,15.24077807257586,0.46512594252806155,0.0040948029025937175,0.021404535017106763,0.16075823203205797,16.528676095738252,0.5241583060835125,0.003983367530771923,-0.13660099366022227,-0.31708665599990354,20.900413935002426,0.4494308148863134,0.0045859237950148304,0.12373518154947083,-0.42597965963781603,15.488462663534271,0.5207121639130792,0.00527008865293355,0.24233827692913373,-0.13550077399527996,20.725573383845187,0.4778522334595369,0.0022582347421895442,0.08502330284409704,-0.101490493354208,17.292816147592106,3
0.628404374311235,1.4114742287369872e-05,-0.00535967846391272,0.43186499914884136,29.61794881494138,0.6284665648618674,0.00033754489246081066,0.04674509797195947,1.130631373278365,29.647745058237774,0.6284055284759741,2.3460854121376986e-06,-0.0028321998605796983,1.2148640567773556,29.61718672675812,0.4462413389408144,0.004769373212902947,0.036152294315032474,-0.2199547301519675,15.28778356123163,0.46530182616564125,0.004142098856131528,-0.05382597249622684,0.15096205095528933,16.544449522834782,0.5288819603564903,0.004639615006170787,-0.03757986817173642,-0.1908855631596438,21.322041109745946,0.4452298317240649,0.005537416805133536,0.017862729010200917,-0.28234566150486534,15.276989072857804,0.5196128441289196,0.006999693566272928,-0.06053764041623566,0.006878767651231227,20.767790407685073,0.47965321597257987,0.0024797852545571943,-0.04933053616152522,-0.034753496750550755,17.438544678300104,3
0.628536305546626,1.4499356633729357e-05,0.006629272079403448,0.335900870047093,29.63041450665602,0.6282585699910643,0.0003210899691583454,-0.00952418576664582,1.184560223308686,29.626922965259002,0.6284546713116451,2.622019434117289e-06,-0.002800911152969321,0.9374861075114765,29.62183957144521,0.44325320872278257,0.004352395552057267,0.20375767348371188,-0.39535983919796075,15.05758279908044,0.4649937563070924,0.0037369792110240256,-0.08277622761368597,0.22087096509740986,16.49297596695925,0.5294537236615191,0.00448344513300811,6.906562379382919e-05,-0.005080376969766062,21.35586835227122,0.45094717929000155,0.005450653640242408,0.01977552911288638,-0.46756663658861847,15.654850257598595,0.5252929919625964,0.007333682380822745,0.25220242829394257,0.07197104330740421,21.237647051557108,0.4792392943903444,0.0024943013107408523,-0.032790163322834354,-0.001833531756616407,17.40985089357647,3
0.6282772335016904,1.549729662955436e-05,-0.008812348425910832,0.31887059166880743,29.606067960190906,0.6290857458901368,0.0003219041097066899,-0.004710382100298505,1.0533771307504274,29.704986580279524,0.6284988648700186,2.977366399313884e-06,0.0005048733767590852,0.520741540098066,29.626032060831186,0.44545298603438177,0.0037525031292032066,0.026194830207697806,0.05442177590544979,15.159812439082076,0.46398129357993184,0.00367952206635152,0.07673932025199476,0.15394039295444564,16.418182692318034,0.528142092313371,0.00498212427692551,0.1004660386165247,-0.110977275610018,21.288732421978395,0.4481127589595862,0.006513129820370478,0.13797528438443957,-0.353202923045333,15.542349962385336,0.5217042918540633,0.007799569900321404,-0.0006209460286178414,0.06904393768583904,20.990320783045007,0.4796692940616894,0.002317874208431971,0.055785281028459366,-0.01475024287997153,17.427720066346918,3
0.628775405260293,2.3772311559044747e-05,-0.010121536059330749,0.6617651914211152,29.653647420573794,0.6284776524919543,0.0003123662109386208,-0.003973136423405799,1.1939807171185044,29.64692707574428,0.6283914601379804,3.1362116174292405e-06,-0.002189680815169348,0.6031337827576629,29.615919117735412,0.4468163878047276,0.0037207526756689664,-0.03322231764634748,-0.006373445407588528,15.248702028814355,0.4667152037106864,0.0033752295227792092,-0.04399696887454163,0.15836405496389405,16.58649808778872,0.526448396395849,0.0049884730197978615,-0.011406262775073062,-0.046022930250821124,21.155240558547124,0.44604981104518715,0.006686749548082899,-0.01977172404460309,-0.2677494026379779,15.41685201156667,0.5232271416172698,0.0076134798511486666,0.03758241964101239,0.04739246889928962,21.095895638358392,0.4796336923979527,0.002279859907750341,-0.052776936884235015,0.02712976115806275,17.422345549420555,3
0.6282990149199866,2.6003332921623966e-05,0.001965343127250385,0.15000772499865037,29.60889815784313,0.6284278244072034,0.0003114610930747817,-0.0017317255089457362,1.205570062220784,29.642162907575347,0.6282931418708799,3.2959033014264464e-06,-0.0010074773543734539,0.12964810417065722,29.606664305992933,0.44443633543306743,0.0038262204123968063,-0.05476414075871333,0.051793940569482826,15.097414529505407,0.4679089813282345,0.0031073093230188638,-0.10011805197626,0.13337512851628694,16.650352000475355,0.5251178691680213,0.005034357296733513,-0.006036694804808174,-0.06641794278588624,21.053700678925516,0.4456442245880919,0.006270272663303332,-0.260615393847508,-0.28006513276414036,15.358908295238571,0.5223218623394442,0.0074148959017178336,-0.08577263197959945,0.12668439832964473,21.010211887558004,0.48230244389188337,0.0019042808787135582,-0.000582622045252279,0.09340256912752257,17.587090338831054,3
0.6286603992098629,2.7905736089506308e-05,-0.011700786566397503,0.07210417090861493,29.64310733957343,0.6278479898143839,0.00012969462027514388,0.015393998997368374,0.3654796220946722,29.574079775447583,0.6285471379874332,3.1053298428543282e-06,-0.004401701686408632,0.10426960826959594,29.630592644822876,0.44386470508365516,0.003716282533858141,-0.15610012338471663,0.010003135060730105,15.05119563893052,0.4665470717340303,0.0028706804388045504,-0.03351902147609109,-0.02048796745617673,16.537393113241414,0.5278748395586265,0.004619245169640591,0.13269722085518587,-0.1387524173504384,21.24071261048183,0.45049006149032483,0.007004174019100866,-0.2671176565070591,0.15129972265682334,15.738906040030216,0.5256871319841667,0.007527636546492614,-0.11760406631805143,0.07229650502390332,21.28306715947086,0.4792659134209791,0.0016600588767790698,0.03536617731897018,-0.1268631003863855,17.350030539425056,3
0.6285179823488376,2.9217246839010283e-05,0.0033196053358672817,0.10127928533143248,29.62977613645512,0.6286988568701408,0.00011033361140411434,-0.005647032263145113,0.7628788433076892,29.652833634480547,0.6284474219959612,2.9030345943019964e-06,0.00228831026474563,0.14801308909866998,29.6211769905627,0.44392596368487025,0.003411750127861167,-0.08548442125183375,-0.1126320660434912,15.032739101977278,0.4659201649283632,0.0028104549731607924,-0.11713900996595622,0.005892483405842767,16.489093674529386,0.5271081504134677,0.004881321722161662,0.06355986139796355,-0.17897751597741293,21.19944297486298,0.447322555287702,0.007511259298313725,-0.13419609651292053,0.1126943815006321,15.563143323259155,0.5230347774733143,0.00910721676395033,0.03726189990191331,-0.10807298907575599,21.19133742402428,0.48145124572371617,0.0017303161471427955,0.00012080296214761477,-0.14647388715377332,17.512691045557425,3
0.6286211206323902,2.907212954494829e-05,-0.001849873731966989,0.05644902737468082,29.639489835470492,0.6286269566085582,0.00010598386709341593,-0.005903276957441639,0.7511963473833648,29.645731599285266,0.6284557986345167,2.898585459041512e-06,-0.0013540872500606982,0.14779194840664056,29.62196630812508,0.44344759443121395,0.002969867304797949,0.04330307250015908,-0.12244942099858076,14.968202856067332,0.4654831654857581,0.002551853582683981,-0.12372278878474341,-0.18262866267726274,16.439430466416738,0.5272321360327947,0.005279106215795757,-0.23141070637996874,-0.11368405146811747,21.23868325489664,0.445925993209585,0.007526071935359885,-0.14689495001184072,0.024299216596258628,15.470678679713247,0.5188632647263729,0.01022183271143335,0.10687992569415702,-0.2682119301969879,20.947847181834316,0.47932360002423574,0.0021843616823664738,-0.09959074648319799,-0.060176070106505934,17.392976280009623,3
0.6286932916806067,0.000107995441009892,0.04546190950940787,0.26345495316202316,29.652135787949465,0.6287442977726848,0.00010557842010829281,0.011474659230205853,0.7378087702760476,29.656767201713006,0.6284457857594634,3.5741409191178342e-06,0.003187706114750166,-0.13168825429994485,29.621072409340215,0.44824973813229313,0.003025949203281815,0.00780486326881169,-0.15615609168258252,15.293507321218057,0.463799796346046,0.0025255481420546505,0.04412172976474471,-0.11164554538771171,16.320159394309574,0.52790937189179,0.005664097141379731,-0.12966502284165127,-0.11162743055930482,21.320766058300908,0.4482389934800629,0.008552799230630058,-0.12509234024258892,0.15546317801318799,15.701771788768108,0.5218252724085652,0.010217804640333544,-0.05193288271615748,-0.30712715692070347,21.178738662705165,0.477991225356829,0.0024335461630892595,-0.04089657356315002,0.0059490838215404815,17.31575327992781,3
0.6275787781993072,0.00021724773019208632,-0.01054150185248004,-0.5445025519769384,29.55521054549436,0.6287690958520729,8.560651896284457e-05,0.01341141837124371,1.0852769870441024,29.657628074800748,0.6283166238626787,9.17529200191222e-06,-0.00017991190925381595,-0.5759024963815385,29.609312458272754,0.4438596492742455,0.0029970406103363733,0.047424385798675084,-0.08931902293070962,14.997635124204109,0.46640848327110973,0.002311381968789429,-0.025071796434627536,-0.2865337262732272,16.486307760734697,0.52722009290278,0.005769996940909239,-0.06168916231784738,-0.08276438206221123,21.274056750658485,0.4502008565273821,0.009300450445401323,-0.09171980799618867,0.1745061937625382,15.889294174308839,0.5232623663286681,0.010097724228948954,0.15796608433340764,-0.3552202081344494,21.282494394133014,0.4788407388154928,0.0023512406447641476,-0.06692862572998237,-0.05158329343098335,17.370625793915067,3
0.6289713249665507,0.00024981113457497926,-0.007682712782694834,-0.49177393070812325,29.688855596221927,0.6288730805209225,8.097636271183557e-05,-0.0003957838648597223,1.0214902387255491,29.667093606131278,0.6285000765841481,9.839051556399273e-06,-0.0017082118495946874,-0.5903787594691171,29.62665405978617,0.44648107769727613,0.0029269021166783383,0.0021782533362424417,-0.22275619165532662,15.16749221226328,0.46450423415250297,0.0022322323230196165,0.07993201974325209,-0.27577891548750133,16.347498957823696,0.5275389659654747,0.004772705851453886,-0.16327957607191307,0.027439352483665136,21.225482278901765,0.44647916473227156,0.009282030217637705,0.17156913857763567,0.2653835950173032,15.637643576607203,0.5183702886149086,0.008546735781467849,0.03812530561338889,-0.506767099688324,20.785540156731397,0.47724541067783754,0.001868085601874312,0.007340707049775186,0.09046443037540147,17.220476985518044,3
0.6283401531029869,0.00026071771805484127,0.003969778886287245,-0.3826655235246373,29.630144211247437,0.6285630662718651,6.756248080723809e-05,0.006952376441768826,0.13737814159862344,29.63686424466143,0.6284693115764641,9.717793178693102e-06,-0.0009265000779069554,-0.5642189705497708,29.62374478619983,0.44418673009283394,0.002819988951510212,0.007652581823035354,-0.2665336357197674,15.006318021704068,0.4665495327504541,0.002202342159125734,-0.01999787555716942,-0.4035549457166442,16.48810830800032,0.5278022179248574,0.004423666569626608,0.11720272191250825,-0.10493972096079378,21.22048991963226,0.44952402241781403,0.008479175327466632,-0.006526801505355895,0.30650034792575437,15.782847479034379,0.5246803490414327,0.007753776301021145,-0.014428547240247946,-0.5816828351108221,21.220489596543537,0.4799505197346539,0.001885821177434437,0.050359625479169556,-0.06976105459562176,17.415988371647487,3
0.6285567867817972,0.00026298743379469614,-0.0006173163555361905,-0.41370066745967154,29.650733635810116,0.628533936040161,6.125842687120347e-05,0.006002313763395661,0.29627126372167983,29.63365128014876,0.6285009210049123,9.257902195449009e-06,-0.0025320101835718534,-0.5943686687393878,29.626690662564183,0.44456193222511975,0.0034098215285162763,-0.22453010723056316,-0.7396931317987766,15.074975161890098,0.4649940228496982,0.002521832314831659,-0.008524111256744238,-0.1500303148297847,16.40307368774346,0.5243988094376758,0.004089766373857504,-0.06759943465956475,-0.19355781456126436,20.927201062139353,0.4492386556854812,0.008598817862405116,0.1859361116607819,0.30673460291931054,15.772465253975346,0.522111870202378,0.006610912550783418,-0.04480137758380737,-0.7228009796437447,20.934267904224843,0.4784135251114654,0.0018908654304082982,0.010894492315718762,0.010588416557249732,17.305886617568614,3
0.628531839407644,0.0002675584803557415,-0.0009872620401645271,-0.39731411454188525,29.648719813733067,0.6283883331480697,6.939582052311256e-05,-0.0038848460984922673,0.15658893497705859,29.620527583464437,0.6284461261459188,9.125845621826204e-06,0.0013723963957299468,-0.555992810707555,29.621515322661917,0.44605584582212904,0.0036771138127604085,0.008408384509901279,-0.5357949019947791,15.194542741551393,0.4639976577304557,0.002418949479750772,0.10265134377892904,0.04727352720262075,16.32603923995274,0.5262003403747222,0.003660991647060269,0.03006755290348695,0.07896795602071549,21.037423247667967,0.4483125636452175,0.008052931178259011,0.14289075052997743,0.3617050357123288,15.669728511352206,0.5212794469334829,0.006426684148676283,-0.03302411914493114,-0.7075674565881745,20.855494261647895,0.47937881294250617,0.0019405639436333635,-0.004389850518934868,0.01908310594166355,17.378905204191348,3
0.6284419686570556,0.0002685243680489793,-0.001625287750566251,-0.36322130122399615,29.640318900952305,0.6287077654366006,7.031088504437723e-05,-0.005583373498201483,0.06732649838561469,29.65071207951454,0.6283939487218478,8.303811555951446e-06,-0.001648267721361285,-0.7343255606192204,29.616536091322857,0.4448302391894354,0.0035854862999238645,-0.019680126520228658,-0.46561512484197276,15.105871613494132,0.4656077251547246,0.0023828011786255574,-0.10144661315464248,-0.035990757384085574,16.435618816500114,0.527256453519228,0.0036498990219123164,-0.12009700451060473,0.026176648128721818,21.12004511094706,0.44738314010050495,0.007976018013352917,0.025705446165473378,0.3745676208845884,15.601600886452218,0.5203192990855213,0.006316018656089663,0.07936505013430084,-0.7045427862843848,20.772298355614257,0.4797787167664543,0.002044387013401404,0.03613660992440515,0.02741853045046214,17.415355918646622,3
0.6284661949298977,0.00026620894553877,-0.0038130339045994166,-0.37433921770815076,29.64243132469468,0.628646903764513,7.10562478234691e-05,0.006003925055073855,0.07946501480400789,29.6450278832921,0.6285112256534191,7.742932832398633e-06,-0.0035267931658912177,-0.8691920408306198,29.62755003495682,0.44638312107442574,0.003594732518087699,-0.08585801246861458,-0.5111812294889645,15.210352014849398,0.4652239588021963,0.0024976812710938282,0.02873199940494192,0.003272372922279141,16.41732830233002,0.5283026254101096,0.0034679152453084548,0.0372981737243997,0.01758383316634238,21.189400529293923,0.4499386315216418,0.008254174515841263,-0.10267195461666334,0.3229572500015491,15.794166824339836,0.5220701631752914,0.006805074890381852,-0.21192126059227562,-0.7656522639776676,20.945369687728906,0.47691699794437464,0.002148095865428198,-0.009054676697274278,-0.0016856069300935424,17.21769581366229,3
0.6285595140276646,0.000263491018018996,0.0004374688292314577,-0.3953824966324126,29.65102803593545,0.6284762264440972,7.33881254606838e-05,0.003325044906240082,0.11806619143746679,29.629108261690003,0.628473469136058,7.444587997287959e-06,0.0015664540607268629,-0.9041663361098202,29.62396850510517,0.44495718131366346,0.0035796816793090412,-0.012683085249936554,-0.47372116298741795,15.113913434463903,0.4661288177843407,0.002478008524750312,-0.028252194239625772,-0.05539472357534708,16.47907823850855,0.5255359892595769,0.003222934046671795,0.15047762047529512,0.05809860267627888,20.952602819981877,0.45165419041333943,0.006485690966765032,-0.05123931616702859,0.33748495569099257,15.77930421038529,0.5277969331768292,0.005460013903660791,0.09391513139972074,-0.8075655238408505,21.29676122918587,0.48123186522591416,0.002207793255607387,0.021876028373592316,-0.06253832411425421,17.53218480907587,3
0.6284300434704131,0.0002624194005766719,0.008502956125343797,-0.3742658900329631,29.638743000859566,0.6286643117627684,7.130968332220485e-05,-0.0006540900325959775,0.07964089303003631,29.646688182877483,0.6284227139441436,7.366859099077634e-06,0.00029777753128257256,-0.8610610042880793,29.619178202642537,0.4430976395385602,0.003431628140398178,-0.13205028897299664,-0.4931200597290187,14.97910434473775,0.46430416434682664,0.0025034718450180726,0.03291652164396741,0.02266082613671617,16.35363369376671,0.526310483607888,0.0030637752366059422,0.06469232137053255,0.18129859808350832,21.0019237541765,0.44872778866073587,0.006468951508493695,-0.04900114296517838,0.38608524343590717,15.580449535355093,0.5212891918153663,0.00499582528652259,0.01314355255826638,-0.8033388992325963,20.750372683966503,0.477527342081972,0.002137810627189841,0.09775483476283486,0.09756353528226401,17.2606251691025,3
0.6282392638475917,0.0002615020990503565,0.023522540142873694,-0.3416641330696143,29.620694103312015,0.6288643846616876,6.747431583430214e-05,0.005942810587599157,0.030687833673977503,29.66527417156596,0.6284655302632607,7.3689141935865474e-06,-0.001852648548256175,-0.9082219127541653,29.623214504331433,0.44532570141952127,0.0033727275726379404,-0.13064251259157467,-0.24150669014746817,15.12320536623435,0.463088700379541,0.00281348623722231,-0.09478513205716299,0.11766168253874026,16.292033812995367,0.530164442637617,0.0025324071422722348,-0.05759549845819667,0.21373479231818954,21.26797334632227,0.4465198094741598,0.0063038307603267025,-0.28441987721163375,0.44569037383510013,15.419978995227178,0.5213131681529387,0.003810797388561182,0.0053047390838334985,0.10486530209628454,20.664555453477586,0.48147334873347225,0.0016998678862652063,-0.05634550966695173,-0.16651917654156975,17.51203413913041,3
0.6274189172553298,0.00015278125976957228,0.014879703257515309,-1.3700081416390097,29.535393142961738,0.6285858203572184,6.163547316849102e-05,0.0007879266466751522,-0.04622998089689136,29.638571041576274,0.6283579570505158,5.586236804274987e-06,-0.009198570875231571,-1.8508347198884778,29.612942545675857,0.44345080887043137,0.0035450655384545397,-0.05457203220607543,-0.25996008708447643,15.010981341433626,0.46672716927116736,0.0029981002058837446,0.09990777189734518,-0.012114406052857563,16.559428205426165,0.5302170511613491,0.0021063485052059973,0.0717459663016663,0.11714309888889157,21.240628890053003,0.4485923965767238,0.006703898523293129,-0.16033466202779784,0.22874700667855477,15.588723860707333,0.523144365827326,0.003859395986110128,-0.021811026290895374,0.03055178276084118,20.81159736523779,0.4791971518700763,0.0017531754450194814,0.03976451583422208,-0.17868000997887265,17.3519782599609,3
0.6289234187031228,6.127401271617648e-05,-0.025306145954093084,0.8076916448135782,29.67038427143276,0.6285205320571804,5.898849979987348e-05,0.006359623968746564,-0.035346173655366596,29.63221959029328,0.6284952529790246,6.429086181039565e-07,-0.003606616825183484,1.114718038208694,29.625518801525345,0.4469188084034486,0.004022534711465823,-0.09778690340925184,-0.10402145751462766,15.277899166505355,0.4648793671168804,0.0030773416923982823,0.10962231182811899,-0.038754053749841574,16.436185233061806,0.5248747354922924,0.0020941371341080977,-0.007984637155772245,0.20417628657892317,20.816977744781788,0.44888588338583046,0.00624394448766839,0.032285295783936185,0.07822751021052438,15.574442114818268,0.5236974558577832,0.004290770837911987,0.2078597849574083,0.1699625064813902,20.88694393739909,0.4795490968592319,0.002187533054913218,0.08867091424167134,0.019537192665620776,17.409427668451453,3
0.6284414507940285,3.449970754608227e-05,0.01435354095793917,0.2522797082452417,29.622952259066153,0.6286943924487289,5.0645927575975895e-05,-0.0061087947565185985,0.186761350984429,29.64799573087635,0.6284764644536699,2.085639193860895e-07,0.0006877585088773674,0.45760900729835796,29.623715411643914,0.44730891987584587,0.004538277137116099,-0.0034158145889686686,0.02207552455806132,15.34222774318378,0.4668275231641988,0.0037536969350367073,0.05813595134991756,-0.14053744085820385,16.62236880196426,0.5257745333800656,0.0032886499942096706,-0.043280740310568944,0.11877555349208226,20.976274595898445,0.4485664781343606,0.006680689447707342,-0.06960903855334555,0.07816691992812987,15.585262417070124,0.5209262381634181,0.005188692132209802,0.1867780590388119,0.09567359383099337,20.73627413831529,0.47840690276211434,0.0028257727657272197,0.07806058548325095,-0.3028720472715971,17.37459453044675,3
0.6284500250799625,2.672250636731056e-05,-0.003398549273176954,0.6945474584233556,29.623185017196594,0.6285854399977712,6.34068608267203e-05,-0.022362610130960525,0.040125230430391186,29.638666260990533,0.6284537614959181,2.0722552506158777e-07,-0.00033361288833566594,0.46103787270765423,29.621575110066477,0.4461234343452175,0.004917988010175596,0.10098838801617926,0.1618804577753864,15.290890013150863,0.46558818844026634,0.003947368653485796,0.10750966916460086,-0.06643205357638406,16.550032371489618,0.5268262732219469,0.003781818636016088,-0.20517296115268618,-0.13078561051062185,21.095798740834592,0.45068140107833055,0.006771330123115706,0.0065941102358996195,0.009592608977286483,15.734607824955093,0.5205073404584035,0.005529731554399472,-0.06523220886743969,0.06195515153535359,20.72879199535659,0.47761642764761564,0.0031447263627964197,-0.010490961361892204,-0.17456947102350465,17.341518647762186,3
0.6283306652092717,2.669767798357829e-05,0.007001734359384781,0.7289179699184826,29.61193249134523,0.6287808128652242,7.146724824269834e-05,-0.008530743406420904,-0.1935806072292911,29.657686873428883,0.6284733776025885,2.0273700556047454e-07,-2.2656031242740404e-05,0.37336934971129215,29.623423979178845,0.44662579550127884,0.004294199951097684,-0.018163784066645927,0.5964558775052234,15.278365886917493,0.4632025100231547,0.0037187970409114797,0.032617087442424864,-0.04888683438178635,16.366933377908758,0.5261159201618654,0.004175584655893446,-0.08754959121930822,-0.2017566474413833,21.068840373118583,0.4453556405514876,0.007538467677421048,-0.08478471914583685,0.07118157362381355,15.433470100956088,0.520405507440595,0.005991025708399392,-0.13568974233842884,-0.04559886309905833,20.75497781550928,0.4792987534931903,0.00323240737782539,-0.09467359218346261,-0.20140512952873607,17.46874527846852,3
0.6281051110049493,1.4569163523990082e-05,-0.008455660097384299,-0.4618229459457457,29.58978040339125,0.628826772712158,6.388017247298136e-05,-0.004920700015453305,-0.1072577581553262,29.661460388732106,0.6284468363462572,2.0226639163558185e-07,-0.00019541536044798136,0.5202716849912791,29.62092192623444,0.44592477152011717,0.003892118894882676,-0.01887387662300649,0.4524054135769576,15.20168443736647,0.4643216578778562,0.003455102194676097,0.009136855602810023,-0.056975059779618614,16.4252727104891,0.5274012801511756,0.004370828062476707,-0.06776517506713509,-0.23720827241580916,21.184849549505692,0.44897569377298313,0.007837834570964833,0.03675593507638103,0.04955451481751553,15.698437778171257,0.5234157707313744,0.006128660300947778,0.02564887915878744,-0.1350579963715137,21.00082604104403,0.47932421086733795,0.0032101722791441642,-0.031078399893613273,-0.21214478707337872,17.468930182926375,3
0.6288016999372252,9.887260479838081e-06,-0.0034187514543134734,0.24327003848866954,29.655099995571327,0.6285080273501047,6.154816731759104e-05,0.0020319151471428487,-0.02770362146646826,29.631230097645506,0.6284721511951801,2.030787224288457e-07,-9.974948374047443e-05,0.3914455649116992,29.623308389917746,0.4447492663224847,0.003988341081285468,0.0359925964515283,0.46306147428564093,15.130280482094262,0.4640122070524666,0.00339999254907789,0.048616067978915545,-0.051744661499513005,16.399649070659347,0.5265561984433956,0.004431041321191762,-0.059700528635133976,-0.2075323671307447,21.122504316705243,0.44847548534699966,0.00785772601358009,0.09771325749011756,0.06424454030684365,15.666241296796946,0.5194310231211722,0.006090918689457261,-0.0375590178236489,-0.016084399827700553,20.686372066572922,0.47857114077712803,0.0031410877965521874,-0.05250536808078876,-0.20281656633427628,17.40971575579899,3
0.628333783313665,8.042255012669713e-06,2.242209658664951e-05,0.3569527035483204,29.610845870865713,0.6286892509638843,6.1030682196399675e-05,0.003848851178524737,-0.07984880067276659,29.648279341297275,0.6284503662348574,1.98823975299229e-07,-0.0003891092486778547,0.5434650313709833,29.621254424528647,0.4438761094143048,0.004234809999438554,0.06263802972643173,0.45846908038896084,15.09032597811694,0.4653136873809259,0.003496594983326824,0.012930786368869795,-0.010730243256852002,16.49751010356874,0.5278707535323415,0.004395986980975106,-0.005911336777015497,-0.26386134526694954,21.223867969202306,0.45102167103287866,0.007976486744770226,0.011575044465945261,0.0731447045014284,15.84680109970977,0.5279624244611693,0.005596756152292932,-0.10411107532807529,-0.1204558359099888,21.319984078488375,0.48023973057807867,0.003146862710588469,-0.06997624427264582,-0.16928523450706873,17.53013275251146,3
0.6285166032615467,8.762627196630954e-06,-0.005594470922633432,0.289938927348494,29.628132477569995,0.6287998450688344,6.202389120456822e-05,0.017361780534781213,-0.051612033697846935,29.658783154843384,0.6284198298146678,1.5723375551172947e-06,-0.0038186245086043735,1.5443035566862477,29.618477540801283,0.445396275885995,0.004160174704523667,-0.01639711358165047,0.41171210977411093,15.18619112111825,0.4654310821043123,0.003496275625108062,0.07528957170121026,-0.023113251377468724,16.50568131041734,0.5249526692509004,0.00474176666045726,-0.11578714743270457,-0.2080311263962515,21.01903860439723,0.44781420416975504,0.0087115518311887,0.05744597352370662,0.004150860484947881,15.684971944722294,0.5184140623536135,0.005673778028303502,0.12606580839728682,-0.03649766693837708,20.57634507754269,0.47814960578043175,0.0029844925546265518,0.043174406617708994,-0.12136534839069857,17.367880862141032,3
0.6284422332480111,8.654263518051966e-06,0.004933995398389457,0.30396849501489653,29.621113455231413,0.6284176101522502,6.590072883467676e-05,0.008122856031873127,0.11140804059891976,29.62302861014368,0.6285149223083407,2.1429300784865915e-06,0.001094008121776624,0.8934442095483959,29.627484144145278,0.44626281260159556,0.004103495770111934,-0.08810152591906112,0.3802915593403295,15.239946030319793,0.4635808686827065,0.0031084568475467805,-0.001101049410652144,-0.1758934200254578,16.34806744236441,0.527464282432772,0.004851329502988486,0.034554747339546776,-0.26347441786867026,21.22539107639507,0.4442667099788619,0.008885541780176703,-0.0366487498553672,0.08761924857142682,15.46049831139124,0.5230892080988255,0.00660285444564766,-0.14368700888821062,0.04465237522649037,21.01028520118715,0.47886162728652626,0.002854443575742358,0.02302435458242036,-0.1593484593675031,17.409363181167436,3
0.6285472445148281,8.39526285143812e-06,-0.0003901144994392647,0.2593486451754783,29.63099414348973,0.6285893703901996,6.68836800615693e-05,0.011632384287098674,0.09725736724851168,29.639294134890616,0.628427810818867,2.2771140449041665e-06,-0.0003896619033597615,0.9192290144186768,29.619282012233846,0.4430170892140049,0.005239978190741933,0.08035954403182374,-0.25583447318051555,15.10756898628862,0.4667076190319464,0.0030859848482670017,-0.12811180614383993,-0.16446899166076015,16.564563003456893,0.5292200672801561,0.00620304785070715,0.011455759227193718,-0.07180901313109533,21.464566511853302,0.4471905985124339,0.008355921666470787,-0.3302103861496969,-0.09080935453548865,15.616795558161995,0.5226188227736795,0.007889268997105575,-0.21483457571090808,0.09125638071763267,21.068588449586816,0.4801466407601113,0.0027688765739457056,0.0720112098599271,-0.1536606069943444,17.49545661396343,3
0.6287519841282747,1.7182181674429992e-05,0.010820079029312923,0.9168601232169388,29.650950797337085,0.6284992825601499,7.84123748405322e-05,-0.010301099331015418,0.13098471578444756,29.631653629134938,0.6283783270937212,4.253181270559774e-06,0.0017730419043494594,-0.6034484479751204,29.614763882496796,0.44721148652607223,0.005111515652372529,0.027365043191027366,-0.3551973197711781,15.378110684340008,0.4646588916440986,0.0032790619871705764,0.05622243078907846,0.0007871982064060821,16.435742005844787,0.5258909795145258,0.006289399344775692,0.013295320380414588,0.017756641535833024,21.20751472661945,0.4448701178072675,0.01215676974554505,-0.12861709866958196,0.08006980902724618,15.742807590009232,0.521076323733021,0.008093751336726697,-0.009623019637407415,0.12173390554676619,20.962977735551785,0.4796415532841337,0.002885848083329198,0.11008307920538468,-0.2107270878872637,17.467754230927593,3
0.6282878264255303,2.0425378796635282e-05,-0.007122336436090837,0.680934380627787,29.607430940619757,0.6287061057709306,8.538647885369225e-05,0.00557554664008042,0.1182227622661702,29.651671156958813,0.6284575176267931,5.111992865987816e-06,-0.004142618655874619,-0.41899351176498784,29.62229214709441,0.4436816175412335,0.004753591759876145,0.011043247749097374,-0.44580678040129773,15.11576912103124,0.4667195370588295,0.003007760735254335,0.02853099935306236,0.25712614580634247,16.55960876483943,0.5245676072466587,0.006516572156951163,0.05923826056071868,-0.14207711704991208,21.120064432550755,0.44998918206522226,0.012538793386865638,0.009813064753380674,0.005101837131098211,16.11464050880764,0.5239050228019457,0.007931382639761913,0.19019429599476817,0.014515416245721497,21.172657784125427,0.4776392848185603,0.0027259637542818463,0.2248498745570921,-0.2527799422061337,17.31216779796579,3
0.628561685593344,2.7433240687703037e-05,-0.007073268816837008,0.7500324403399914,29.63376450450683,0.6285141344357467,9.866187171844426e-05,0.01786387457715577,-0.11389108721635671,29.634552267420858,0.6284759918355343,5.2461405438463865e-06,0.00027105439207075754,-0.44083301353704735,29.624043637924647,0.444684446574626,0.0047306022083177576,0.028783758334946008,-0.5442516041254866,15.180883840319124,0.4649947924133624,0.0024243015156413237,0.07304875471728961,0.10610656435595126,16.395910085023402,0.5260606753838012,0.006185160957513349,-0.11825459211276174,-0.009903631347840601,21.21318947475057,0.44972240861140866,0.012486021714412963,0.07959388999875966,-0.04485018243412072,16.09273396741007,0.519425363927472,0.007892973653702822,0.12533397078088815,0.04190637565422034,20.819283202213025,0.4784196054030947,0.0018932700878588789,-0.03214841362923099,0.14510894247583553,17.306500899055514,3
0.6284765330571837,2.9159980189527204e-05,0.0005593081313987058,0.6783919235740513,29.625864283802304,0.6289679862791793,8.236456990754433e-05,0.007040519792249511,-0.22856459841781088,29.676149560479598,0.6284493169979981,5.32361304551113e-06,-0.0010832215565509395,-0.3996633500669933,29.621534750009136,0.4428669944576946,0.0044697649660099485,0.041343336854505586,-0.6325724843683308,15.040600715984116,0.4661134711743395,0.002369757966614366,-0.0044901341431705655,0.017378987583350592,16.469994690293838,0.5298065747827265,0.005826781124789632,-0.11586156396705727,0.07767941657058158,21.4833073044598,0.44808866965862315,0.012387676468578305,-0.18176985677113272,0.0026008345621251934,15.975447249407399,0.5212839159809213,0.008170049319944505,-0.2039036352998171,0.03100227808597806,20.984852729206203,0.4798201435511363,0.001850982927358051,-0.014203611773128566,0.13895240057356206,17.40402549843197,3
0.628362768793886,2.6917910439297777e-05,-0.0021835741234160766,0.7716742134315497,29.61497461584641,0.6283174455484588,8.489424568167505e-05,-0.0015828162404910584,-0.26458258934175105,29.614993102720984,0.6284577713172042,5.3915338957979014e-06,-0.0007499161593879089,-0.39730676418497857,29.62233674818234,0.4440068142713978,0.004733528195366343,-0.20374740367995908,-0.7217730323190601,15.13593492041477,0.4634761782084357,0.002380219086899643,-0.09485459379369698,0.0398199359312921,16.286898794932895,0.5276473461462851,0.0053449411731856435,-0.0185013123335514,0.17258209647090572,21.276404788957066,0.4477319573933095,0.011103409895943194,-0.20833558786940637,0.0013988191002690961,15.856445257643122,0.5271988182422686,0.00824830656468266,0.09116800267182046,0.13617121707983865,21.45576923248985,0.48026399434214806,0.0017711750869280217,-0.09480290787659923,0.007458832409581724,17.43007977604328,3
0.6287482014363536,2.687233754023061e-05,0.002746657911517625,0.6155585812114593,29.651311113686692,0.6286920932040749,9.786609506507836e-05,-0.020084621504886213,-0.2834837217033525,29.65127319533391,0.6284806269846278,5.415852534543069e-06,-0.0001173210475702291,-0.42327236585495065,29.624493160211884,0.44506238139913934,0.005199441674711205,-0.04326362419050411,-0.5001576647960488,15.240797934179103,0.46627906405108005,0.002568795223865223,-0.024479558033681292,0.016062305312900628,16.49630326449236,0.5278941700276792,0.005697170311381069,-0.05168062299538784,0.24932338335064674,21.32200970923313,0.44736087150128595,0.011250348902380122,-0.02580546818626145,0.005544265632452198,15.84240702005538,0.5202545501979223,0.009566839569800338,0.1109407255211412,0.08279583129879792,21.007805903288393,0.48069167276066127,0.0023444142671520006,0.032928454311998145,0.2151608059002764,17.50332297537745,3
0.6283424070883703,2.7298174146133002e-05,0.0024449530254615492,0.7743808426345606,29.61308360580735,0.6286844723334336,0.00010768709054679959,0.00211893768734428,-0.3361412253274833,29.65128127618805,0.628449679329199,5.432621895237651e-06,0.000907759643756112,-0.38168374673193506,29.621576972693212,0.443513821788124,0.005020085584692427,-0.07310720456904818,-0.5160033686497993,15.124324592050318,0.4671991065875776,0.002956866014224982,0.04208543483813176,0.10607138032621759,16.589433474769947,0.528242585544163,0.005618370706503431,0.05172418949223789,0.2455797665775829,21.34377662095994,0.45051716266677566,0.011424249212596507,-0.0529187727162162,-0.07792758972735164,16.067822981031295,0.5254864138453051,0.009552494782669117,-0.06500558259718203,-0.06720296396195923,21.417082449117476,0.47819045631160295,0.002570287586147868,-0.0029563095186985744,0.08891324413602203,17.340159719437363,3
0.6285580694810902,2.763445876177009e-05,-0.007146501459411092,0.6480215199660233,29.633438453183004,0.6285716476888126,0.00010870373448564603,-0.01511691971479956,-0.31061639490071774,29.64071779721911,0.6285009574655165,5.394043884075347e-06,-0.007141014221715425,-0.4474685815481099,29.62640817437774,0.44580110568925563,0.005228975213651463,-0.08121749263427536,-0.486892682483167,15.292341103342423,0.46470960761894153,0.0027255474266377243,0.01559823210007788,0.1327594058687659,16.39831696557248,0.5273505479362964,0.005999563831922319,-0.06346286130248174,0.2535958847500694,21.301362754215656,0.4464018652712063,0.011146817861517387,0.2785743824488074,-0.10038114331701983,15.770461420573199,0.5227832730391326,0.010255128028901156,0.2517797905322317,0.09839554792998866,21.256555766851807,0.4801563708714057,0.002719813883216128,0.006995709505229208,0.09221321214433584,17.492526763987907,3
0.6286799173075848,2.82986667293932e-05,0.008248489675489745,0.645863007852834,29.644976983278344,0.6287110599169765,0.0001067538466751307,0.016103294028148696,-0.4106559194501155,29.653719549298557,0.6286800229616135,6.128847070151929e-06,0.01010710242573487,0.6677026121596323,29.643346380009323,0.44510122169747923,0.005473546885066393,0.13464032349854804,-0.4136796084111615,15.263674786239052,0.4658767903204864,0.0030908929831477854,0.01889232778925204,0.12646493397584752,16.506814862701823,0.5285385152362293,0.005782829857269674,-0.05532828365352166,0.2242484083312823,21.3794015660468,0.45055002541469946,0.011442850322530514,-0.10755561993899343,0.037105658602955255,16.071420328956233,0.5222462682630454,0.009924475341922683,-0.06816723931062263,0.017986926253768534,21.189998528903033,0.4786683616406781,0.002991280746277427,0.07454484573191794,0.01869355521066228,17.405609807907357,3
0.6284171226573074,2.929309458458531e-05,0.0053560498390152755,0.7204305633122967,29.62027369266596,0.628361356410499,0.00010676411510090244,-0.0018854846994166286,-0.36441079474066906,29.62075011177063,0.6283467337762952,7.254007221849163e-06,0.0039111745317021995,0.3939201290699339,29.612008135084803,0.4447038869081691,0.005359815227202141,-0.1565549922453544,-0.4174702532074157,15.228742354155484,0.46432685595436196,0.0031132794685032775,0.04540684129520289,0.1949142618193255,16.400339867703956,0.5258921584520312,0.005582422945979064,0.14940559641187356,0.29978438898394005,21.155291472102675,0.44824467092765313,0.011845887871683886,0.042475763824354695,0.05046499812553694,15.94584207863261,0.5219472042854475,0.009641268394592398,-0.05263273308660266,0.05025768111134591,21.14562016580444,0.4778561124452608,0.0030220131670008754,-0.0993593324883027,0.041893747097167214,17.349613789455397,3
0.628556924129344,2.908862098283976e-05,0.008995974864731027,0.6724927390185282,29.63343807327338,0.628678765974945,0.00010182093851637178,-0.008875915876580986,-0.44868290271830225,29.650309058533697,0.6284940293363128,7.8174933123936e-06,-0.006236915228490902,0.29273731752941556,29.625934362859667,0.44489698929083177,0.0040498160995519035,0.1112699172833771,0.1922364088151345,15.144686222370323,0.46691904042490184,0.002844614775262586,-0.08267422866132018,0.17335051549071537,16.56150576671778,0.5296730938174657,0.004408959542219556,0.14744727019811787,0.08790759741165216,21.367781979686683,0.4496823015621089,0.011048137968160976,-0.4544875393232692,0.15957603223959807,15.983625135008575,0.5244415121694148,0.008673721946093223,-0.19143618342131058,-0.08618767430004487,21.269772900501586,0.48053123024059136,0.0027940662081505593,-0.011718618516996626,-0.0613635602391699,17.525030642143353,3
0.6283483190496046,1.918932343074344e-05,0.00997848868171114,0.7313034179365081,29.613040763868653,0.6287362440751482,9.290195938474826e-05,0.010774449544298403,-0.5771365440823304,29.655069591023793,0.6284439421204595,5.57658029059322e-06,-0.0032903839867001183,1.1378970439021863,29.621046796034268,0.44470978793969107,0.004422930018689449,0.033736555780514044,0.19157760335705257,15.159806483085392,0.46542730404131977,0.0026037077031424794,-0.07773886041277828,0.13307179007691922,16.439367521070377,0.5263633557841407,0.0046616363417998265,0.017777816034865168,-0.07108066771535525,21.12433976271884,0.44611435524700027,0.007823706380039801,-0.15001653823830868,0.06776417257665437,15.505305618931452,0.5206441835355536,0.00849432508370437,0.05451147561017394,0.01904759666747011,20.95885749489937,0.47916355312266384,0.0026244070290456245,0.04966477943202374,-0.04328862848580027,17.41403441823457,3
0.6285601751897913,1.5070728641703073e-05,-0.015317540168146127,0.6555817444998577,29.63270727151609,0.628834024730872,7.894114552991038e-05,0.011085250934958824,-0.32966110506202767,29.663258944211233,0.6285119761376323,5.027433639457887e-06,-0.0006415944090573111,1.275525627259091,29.627419841221695,0.444461456187384,0.004017641947265527,-0.12902991648047596,0.1540425413853533,15.113254456813388,0.46669045363853606,0.0023547343675666033,-0.009980363819054816,0.17478969927552082,16.509248807000628,0.5265154020368883,0.0037870780636970265,-0.024978117684691825,-0.013020303237721262,21.071628920368543,0.4484428752515511,0.00870370034306322,-0.016985905528853484,0.12293968231249522,15.72664975267755,0.5218161812616109,0.007927161854984599,0.0647512371975536,0.0793563012195863,21.00851950425265,0.4798677795162365,0.002448358164118924,0.014498916217596025,-0.08131262620737824,17.45165994048306,3
0.6286748013050781,9.723399303865116e-06,0.0005505247373540634,0.34153913972469746,29.643119966246946,0.6280690934313198,9.04896995560326e-05,-0.01961559389618206,-0.8809849940844944,29.592005197040148,0.6284315451190381,4.9413572755439814e-06,-0.0007045520850870179,1.4099238620444148,29.61983117799101,0.4437583289780356,0.003837138931715258,0.028256200893562067,0.09626268390871588,15.053057371250308,0.4644318455970525,0.005402598782924137,-0.3125071184213451,-0.903010396327579,16.577062750287705,0.5295946458446726,0.003911686861277216,-0.04488990156503919,-0.1300163513867504,21.324751495785325,0.44474649541607886,0.009275074749603936,-0.2065975150309024,0.11313239138783908,15.52131392033701,0.5218746722796064,0.007537489949710457,-0.07079725049698127,0.13802166611851843,20.984262273799576,0.480860298295146,0.0030460500633328553,0.041487730544460866,0.12472213125524793,17.56740469042389,3
0.6283701840203325,9.261676361811093e-06,0.0009436999771332832,0.5804165031332754,29.614366976481758,0.6284589178343187,0.00012707539481434296,0.004705996911611665,0.34426586666958775,29.631449434627484,0.6284916654762263,4.923216923683786e-06,-0.0009885153990047968,1.341068480866718,29.625497336033405,0.4454808224755519,0.004033807007301713,-0.1094189694726656,0.03521407075842893,15.182488958052394,0.46532812461503237,0.005622323170153829,0.02566947856508961,-0.7983640711597912,16.65582168142211,0.5260339274820935,0.0037387412854056517,0.026853345252562777,-0.07879355131493468,21.03004381978775,0.44712102889097366,0.011551336077098177,-0.04408046627750639,0.07350631704899858,15.848589955444483,0.5225187822720095,0.007454146870264777,0.04500157343520117,0.12009180459177421,21.02854770542637,0.4788873496731871,0.0032142463855505763,0.02040474256083158,-0.010637614438709976,17.437836258306437,3
0.6285269392785771,9.160143571068771e-06,-0.00026187819880341134,0.4718724380823064,29.629136355541462,0.6287387823757995,0.0001279394278071992,-0.009881125235112642,0.3367183414190249,29.65790175241296,0.6284666215312367,4.857201930725476e-06,1.131305557933171e-05,1.3964160977919007,29.623131511359365,0.4462225280445755,0.002942820475394035,-0.06298822947513849,0.11325030131632786,15.151359555266058,0.4655600429208237,0.005525149034930414,-0.07978854082738829,-0.8187024247658432,16.664822545917794,0.5253981750743196,0.003066041499308099,0.06840477147007218,-0.2922621218632947,20.930130248805707,0.45021297055232706,0.011516456267313529,-0.07194102605161179,0.014776464417530475,16.05409667779749,0.5240973078157237,0.005739221480589463,0.029877760044455526,0.13325790452932146,21.025551494040332,0.48124913215994214,0.003081253339785758,0.09847809743096503,-0.058084289788803346,17.598067287496452,3
0.6281751551179616,1.1513543871752887e-05,-0.00608980636801415,-0.3090152083266584,29.596153915307138,0.6286875504326462,0.0001162637864767778,0.008738100016174255,0.46181302499658555,29.65220622537436,0.6284600414388738,4.860519486485956e-06,0.0018321782878349957,1.4039865735242352,29.622511454843316,0.4463247728401309,0.003174419882602029,-0.05549529423927879,0.19776386033903806,15.17534228512213,0.46593212759669306,0.005424239844260543,0.11863658300339036,-0.8530597648167026,16.683349812983852,0.5277230678604053,0.003110110340648247,0.02666072225751559,-0.40306474458317354,21.11702089160783,0.4505982456518002,0.012008225457974383,0.13752589504754664,0.11380060581066415,16.11651710772611,0.5212168173834956,0.006276442200196148,0.07789067791860227,0.01662563458931321,20.839479527068022,0.4768119206595137,0.0027205204646980215,0.02540358230015677,-0.11920035003833505,17.25253909061373,3
0.6285666756456829,1.3991407396026287e-05,-0.007072583919793041,0.04374565828809759,29.633240294067193,0.6285102668635228,0.00011556012658797423,-0.0011128344577268079,0.4979533069048866,29.63543811583176,0.6284928517948812,5.176251067721983e-06,0.0012870778196805155,1.214837931038817,29.625627899373704,0.44781286018034305,0.0034832885519649314,-0.04953934712407715,0.20842738767375257,15.297990183562867,0.4632806839935653,0.005266698821760071,0.16336748899907932,-0.9094639852073557,16.486910124926172,0.5278011637005909,0.0030525269347067272,-0.15431210775151172,-0.39680010378656155,21.118942123445635,0.45019600130036197,0.012794249058043538,-0.004052666083161793,0.09830275829952732,16.147507399307884,0.5232026379179433,0.006314234954977761,0.04686912606054716,-0.04826773773791024,20.997828410990437,0.47694568852256775,0.0024636790622450874,-0.02656469178602311,-0.16541338585522222,17.24310148562611,3
0.6285315272509121,1.8738812091864105e-05,0.003742245384864784,-0.0989356050956182,29.63027772822212,0.628854044773878,0.00011110205252080314,-0.009995703699150815,0.4583393885365174,29.667527274021534,0.6284416442198956,5.217588728365267e-06,-0.000698014317177087,1.2603189393995946,29.620803615801332,0.44477348712435033,0.0035417786938771343,0.024410957573027803,0.2286083846437789,15.098850737003502,0.46796084746048866,0.005717941687883861,-0.11909897386029866,-0.8559455035747945,16.84717929159882,0.5268431216447501,0.0030232109437367304,0.12911408380368927,-0.3553513935094386,21.04099322166539,0.4510592470096486,0.012274670310803095,0.15747188682531837,0.12031189839125683,16.167408926467775,0.5229050748891676,0.004982595451430212,0.06038025214649073,-0.1011202648898253,20.875940864269285,0.4809978292600716,0.002710006481734565,0.20875779999133426,0.0025524673946998016,17.552458861115927,3
0.6284694805435955,2.0340884877036284e-05,-0.004234466756358857,-0.11296300087930497,29.62454682358615,0.6283427992310332,0.00011293081180328508,-0.007327294888247238,0.542553278904425,29.619457380985224,0.6284620944079805,6.267215180947164e-06,0.00015482773261321636,1.4593888882534465,29.62280908199829,0.44331021151964367,0.0034129601814297866,-0.06085303043879897,0.232579138856798,14.991854826245149,0.46463537761387114,0.006143818981266726,0.01574519907577232,-0.8218667053728582,16.64609516439258,0.5277593024508452,0.0030572928003076145,0.05229501302749062,-0.219630212855316,21.115980766477964,0.44803487027466965,0.01383570503178395,-0.13869066184998863,0.18338680034275753,16.078985546005022,0.5228280576427082,0.0049341856910280245,-0.03098466299944036,-0.20074961013515513,20.8663180805196,0.4779500678917225,0.0028461539856354575,-0.004662005917013601,0.021010892734435998,17.343335449764684,3
0.6284697699607219,2.0610820117881498e-05,0.0013789042434114718,-0.11399647656858304,29.624594082274914,0.6287692542050645,0.0001192293256630627,-0.014598890325941527,0.4979163545388939,29.660131097618525,0.6284098334370068,5.6921680832760165e-06,-0.00040805489910278325,1.7227983592132858,29.617840127462653,0.4456019938631621,0.0034633886871855393,-0.0008698573896911976,0.1261223113902116,15.148376032963645,0.4652073087375536,0.006141779859487856,0.10507843193640992,-0.8370028242893967,16.685829717314917,0.5275057283060829,0.0031239456273535683,0.039342410107119086,-0.2437920829820603,21.100843981103978,0.44858944506411036,0.013753885736860703,0.0870381659583882,0.16884973507719894,16.11022431124718,0.5238796240750502,0.00544940468700901,0.012856167126507223,-0.26444404535643423,20.98699548591487,0.4804280005525421,0.00273587509897622,-0.048687444405962454,-0.09146195848701863,17.51328453594274,3
0.6274102576855916,7.157912459170703e-05,-0.025547310237254983,-3.0548845383323773,29.52856921390232,0.6287026062494189,0.00012762865740077855,0.0180790973278806,0.5065418931134242,29.65446705350854,0.6284278752130691,7.817255149721909e-06,0.004983677010404697,0.38342530134771347,29.619698052742045,0.4440067362066094,0.004465893092273145,0.19628546411239195,-0.1120166886769772,15.116124723591636,0.4655240876845003,0.006366066437185222,-0.024387772752834658,-0.8147814927500432,16.724539632438184,0.5286942296284892,0.002572765275276894,0.001979668884092789,0.2045628168687867,21.15420376355512,0.4491350204269495,0.013709576215651728,-0.1464459597267757,0.15849500464542746,16.143678633001965,0.5205668249056629,0.006202221990167635,-0.13590238846425856,-0.5167643512437705,20.783200866699634,0.4789274874775189,0.0026464868934767713,-0.03846126250301546,-0.047539717747936965,17.39870539973196,3
0.6274917725833422,0.0004188822652062242,-0.10828278037141936,-1.4208587174824572,29.56194163710913,0.6285480645559121,0.00013753730610595785,-0.023318182281757527,0.4094293552405423,29.64062796992556,0.6280916660943482,5.481415115999514e-05,-0.05555118358549649,-5.797747249265447,29.591491823473902,0.4443719782758809,0.004369019190464443,0.03236235692561085,-0.18665153321327824,15.133291550855864,0.4646479850049294,0.006353786593276853,0.03607155011315771,-0.7744544664716686,16.662511455588064,0.527668103880702,0.002584820997424257,0.07896978116853981,0.18142505777084306,21.073798842788523,0.44723032960373116,0.012395284353038761,-0.029614785660697196,0.09214198225753092,15.918373620934515,0.5229094149915032,0.0063784985767092765,0.023198487590911032,-0.5426695033863712,20.9795781161832,0.4797187538385858,0.0026448090358787532,-0.04543589525724562,-0.09674679541401321,17.455472077488448,3
0.6293144915209178,0.0008325173632606498,-0.032192846027310096,-0.447375086864393,29.764360977748645,0.6288379495815075,0.00024093553851884267,-0.01748142624604243,0.8717921706216409,29.67561674239098,0.6285078862679359,0.0005395910667798761,-0.06707118772077059,1.4525487088228435,29.66659197151586,0.44425303842459024,0.004372453019779857,-0.13301888878338924,-0.18226437211382854,15.125618684674748,0.47031617670537923,0.007078344568519663,-0.23102596145910392,-0.3916960849217283,17.113595453377858,0.5256855388220572,0.0029187521832840543,0.04520123846458185,0.08205038384214652,20.94188409106076,0.4475434409741637,0.011791052865839478,-0.05586740678689173,0.17866482277964515,15.894672778996728,0.5216469360433157,0.0066058052608464835,0.0694063503353316,-0.5433613844458912,20.897494030556068,0.47982705725524566,0.002893166228414283,0.20172160623046254,-0.0021703760583092185,17.481644666469816,3
0.6283674236506555,0.0008745051786058721,0.015392485027253322,-0.3638032857698777,29.678134816119,0.6285349304924334,0.00022593377512506146,0.023457558619621954,0.6806302069184814,29.645931013043864,0.6288835395185803,0.0006083767083388033,0.025750064743112144,1.1612956717270788,29.7071078472234,0.4464143807959432,0.004150156583216551,-0.12593057584111228,-0.20429099585099791,15.253546540764928,0.4658210790367883,0.004959285747180217,0.029274395033281164,0.25954014486687826,16.641182970916176,0.5257736922441276,0.002920500749688546,-0.04482400546990761,0.28420683819530057,20.948965214678648,0.44630513880405326,0.010849952728843138,-0.23466489570005844,0.14432929086764845,15.742017271152283,0.520065395451616,0.0066970408994292295,0.05975510230198916,-0.4430620114479405,20.780682192526207,0.47933280880993284,0.002261921496104196,0.034392131126483816,-0.05962612753139896,17.39937781083318,3
0.628451981734344,0.0008823929189442087,-0.010035221738418643,-0.3654565913101524,29.6866890769387,0.6283500662560711,0.0002133759352591227,-0.0009573868890881965,0.8828551128712585,29.627575251509835,0.6281732034793444,0.0006224189707520884,-0.006108123541977095,1.1968863314891036,29.641177021548287,0.44543968667028194,0.004101000286806423,0.0625502070723622,-0.19360945133320007,15.184712605792601,0.46478321809016687,0.004752969431229898,-0.03228814499354615,0.21632400914969294,16.553477724279876,0.528050281192175,0.0030092616347259737,-0.048970219285340566,0.18549717260291312,21.135467821004845,0.44790582054301675,0.009477032286061655,-0.09529941274032988,0.3274945012782867,15.747772194892047,0.5206919373667668,0.006533224859093976,-0.10497267017262324,-0.45844803475261686,20.81746566247973,0.47933875456238034,0.0022343416514399262,0.03676547832511462,-0.06734799409445091,17.397764404112586,3
0.6286357050529301,0.0008852230000205597,0.0029244190561752426,-0.3822060995720155,29.7042202270561,0.628618212624194,0.0002120478064870496,-0.009034396867412808,0.8366173830609096,29.65275583089278,0.6286194795054716,0.0006263911784029476,0.002172806557856677,1.1327791935282068,29.68353669823157,0.4449709184721634,0.004527175430665034,0.05411256154069821,-0.24335782896242203,15.184944853316269,0.46531532731643344,0.0046853026595704075,-0.047246966388467704,0.20773846662320147,16.58558893447818,0.5288398711522976,0.00326888605527927,0.10407794609813292,0.21749461018360186,21.21726826711907,0.44849261761667597,0.009492201610332868,0.007514720095939009,0.32396297073791536,15.78834502341398,0.5200275746047555,0.007741420259130812,0.013101809415585974,-0.42577387053252636,20.85501597537351,0.4791312270896096,0.0021235329933977417,-0.04828256602026243,-0.04596260979894875,17.37464639944106,3
0.6284324024535423,0.0008811289428796782,-0.009319407175013783,-0.3632869060807162,29.68474987578792,0.6288064807096586,0.0002092171698451523,0.005689359352771595,0.8233518146880168,29.67030133425352,0.6283761124591324,0.0006274042246655907,0.0030790712776064266,1.1596288519312785,29.66066831581917,0.44546956299366564,0.004292152886505033,0.014280721548519615,-0.33338367233046085,15.200854180133925,0.46313491766918785,0.0049358270241333865,-0.048862439751612474,0.3002442559076432,16.45229759711928,0.5266100741896711,0.0037906410504352167,0.046177749853389516,-0.02226863144916709,21.079370205586024,0.4477093295181567,0.009472857014601765,0.37129825010105716,0.17684110941754927,15.73426469940033,0.5225647751003858,0.007725950295254011,0.06439664212376273,-0.36231001664582807,21.05226613502755,0.4799345491901111,0.0020915284601471093,0.006879747924593116,-0.06561816743732363,17.430060969024524,3
0.6286222578203087,0.0008776987090344174,0.0005484016591427165,-0.3844242990831352,29.702395431501245,0.6290049266201637,0.00024201163114958565,0.011026103422285716,0.7021004157538415,29.69144868913787,0.6284717082135174,0.0006275397643035629,0.00040276493345281494,1.1475643627780558,29.6696895444197,0.44405305164539605,0.0041317642486296555,0.02477556496049438,-0.3685757788720029,15.094484005067754,0.46321875613164404,0.004739849438011162,0.08927419936990938,0.312498071524576,16.44362006082389,0.5286356319691615,0.004009476983935859,-0.04274626862858,0.0161088655653951,21.25587365086886,0.4458402210752712,0.009132931468124305,0.05906213526252074,0.2832354861206906,15.583849633274705,0.5213022686570696,0.007875818736912604,-0.040717246071242996,-0.31764842267513366,20.9645147345571,0.47835723426945614,0.0021104120726138016,-0.020576917541325734,-0.07005367465387236,17.318093761717677,3
0.6283281943175243,0.0008752565099159941,0.010376536419427818,-0.3559250280324849,29.674492964807822,0.6282023820392262,0.0002533148802512185,0.01333485451511518,0.7544107167627474,29.616612761120425,0.6283966032393548,0.0006274393156034413,0.00832304560167263,1.1570585316511075,29.662602331561587,0.4452112017976365,0.004197140648930776,0.017853266267368995,-0.42057363797282626,15.176564473478063,0.46467328383615325,0.004786682363466696,-0.015099832675837421,-0.01327498241835257,16.548309048227104,0.5273621511441042,0.003908316559087366,0.02089609442516699,0.027299263882669598,21.147528309822743,0.4523907643310069,0.009564349916006073,0.06402268273375084,0.30308010668879054,16.057067167683897,0.5229539900760433,0.008000044602686406,-0.06384622934896639,-0.36533267946114995,21.10306898083286,0.4765617671159916,0.0026560855924557467,-0.01649382404679961,-0.7597799383909853,17.22988417459547,3
0.6285549951912095,0.0008714487549869436,-0.0022766416505380915,-0.3820773258422492,29.69559085635564,0.6287762436671579,0.00026409417461583474,-0.01456277474302059,0.628559602547313,29.67151031393515,0.6284868155616694,0.0006233473927385202,0.0013166950890383111,1.1558385456007216,29.670803507176235,0.4453387475599997,0.004099967077436711,0.029183452662472686,-0.3928378313716469,15.177892569603502,0.46453126270069883,0.005224457987411993,-0.02378859479241674,0.1641406672634948,16.57080694304142,0.5274660890431812,0.0038466977740980496,0.06281719781226364,-0.07945311966762013,21.151191267071436,0.44629784699495106,0.009631013320930866,0.004497251060403523,0.14101946267813234,15.651327603173542,0.5223334971704648,0.007685570422584334,-0.015367187782850844,-0.3166283103825191,21.03115338124584,0.48036934474404347,0.002889572574163709,-0.04069472213423608,-0.6004555010020007,17.520431423224746,3
0.6283702873164888,0.0008703081724181766,-0.007379753532936628,-0.36386235379737325,29.678094153424443,0.6288271373432537,0.00026388035543462875,0.004178430189531679,0.601741530081888,29.676294795750515,0.6284058374761393,0.0006228198527191878,-0.002225540685633298,1.1672401960527496,29.663130912157822,0.4433102370149092,0.004225959200994183,0.11075101031586843,-0.28283452205942405,15.052018449039696,0.46445177085130707,0.005289712984200253,-0.09918879731356922,0.11245389844392267,16.57009731934944,0.5282606461167071,0.003815198723783117,-0.07400826840302022,-0.07166942544115311,21.21177297323301,0.4478531442207134,0.009782353467439003,0.018252037038088004,0.11630188315750804,15.766827065718907,0.5205369398080069,0.007292545933842633,-0.016046835725194497,-0.39002737704671775,20.8615513269557,0.4788764263367784,0.0029266234046682886,0.0048492677396086425,-0.510913305450042,17.41576750952675,3
0.6279156653914604,0.0007254805706882489,-0.06187402366026795,-0.6423127821356931,29.624541775530957,0.6283016152526241,0.0002572649417180652,0.012800696481836904,0.7006667352056958,29.62625658536638,0.6284546620435748,0.0006203680990561674,-0.0027517476516490946,1.1690582525211257,29.667551907652946,0.44527361929846176,0.003191831115318203,-0.13219289926342298,-0.18811229363497298,15.106340205769907,0.46446398085674767,0.005158036446199643,-0.01527603568140079,0.12878795772427679,16.56120391051607,0.5250704644023059,0.0038795826088405057,0.040261091973304575,-0.2060367535023853,20.96451355712817,0.4466912977443437,0.009453844213024285,0.19950183403149185,0.11794056832983417,15.66456813280323,0.5241450202885112,0.006878873912991009,0.17384472043738752,-0.048345769028975506,21.113636841554612,0.48020229546800286,0.0030452017115563425,0.03902073746152834,-0.5139684051446748,17.519913269610605,3
0.6305379473838779,0.00029856164736343047,-0.11968940643388326,3.2902473554084932,29.84045129373545,0.6291325528303839,0.00021922990831620465,-0.06849314590215738,1.1417943557801573,29.70180569053108,0.6296100436755866,0.0004336683677650997,-0.1362439596271816,3.3780872368562767,29.762751991502668,0.4465612205278159,0.0033859959081310597,0.014321154171618333,-0.23238259838703626,15.206832973148645,0.4635286297745346,0.005108409235537789,0.16042801800715717,0.17000600752935668,16.49243157997911,0.5267403718702552,0.003910920336257139,-0.16413001883538703,-0.2509396423380891,21.09856455673414,0.44719435605361657,0.008991776541123661,-0.1150711652582167,0.17595739448100173,15.66410087050881,0.518950751551769,0.0069488574410627125,-0.05034359225177121,0.09118099418662934,20.712456640849577,0.4783419249145708,0.0030606386075261293,-0.014027237236209578,-0.42730983105659487,17.387312041780195,3
0.6286356487163575,7.02933530215044e-05,0.03823757867663313,-0.23459946477278593,29.643910120901264,0.6291337593108164,0.00011995169060367833,0.0032119721388820244,0.3281792936616192,29.694572957946683,0.629284099485895,5.840075706214185e-05,0.011247111794401077,1.587881548437608,29.704207495955632,0.446897898906561,0.0036189355414378626,0.08785295915774866,-0.15880682057324433,15.246631133598813,0.4642826293162839,0.003959716745582367,0.027912120475777624,-0.17130996980349236,16.459896030536243,0.5298209694302701,0.0035309140013610307,-0.08890057487671654,-0.3295537571302392,21.314557109703056,0.4466466044967377,0.011476552767780038,-0.1326999129024677,0.13654038651814196,15.811254102950617,0.5216863714246671,0.006209669487597975,-0.15068929116841084,-0.04192410743282239,20.871265801849933,0.47806158783408914,0.002730087904035782,0.05205257126461943,-0.585974461906986,17.342742637082434,3
0.6281497850859352,6.126601082251567e-05,-0.011147816909070407,-0.1432665990356321,29.597445122563872,0.6280569457846393,0.00011518288766888863,0.007843372398453008,0.19137350953602913,29.592688069812205,0.6279098891716889,1.8596976493017746e-05,0.016711886534722664,-1.6750601721091836,29.57168834523068,0.44611342424786615,0.004081241779736994,0.2145287249178962,0.0653034881880893,15.228300938762283,0.4650034217168886,0.003942422900326832,0.0011658906194055296,-0.1741933489879976,16.508852960255275,0.5277686262663801,0.0032802699079848016,-0.11615783251134387,-0.37989591437763204,21.133219188523533,0.4483430335651419,0.012490643361910915,-0.12996630977715407,0.141342129064564,16.00016828976095,0.5208472956346303,0.0060725775966638555,-0.10004735797705883,-0.070369000271338,20.795513644896225,0.4785146479387714,0.0026138671963587714,-0.048740479472191844,-0.6094636264274863,17.366646294428033,3
0.628781386040571,6.176759326261425e-05,0.008509727475269346,-0.3060821876438714,29.65702315923405,0.6289701504232539,0.00011077679650291242,-0.009873998967100728,0.08016745615449573,29.678456242200014,0.6287343486817846,6.2143020205155475e-06,-0.00827436125675407,1.338219699752957,29.648475949272612,0.4420255638028037,0.004594404395010107,0.03062008337100841,0.22819276069612515,14.99398085436974,0.46421237952152505,0.0039007509150638543,-0.035852823312202464,-0.12653423022708477,16.45064056529245,0.5292386709631599,0.0031041154260453164,0.03841545919832695,-0.49519758026955446,21.23672235474124,0.4454319125947842,0.012484589453097255,-0.12976407268246443,0.193302933053863,15.804578776367755,0.5211607526108182,0.005732838835750626,-0.17933611953368223,-0.15627142728373433,20.794869828486128,0.4773978196976589,0.002735634265484415,-0.05337719004662472,-0.5409538244960393,17.29558780455173,3
