cap1_mean,cap1_var,cap1_length,cap1_skew,cap1_energy,cap2_mean,cap2_var,cap2_length,cap2_skew,cap2_energy,cap3_mean,cap3_var,cap3_length,cap3_skew,cap3_energy,accX_mean,accX_var,accX_length,accX_skew,accX_energy,accY_mean,accY_var,accY_length,accY_skew,accY_energy,accZ_mean,accZ_var,accZ_length,accZ_skew,accZ_energy,gyroX_mean,gyroX_var,gyroX_length,gyroX_skew,gyroX_energy,gyroY_mean,gyroY_var,gyroY_length,gyroY_skew,gyroY_energy,gyroZ_mean,gyroZ_var,gyroZ_length,gyroZ_skew,gyroZ_energy,label
0.518222982999,0.101944873716,0.608959757024,-0.0284918969627,27.6855501631,0.495933157165,0.228382186042,0.0881072873943,0.035266819696,35.3465089952,0.500047282798,0.228508181714,-1.0,-0.0199380382864,35.6631518244,165.98596482,116912.110948,407.174177854,1.35527681981,8651507.19049,11.0664850388,189.984383709,13.6502232907,-0.0574223155509,14058.8520531,92.709214534,33252.17665,170.238078362,1.3843770238,2460677.09079,76.2017980235,9221.60937468,-225.808377782,-0.368192339311,684171.453249,43.4889831177,2809.40127247,-98.1667042524,-0.100747316025,208090.945203,49.3500782892,3378.77508866,90.2194606444,0.17981803671,250479.345133,5
0.508544733592,0.116639933818,-0.227204899627,-0.0536890299422,28.0276860574,0.527125187735,0.220798275036,5.55111512313e-16,-0.108791343287,37.1786446185,0.495665923922,0.225507758131,-4.4408920985e-16,-0.00744828925692,35.113927212,96.0739952049,38179.3351754,1004.69747331,-0.716652044316,2826661.47731,17.9540012963,1066.75044309,49.3069310831,-2.78925112028,79305.3265034,57.5153383626,10968.4382992,543.814547867,-0.680575166858,811664.733079,127.408292067,61040.2596333,-1174.9450401,-1.8353877766,4547533.30524,67.2373179255,16286.5518475,-662.468129608,-3.04550784033,1212642.00306,86.9173393999,32253.6588002,927.275686042,3.14371453297,2404141.20707,5
0.507952664194,0.13635839087,-0.505429346869,-0.0481432704458,29.4417141041,0.507569231896,0.216620064814,5.55111512313e-16,-0.0196989281697,35.3518741838,0.514030620687,0.221171311807,0.999141396877,-0.0699818458288,36.183737999,54.9444961562,9547.39611205,-99.1171478163,-1.79305476031,716098.719765,34.7441837586,5680.64486916,2.77810924037,-0.797655491041,421332.886116,46.9233914046,5065.74135434,-26.7734182955,-0.579354833181,380658.233119,230.329566335,247203.082039,-1664.61831015,1.09768255775,18295331.8013,119.889998137,61640.3955564,-836.308145062,0.473036620357,4561390.53817,152.420223907,103293.134112,1091.17648652,-0.0643762006687,7643783.09279,5
0.502647763316,0.149069386258,-0.160132125382,-0.0410076348518,29.9802426306,0.520902565229,0.216235310799,-1.0,-0.0736096082374,36.3518741838,0.499401645506,0.220147770496,1.0,-0.0154799744788,34.9960852817,48.0324014553,8860.52861468,470.169610988,3.86140988993,676169.24553,45.4845071725,7557.96107952,-79.1784178694,-0.253055630773,559527.321421,50.53484348,7190.05802451,-356.090264382,-1.66470468054,532354.09534,317.959921169,381577.702717,-68.0812866913,0.652833567439,28262913.9771,178.578349793,128237.640985,-1727.00474069,-0.936234522398,9507835.43636,193.180786015,132694.002429,-212.834613126,0.0787677855728,9825817.07197,5
0.507398442872,0.163553435124,0.609180031045,-0.0328243017798,31.4119426864,0.475528526994,0.207775309658,0.299478186288,0.109567760662,32.3349264136,0.529003486119,0.216975600224,-1.0,-0.129157328315,37.044546041,82.2184275525,40031.7758926,-342.785390409,-1.4153109449,2962601.12667,59.2253698294,11588.8171183,21.7179141586,0.102061824336,858157.627874,61.2681315263,11184.0605463,157.6123793,-0.039693084152,828133.496896,410.11581717,491788.570172,1453.02502533,0.523970855108,36405389.8702,234.426252713,178168.663883,-669.315610348,-0.251174194659,13195928.1316,216.57208321,147377.666057,152.727046474,0.122606792676,10906816.612,5
0.492195315045,0.179311964048,-0.653034039179,0.0106526830429,31.4383024509,0.538675739373,0.204240760105,4.4408920985e-16,-0.150754256436,36.8766826619,0.49238547315,0.205897300136,0.726330240893,0.0114968380544,33.4196592727,90.1666817861,42410.50779,37.3095925096,-1.41076978501,3138793.32166,73.4887814489,14693.6728934,-202.407769426,0.0740412454202,1087456.82367,69.549251866,13345.887347,-141.090411459,0.198281516823,987637.459714,485.748114018,580963.688606,-293.530536157,0.497996680005,43026858.0046,301.350513176,244787.625227,489.831015766,-0.424218981582,18121488.3204,228.640877,150730.224126,-173.552510841,0.150372442979,11154036.9218,5
0.498428980224,0.194531621131,0.602667811391,-0.00113349409204,33.0276985882,0.512820865337,0.204999665525,4.4408920985e-16,-0.0455255201165,34.8938682433,0.515851836374,0.203023826819,-4.4408920985e-16,-0.0918414109342,34.9814969664,109.651211923,49909.8880602,-175.301168199,-0.884265385641,3693740.34965,85.1208873551,17038.8398596,-222.926042397,0.124277948525,1260926.69167,85.3131813504,18080.0046093,108.027494459,-0.138012665868,1337931.80422,601.668461428,847130.12249,1992.63294322,0.956346274523,62999083.9151,334.276502748,265928.417508,-554.160773382,-0.347738139146,19690152.3475,250.946146252,161875.412765,-399.912100117,0.158985249128,11980433.1224,5
0.474565098121,0.197998934079,-0.193830005461,0.10946880386,31.5428235484,0.52665468455,0.210480282199,8.881784197e-16,-0.102748498571,36.3779276396,0.49258194055,0.198426064731,-2.22044604925e-16,0.0112185874856,32.8813014018,120.184671475,52390.6241397,-13.7914967312,-0.879927297633,3878522.13877,99.4528537722,20621.6064347,-339.779370493,0.0269152680681,1526073.69054,93.5063886633,19864.7298747,-124.827827625,-0.227919620673,1470484.92564,757.374218488,1181511.89827,-2629.16847399,0.313564049486,87528904.3596,369.941047913,290730.429795,-500.802342834,-0.2988324911,21516128.3404,281.533748069,179460.833207,152.552591719,0.108297882662,13282771.1092,5
0.49677537817,0.200653625117,-1.0,0.00928090662148,33.3573014854,0.500533351707,0.211730164694,1.0,0.00504905027266,34.4580549002,0.497156590301,0.188730002097,0.049066897679,-0.00437753672712,32.5033708012,137.849104153,58862.1188,54.6830579696,-0.821350576492,4355798.95968,103.532772075,21032.3324225,-21.0734888195,-0.013634226812,1556490.50682,107.520600319,26172.9123241,94.245520709,-0.0612032949478,1936805.59431,815.954691605,1265187.77552,376.083255448,0.20597764684,93690849.6621,382.164258496,295152.221528,-180.917077056,-0.317304369072,21841313.5898,302.403935731,190261.182253,-55.9403389914,0.113253320048,14079794.6675,5
0.481551713659,0.198581846983,0.889371007659,0.0615489388419,32.0869606463,0.509735160734,0.216563577432,-1.0,-0.034682651084,35.5129497867,0.512038992491,0.18535310265,0.0839742003714,-0.0761517584137,33.3799243335,143.541319085,59502.706488,21.7086803199,-0.795745356261,4403234.3907,105.332280707,21124.8365988,-46.6382497121,0.0465182209916,1563474.37314,113.138078525,26930.0891441,7.0396972741,-0.0679376717738,1992875.96833,864.443355789,1314816.12082,540.649863734,0.258723833715,97300877.0755,388.791431347,296345.518178,8.69715433214,-0.305311572878,21929652.9193,303.815403054,190514.832967,-9.85097908449,0.0869194392628,14098221.8059,5
0.481387421421,0.197720962417,-0.515276503098,0.0644536400238,32.0113899315,0.517715825903,0.212518964346,1.0,-0.0703947648061,35.8286290909,0.500722011605,0.180673904752,-0.733712144565,-0.0218141238919,32.1740589196,171.111488174,70036.7522732,319.892694831,-0.585487336142,5186659.33558,129.455373342,30463.5573931,-1.37803077084,-0.0208076971008,2255450.66332,129.913073784,32533.7267019,40.2761126989,-0.166818009898,2408937.13184,949.393151983,1444463.68157,-942.198596402,0.201307907856,107063777.552,413.229279127,309571.740797,-273.555936426,-0.296799393456,22911112.8522,335.533751142,209352.743891,-334.539430247,0.0828306724608,15494792.5511,5
0.484682038472,0.191570542967,-0.662072963194,0.0411283527672,31.7949710608,0.524901817756,0.223399420619,0.643696905075,-0.0982417742451,37.1957009971,0.495790707354,0.17078060551,2.22044604925e-16,-0.010586319352,31.0733967201,196.52351401,80159.2175047,537.522186775,-0.477322440265,5935284.91685,144.929055596,34663.1125118,-3.86525431842,-0.0535509088772,2565238.89914,143.126706588,35697.793454,-270.916809712,-0.124231485772,2642545.94385,1100.15576649,1834340.79816,-2489.19976478,0.374678058084,135742860.95,459.410282058,342318.802604,-833.083482972,-0.27110972603,25337365.4062,363.218545809,225683.181996,202.903724842,0.107888660104,16700657.8735,5
0.49393720933,0.201327140758,2.22044604925e-16,0.0157630580433,33.1962559231,0.51210987828,0.226445273891,5.55111512313e-16,-0.0376942252193,36.4261898254,0.471888636708,0.162678476976,0.0754447671757,0.107120701509,28.7391237053,214.314046827,87940.7621067,-100.848388472,-0.428890854446,6507677.12663,140.573318114,33136.7061149,-168.08549668,-0.0240254205606,2453410.66127,148.086190028,37692.054768,-156.418948381,-0.0659715344587,2791279.41162,1139.86488999,1968660.86906,-843.685308092,0.17145001689,145931996.222,456.108106381,341175.172574,-1380.55873646,-0.267346871948,25258482.166,328.627574214,193622.79452,1179.74690434,0.04954292785,14345278.512,5
0.478094960716,0.191607277476,0.11570464029,0.0926471893522,31.3220478928,0.523548467974,0.227679336498,4.4408920985e-16,-0.0899745609177,37.4059957747,0.474822639469,0.16374273245,-0.00152504906524,0.0717536369999,29.0262026228,216.250079223,88174.5394266,25.4605579031,-0.42420718453,6524937.76873,130.950378588,29787.1729962,16.4811022639,0.00424159021121,2204268.74539,145.095123081,36884.9738307,-162.920707331,-0.115099074153,2729525.79658,1059.37802657,1780163.93084,-826.961016771,0.26338462713,131751450.577,425.513139871,303044.232771,293.879696809,-0.387787054617,22451261.0819,262.118928033,117340.301198,404.968337053,0.15724861714,8703696.08545,5
0.485318051335,0.198039215161,5.55111512313e-16,0.0448362179884,32.3199227433,0.523528292015,0.221486200401,0.0928432121009,-0.0880496148877,36.9461192702,0.496012234815,0.161045118322,-6.66133814775e-16,-0.0131101176152,30.3694490372,189.923502394,63247.4733236,-76.2056004241,0.246108182482,4693422.25244,125.705311339,28384.3287435,203.335023737,0.00807532416403,2101558.45893,135.40827219,32681.2781108,-358.312696212,-0.137597081457,2420548.9682,1059.11647689,1788954.29713,-911.563473864,0.205447746148,132419312.796,377.490485184,232488.292032,-1305.357255,-0.229710875994,17224311.6579,234.513330726,95676.046656,69.9856911442,0.136774019492,7080187.75652,5
0.477040334453,0.202106783399,0.40665299625,0.0718969862229,32.0234630237,0.543214311232,0.228991473041,-1.0,-0.169295063311,39.0765030995,0.488150277855,0.146288650064,0.541320653184,-0.0012135291258,28.6971621375,198.95231535,65750.2756078,965.577136446,0.100939610635,4865781.74569,143.260886652,38147.2857733,555.545801896,-0.0140776146908,2822980.31819,137.848850071,33222.2194407,-393.177202624,-0.242246404213,2460098.37314,1118.51487365,2120558.54989,-543.021161981,0.0575817876585,156936366.467,363.015327471,210848.206022,473.01220418,-0.0740926197168,15655563.9924,269.381869628,127291.8754,-180.175554577,0.0984091002907,9421034.701,5
0.498106073799,0.203858863448,-1.0,-0.00167968260493,33.6937804518,0.511603806357,0.221962720329,0.308754076835,-0.0429090170231,36.0556254052,0.490504927576,0.153551858834,0.214671619495,-0.00513074540401,29.4074688519,202.737142125,68295.6078626,-266.370331446,0.0412452565629,5056354.36205,143.127893001,37667.8153239,-379.996994838,-0.0439198436207,2788121.79798,134.593944519,32681.6073173,416.264320461,-0.35317602154,2422958.61341,1137.68973475,2214759.25023,1231.90744261,-0.111100375458,163941235.57,344.393028285,191785.979956,-87.8750199358,-0.02541735707,14218421.1112,273.225998631,127366.373864,8.55671312179,0.146495301991,9436761.64133,5
0.506426699244,0.202160688781,0.126201661579,-0.0357561772444,34.1949910978,0.508163897507,0.212324036903,1.0,-0.0336834544855,35.0792697355,0.495208610821,0.156980072853,-1.0,-0.0103303430232,30.0088930085,188.142273883,61698.6471598,68.1544006471,-0.0423229846261,4566105.16927,132.7111506,35086.1349276,-67.5544201598,-0.0466151013543,2596835.45421,131.472754248,30833.0433154,-97.4486744688,-0.271297058528,2282617.18849,1026.6524718,1877872.08431,1852.10707593,-0.193629737314,139029616.909,332.668494639,178638.213488,-567.076468043,-0.0398499441032,13222759.9958,256.715565202,118576.34834,-603.563364356,0.110559810009,8775060.97091,5
0.488775388369,0.203388853806,-0.94265508004,0.0338826892629,32.9683787023,0.520710912042,0.205226378802,1.0,-0.0816610404411,35.5222410753,0.511749594455,0.155187052538,-0.852648532798,-0.0766854129943,31.1254154447,194.865966795,64507.4501009,-537.949749742,0.0850073884123,4779438.54216,134.526666015,36231.8351842,-481.282372875,-0.0544638660546,2681410.3679,136.399743196,32218.5569979,637.651410972,-0.615263798673,2388194.90438,1052.51062086,2046314.11528,2539.96469405,-0.20296594566,151430671.082,365.767843443,224197.638127,-1056.93019772,0.0285380487682,16618315.1743,256.916120855,119311.369882,-79.4634519163,0.160593155604,8850374.41934,5
0.516206653969,0.203980836247,1.0,-0.0721904082326,35.0797801024,0.499741949872,0.201180516562,-1.0,0.0166418441646,33.6180094602,0.489977184454,0.158366699579,0.346067906117,0.00948338801802,29.7249588652,204.310377715,69930.1536208,490.252573185,0.098894852907,5174872.70652,141.95607272,37785.2398068,177.284295086,-0.0593041275191,2796240.1921,151.408367236,37575.4829327,-499.960280413,-0.437751605328,2781133.56674,1197.70120913,2692015.27026,1021.95778604,-0.0589907308871,199226701.907,402.302661916,260528.083885,375.877994928,0.0296960769729,19339583.6962,274.744362884,133948.68184,-373.08152311,0.168488898602,9927870.39525,5
0.518096985147,0.205652493109,1.0,-0.0719879228561,35.3501209415,0.499044634357,0.19951488513,0.451394196417,0.00922409587416,33.4425175306,0.492954631594,0.155249303408,-1.0,-0.0178940196684,29.7137686129,210.402941115,72206.5210533,-476.832820448,0.139315513085,5344581.16307,143.786853037,36849.8640996,167.332255818,-0.0437953996336,2730615.1112,156.53180746,38864.0507467,96.0576853773,-0.451578115131,2877495.2741,1187.24954823,2694047.95569,368.892211264,-0.069172927803,199363155.502,446.493646737,308554.015361,423.818504182,0.00187320299433,22895215.8481,300.413550847,146285.785104,951.742033995,0.233892343601,10830794.9919,5
0.530842804511,0.2095348426,0.431025503488,-0.13538838191,36.640134585,0.480807425754,0.194942117481,-0.534804376845,0.0823384322032,31.7639002431,0.493804400455,0.164856476814,-2.22044604925e-16,0.00251105320178,30.4875882274,211.776100132,77175.6942572,-33.347684382,0.29275003152,5712435.89554,150.844231109,43758.9253318,189.006414431,0.700999129458,3238920.11665,161.500849979,41789.7754787,45.2244006211,-0.615877645746,3094223.21698,1223.88818769,2972184.98194,3865.27332879,-0.171481023109,220075750.834,500.501154815,413632.445364,-1919.90937934,0.23202478911,30613825.8007,305.904370075,158426.69674,-329.323278383,0.0986867367357,11724009.284,5
0.53706752725,0.211596829424,-4.4408920985e-16,-0.154403331877,37.2912800394,0.45836624931,0.193819828395,-0.258384242394,0.176629531118,30.1001386892,0.501654589551,0.172712492391,0.920439936404,-0.0373584769685,31.6550239783,199.848635408,69906.7543123,274.379057473,0.372346406739,5174402.20086,148.257279105,43093.610803,-59.6253642989,0.730683409845,3189023.5019,172.703294208,47669.8049453,-432.300350155,-0.455983125111,3527806.3898,1317.17395759,3486388.83375,181.735182637,-0.183030320661,258029355.588,505.721684282,423488.100846,202.574230525,0.0965143435464,31378976.7345,306.242442144,158258.26442,-77.8585868219,0.0465806837181,11714314.3677,5
0.529352317223,0.213766910711,-0.761090400254,-0.112364450663,36.8347920738,0.48874075484,0.194390712184,1.0,0.0440326569688,32.2999771097,0.501523673506,0.173233739263,-1.0,-0.0656285193338,31.683746337,195.054251389,68453.9548635,113.925768907,0.403669656674,5065635.5499,150.839082601,44190.210033,24.968579022,0.721386050571,3270287.73792,167.247377332,46155.7755651,-62.2737741452,-0.493311300829,3415533.83895,1296.5766193,3435232.95138,-755.931576799,-0.141114057419,254225810.757,523.811080412,439619.456054,-304.654299422,0.218878473914,32561132.8562,319.098270374,168391.812804,-294.450103255,0.0220562085703,12462339.5861,5
0.532319521946,0.214386450378,-0.717771621818,-0.137886012954,37.1169028363,0.496949834519,0.197707306017,0.157265374984,0.0073041243227,33.1522759974,0.486253574129,0.172525855149,0.0,0.0112022272579,30.5001036576,248.639755455,113708.119147,-924.921677724,0.3550769819,8418860.01706,197.119025379,77567.7444161,-341.068873565,0.962324399098,5742945.33345,197.503603447,65277.8192807,279.720585416,-0.738525283879,4830959.74112,1342.56701849,3529043.82068,-56.9717784766,-0.189781050972,261151091.436,615.819607364,632725.368321,-830.326811765,0.529750590706,46863175.1037,385.981641341,253041.05887,549.860886098,-0.260037378484,18733720.3202,5
0.548688384527,0.215687570932,1.0,-0.195045400277,38.5403009976,0.464635070771,0.201530136924,-1.0,0.146879457516,31.1046613066,0.49578193808,0.165425874051,0.39043437936,-0.0519475073637,30.6764944393,255.39684407,117832.683018,700.772466883,0.356062426258,8720924.39516,196.58983268,75971.2362718,724.03406125,0.882824422867,5622788.81409,197.110168122,64559.976875,-244.156099165,-0.705225616439,4777439.93189,1242.76798746,3210465.21522,-3966.68215724,-0.109337605397,237711925.661,603.001200791,615070.983396,352.764757724,0.402387660308,45601658.178,375.349723427,241385.698284,345.586536473,-0.333871637874,17876792.5098,5
0.52853199448,0.220641607831,0.821276676902,-0.112735582447,37.2784341687,0.493090645866,0.198926052465,6.66133814775e-16,0.0341275098419,32.9559067604,0.497503721448,0.171660749035,-0.041176105012,-0.0372789541321,31.2661418927,225.300275977,101703.330319,-203.913711798,0.39982105634,7526238.89833,177.354738756,67455.5071881,-133.395040423,1.14277682067,4991742.86364,190.089341276,63299.4339699,-31.707878951,-0.742053765621,4684198.41269,1121.62376122,2878174.82692,-428.568548253,-0.128949033212,213040019.465,613.030687045,623341.477861,727.005209582,0.532571561547,46161355.6637,353.363492802,222755.43807,233.006924108,-0.334651179081,16492903.5195,5
0.525081163506,0.220747868997,-0.295075692828,-0.105002201311,37.013609426,0.489455493359,0.204045407274,-2.22044604925e-16,0.0570712721642,33.0668611367,0.504022727312,0.161615467875,0.153821118991,-0.0652882629645,31.0124628463,226.967580904,103315.61346,-439.23109441,0.386836376876,7648109.38959,179.508291974,69358.4932331,-386.686150644,1.09862052178,5134671.2207,190.747036011,62652.1117618,158.733977509,-0.719902918235,4638045.20621,1126.66558142,2900792.25932,2498.36759942,-0.0881826577733,214670672.213,642.652861319,663618.742055,1607.20238015,0.397719060859,49171977.1528,360.628536672,229719.04784,750.82319239,-0.383988141504,17009207.7783,5
0.501689212931,0.219736900858,-0.225045925608,-0.0245446807177,35.1374356414,0.495754872336,0.212434321006,0.0,0.0260043166303,34.1531067628,0.522001896233,0.160782044242,6.66133814775e-16,-0.111398991331,32.3343197492,250.898371607,120408.453135,73.4434082812,0.3926098061,8911833.59177,205.105037075,81959.4363674,-435.101890325,0.986868704855,6067601.3571,207.779674783,72887.6998092,199.027101994,-0.696807934939,5394615.2474,1331.88486873,3794108.81872,-3309.72028507,-0.0997200808381,280801508.994,712.060755775,770834.640804,750.755056786,0.367403073078,57115641.555,408.223385498,276468.679412,508.302003937,-0.303294166016,20459470.183,5
0.525442164443,0.21337958661,-1.0,-0.112688196193,36.4967995222,0.478707319268,0.211676205812,0.73909285628,0.0777455533635,32.8510915441,0.528074014389,0.166309900391,0.747084499186,-0.145137357107,33.2215949795,261.930430654,129637.297088,-122.935698134,0.303978585945,9593276.09913,216.378076608,87660.3062022,424.917594776,0.844185527625,6486864.30133,219.461812491,80368.8544141,46.0051616474,-0.406000066131,5948481.2671,1302.76080987,3597318.37302,3621.1018061,-0.269855483596,266917022.262,742.166482823,843799.660959,-527.817474168,0.363073520977,62452872.1795,417.87012924,290799.51042,302.180743221,-0.378809093869,21530887.1748,5
0.51214446079,0.201199467543,-0.544816100692,-0.0581208833499,34.560656752,0.476172021575,0.208484138871,-6.66133814775e-16,0.0794615318547,32.4333108363,0.535483383563,0.180973344265,0.739866516283,-0.153584940106,34.897711531,258.252719811,127643.979712,-20.8636405509,0.322693847802,9446803.08323,213.214986148,87089.5586534,92.5761316345,0.911354743583,6446773.20265,205.734995844,74889.9363692,-77.9953474036,-0.503451577087,5544705.88793,1256.84856818,3329569.99032,-2133.81773916,-0.288514389731,246412091.434,731.480568016,823224.927525,904.888862049,0.489592032327,61013710.1697,385.736608668,267423.983365,407.572562303,-0.386655443947,19790531.1254,5
0.503774667479,0.196646984077,1.0,-0.0302982659508,33.5860454913,0.499968816674,0.212069679,-0.518788781651,-0.00184175816389,34.4408175695,0.538215374234,0.185663521743,-0.0664077050994,-0.181260909867,35.4647847886,253.864381095,127070.475015,56.3281827173,0.299658047897,9403651.60039,210.910643915,86751.7121723,-15.1776191206,0.863069619875,6419629.15024,196.75066225,72345.400615,-46.9231532176,-0.474286728209,5353687.52856,1264.85501597,3342911.46679,1606.4706006,-0.249123659228,247376044.509,704.675604736,778919.246243,-670.303743316,0.387478837015,57665847.5806,377.770104205,263967.61614,-209.790713939,-0.425733036857,19533965.9322,5
0.467144773428,0.190650802641,0.790305706253,0.133172316204,30.474977346,0.506997465289,0.217651621729,-0.0232106485861,-0.0245840664198,35.3847022436,0.546918296445,0.181077722657,-1.11022302463e-15,-0.216333867847,35.8337232006,249.337889344,128678.598379,-202.748738714,0.240022911287,9522557.41116,207.196255499,85214.7881636,-117.032330557,0.605152261854,6305926.82019,185.011670195,64066.0562504,337.568013111,-0.507284153882,4741647.54465,1163.61250931,2667729.70951,5878.57597509,-0.449880942192,197643492.725,699.43900638,767395.404436,377.784016363,0.246817534484,56787269.3652,384.952272911,268772.835431,137.195028284,-0.471081908164,19890269.8429,5
0.489355924773,0.181970612686,-1.0,0.0425300924711,31.4260169221,0.505441271866,0.21867131344,0.439402420318,-0.0248192571284,35.3419931425,0.530952308926,0.180563288,0.235987145943,-0.142425104098,34.5049598885,245.478117699,127259.972715,-29.504475588,0.270199535301,9417510.17997,204.075880897,83736.6081677,-28.6434572182,0.6343502247,6197002.41364,177.508901421,61145.4336071,96.113630487,-0.537551266867,4524775.27026,1059.61182227,2280678.11948,-1406.13392982,-0.29532286495,168780493.034,729.35077054,810822.621991,-260.140095663,0.314662467488,60027423.04,368.245433372,255240.413659,124.700184113,-0.494367395287,18887830.7441,5
0.493164024623,0.184090757814,1.0,0.0327433349754,31.8635227169,0.514640091785,0.219275628198,-1.0,-0.0537196354566,36.0904782921,0.518075825559,0.181271224441,0.233897485639,-0.0956981573842,33.5442626858,235.346136189,122433.030486,-254.285116812,0.230535349228,9067731.25958,190.82668955,78965.1814251,-823.479401264,0.636194059219,5851019.31265,171.294150873,58496.6805209,557.718240109,-0.525411906382,4334249.62785,993.319265409,2201925.03645,1353.24166117,-0.27108214512,162955393.387,674.148315605,692393.821752,-1042.89470662,-0.0829388424743,51246023.1005,344.526722764,228418.068835,-438.733438958,-0.786361275981,16915178.6195,5
0.493768092695,0.179434386223,4.4408920985e-16,0.0203596048423,31.5636642828,0.503358049413,0.213343631334,0.707247287078,-0.0119320570613,34.7901281619,0.528269288128,0.189109569084,-0.886348261823,-0.11693685041,34.9242411707,190.96020979,80894.9038221,-501.892980967,0.233479990095,5986753.84408,147.92500353,47628.6888322,-472.317669676,0.159414044681,3524593.87301,149.817418128,43314.7328855,562.984772023,-0.0585064260492,3205482.70707,1016.00190927,2289333.36526,-1855.597833,-0.250168097699,169545175.324,621.365798028,605615.692055,-221.715290477,0.0218266393468,44817216.7777,304.068617441,173609.871491,118.559494343,-0.320878365859,12848618.6482,5
0.509553330124,0.176227884177,1.0,-0.0291430307611,32.5142081471,0.478482403445,0.213768007263,-0.243766508425,0.095575131326,32.9897383179,0.519268643901,0.194516638324,-0.536393149844,-0.0826170240941,34.6172255764,190.812840703,80552.9817844,61.3147698676,0.225230221666,5961155.25948,145.976429452,47047.3464187,19.7205926469,0.159020590451,3481704.6575,151.724251379,43847.1442821,-42.3595009055,-0.104599341122,3244838.89694,1048.28611008,2331104.57566,524.258539205,-0.330158560109,172507211.02,619.056183982,603345.94647,388.21144722,0.0349553634538,44652155.5157,311.386648927,180314.438458,354.484261146,-0.264109457668,13344135.3765,5
0.500067729675,0.175472342204,1.0,-0.00337489389516,31.7400333928,0.483682868768,0.213368913346,-0.432499518015,0.0639825308973,33.3354834031,0.511341480437,0.195812770412,-0.195562157555,-0.0506418942555,34.1004032316,186.683077479,79935.5666472,-100.803151123,0.197719323205,5915375.02286,143.489943114,46815.9574744,-156.318170523,0.128418813892,3464423.15966,150.658427974,43649.5063078,206.119887896,-0.0634205184543,3230242.80531,1046.85767685,2330513.57318,27.8731363498,-0.307300635757,172458519.606,584.908814009,573407.414414,-436.764374727,0.0392772891476,42434309.2876,302.883895267,177247.179186,-207.582535234,-0.280559238495,13116502.1765,5
0.499829917054,0.174480488148,1.0,0.0239083787597,31.6488020716,0.485881459179,0.219133128992,-0.56191382156,0.0520594521938,33.9219109735,0.505757564558,0.194724372518,-0.194616550081,-0.0264550049324,33.5939071244,163.217880195,66535.2681783,-361.818672776,0.0351180948553,4926930.24902,120.72317593,35943.9238363,-96.0230188823,-0.202991880915,2663712.17677,129.903693765,33966.6527249,-41.1121546247,0.304921707165,2519596.60832,942.303004242,1924195.31912,2480.83845656,0.106593567507,142548001.18,518.735897768,489997.740921,1040.62485495,0.0868856077216,36262332.7905,272.289518175,151316.236782,1167.34442584,-0.299376765452,11198179.71,5
0.537644807167,0.174242761995,-0.594466524993,-0.114762088484,34.5736097881,0.463286185213,0.213284987715,0.0,0.140491890854,31.8806457967,0.491440187139,0.193529867804,1.11022302463e-16,0.0353176126962,32.4347195326,134.728409693,53888.0315009,-727.474024492,0.250537146822,3988123.62186,96.0032805631,26791.0932973,-369.11768981,-0.346962396509,1983205.02444,109.253545662,26993.8392195,454.947741748,0.287264092002,1997636.38847,717.411055699,1222408.23809,-2681.59576569,-0.58477271085,90465014.6165,406.313263043,318355.492602,317.014899157,-0.452224058816,23638049.8618,223.027590619,104305.421912,1042.86049295,-0.69610899458,7738301.41481,5
0.521344027321,0.176703205358,-0.720209033146,-0.0218897541793,33.4610068082,0.468888682432,0.216861572301,0.660870616707,0.145263567078,32.5370010888,0.468145727149,0.195129089798,2.22044604925e-16,0.135461117718,30.8765842837,109.363911115,37193.1654111,-210.256871148,0.494036213348,2752479.66972,88.0239563605,23461.7527562,-254.82941791,0.0883222417658,1737189.48175,88.9233693734,14785.8769696,139.478427769,-0.42791357256,1094397.06145,550.827144576,714354.31724,-902.864048136,0.145887913007,52886197.0081,379.018958947,286246.185817,-870.504798803,-0.438499975339,21191046.0292,200.658418015,84730.0883101,-49.8029497982,-0.394831322139,6273172.76889,5
0.514144543593,0.182418738667,0.423048710015,-0.0122794696494,33.3248325394,0.477700290655,0.220367226666,-1.0,0.104349133684,33.4219923502,0.47104443582,0.193348448445,1.0,0.127023128901,30.9489997237,110.715428887,38122.8817547,-73.0572042097,0.444032370112,2822176.39131,92.0036557471,24443.5295176,-125.840111928,0.0425807723903,1809058.24558,91.4935531841,15372.1174787,44.9289799144,-0.36291793046,1138426.28644,559.835219616,747163.162389,1900.93783174,0.0969050677149,55402708.6893,371.312967857,280180.536594,-838.296740066,-0.531939270628,20749072.7894,209.535733878,89257.0265494,-365.698828339,-0.308416390022,6605242.77943,5
0.498345856697,0.183236031475,-0.299625456739,0.0552480944525,32.1856107956,0.501727811057,0.223013567201,0.0,0.000363206634477,35.382813702,0.437727778519,0.197397438817,0.0356018325218,0.264202839636,28.977831079,95.7500217932,25414.2559929,-230.175012561,-1.32080631807,1884712.73626,74.9644448605,15787.7321209,239.780912873,-1.65209321261,1173528.87853,83.8558172457,12278.2296267,-106.617025913,0.0572498164115,910687.958203,563.317975036,741999.823178,2187.00063317,0.0938550566611,55001435.4565,334.901443322,220646.970689,1730.25944833,-0.400388320358,16330840.3975,185.974795824,73330.4779925,1081.38920595,-0.446759127818,5430411.62343,5
0.520723972899,0.186787564592,-0.15432998531,-0.0395869515381,34.1587889762,0.46951167945,0.225357996759,1.0,0.128651190305,33.2095830457,0.482886480938,0.204584766268,-1.0,0.0779803383128,32.6277242143,77.283884607,15307.2591438,-323.263377005,-0.216097081383,1133473.79154,58.7672430686,8565.46619005,-47.5400255075,0.696658210619,633865.471112,76.3241914304,10745.8903187,75.586161086,0.0724293932625,796631.905327,460.617371679,479654.77084,49.0993572351,-0.785165160475,35507404.1839,266.040212702,131025.056274,-534.268228172,-0.486382952917,9709168.11718,142.990861521,43021.0664425,90.021142671,0.456111899884,3188820.5247,5
0.513833887463,0.193843089069,0.567793462942,-0.00597020049084,34.146283384,0.469460368319,0.221162569468,-1.0,0.131438711351,32.8955079473,0.492974330715,0.207168437182,1.0,0.0299145872437,33.5572411573,77.1942157249,15482.2522757,274.99428517,-0.431857690468,1145893.69082,60.7839418963,9010.66191299,200.640754347,0.588440454122,666818.037807,75.0946303119,10438.6106473,-146.23654123,0.216108389834,772618.044443,518.40245085,559243.445317,939.796366226,-0.778180444718,41399820.3041,244.802655409,110569.631852,254.264113813,-0.192414712348,8248518.91863,149.800824413,47894.3184219,-188.918271464,0.761802457238,3558208.85231,5
0.484918149967,0.194181863254,0.703424962908,0.113119743191,32.0053787933,0.506120247337,0.224607098567,0.553400464975,-0.0236830093114,35.8327531513,0.471364086823,0.206848152897,-1.0,0.133188845652,31.9705709903,88.5897438543,18386.9080484,-25.3678704897,-0.306902418421,1360636.0903,68.6233213893,10842.8453088,-13.4784966733,0.363651828376,802471.339633,85.3199874118,13133.004265,92.4293512032,-0.0934231090614,972100.292836,508.395453757,554491.796362,-311.791996938,-0.740268698621,41033090.0742,266.897027787,135375.219681,691.225320976,-0.247347268683,10017815.5813,170.901569732,59121.3121561,278.799952349,0.534543219204,4374991.12169,5
0.508416261549,0.195486077328,-1.0,0.00818794221643,33.8525018479,0.472147739546,0.226769825449,1.0,0.115045869473,33.5002286801,0.495072212036,0.206393715013,-0.669804586633,0.0332699974844,33.6553720458,75.6726892619,13534.1020531,-299.968112462,0.131679392026,1001912.54737,61.5307779634,9310.02323383,-79.8035598743,0.452153106674,688999.951925,71.1824117534,9214.52563273,46.8624824486,-0.233472659073,681917.17915,401.579107662,323737.958449,-1296.17927898,-0.0942111266595,23956761.7194,254.036095295,121520.647582,-537.102265555,-0.100787733374,8997827.01525,147.741228686,42617.9111686,122.929843776,0.575913062504,3167833.40925,5
0.50752686911,0.198634605306,-6.66133814775e-16,-0.00634945224269,34.0177250079,0.472128414992,0.227263370426,0.0,0.112741286988,33.5353824298,0.50907283564,0.205506205441,0.759037159473,-0.0238048455277,34.6440956016,69.2813693094,12158.8593797,56.6305612472,0.0391611029946,899846.203147,60.2819533708,9233.3944885,21.7578329559,0.397699628205,683369.898486,66.6366600036,8544.91404811,27.4581546455,-0.266561882609,632662.267161,384.44601565,308071.825073,496.119702542,-0.159259647059,22799505.5762,238.88230734,110638.259083,-405.567644465,-0.255630646995,8195999.99683,138.749735599,38836.7118267,-128.266109933,0.548903774745,2874663.91013,5
0.48777681038,0.198760924559,0.958155737216,0.0668386079643,32.5527746732,0.498795081659,0.228049221868,-1.0,0.00420195258157,35.5353824298,0.50600908021,0.208524740141,0.0968706096133,-0.00786037774225,34.6342199646,72.2229206762,12767.7059449,147.498425102,0.0575367175198,944844.69155,66.1920258827,11350.9954704,390.526974044,0.781146469196,840078.409375,67.3474205351,8667.04643839,-120.083837558,-0.324264937163,641361.479212,378.088155085,301814.701747,540.37511304,-0.176510339699,22336871.7094,242.840315098,112157.781933,462.425499198,-0.181072456376,8300641.45745,139.967469935,39137.4797612,334.56231893,0.552446546163,2897158.34454,5
0.504494193636,0.191390123944,-0.334092182437,-0.00313386470577,33.2514485278,0.473138863868,0.23028707958,1.0,0.119721547969,33.8307727266,0.514651391041,0.21310885038,-0.510323011437,-0.0412505754845,35.6350090006,93.6228595541,22974.4471268,-369.610567114,0.778148297268,1700871.20775,93.7095558459,21660.1876712,-265.960827247,-0.117586659978,1603385.27057,84.0486803696,14433.6934717,231.013761369,-0.747620224135,1068261.83673,471.844818876,603311.704359,4017.79565547,1.32286873468,44652812.9504,277.698597601,135787.284622,-396.257306083,-0.0884264852164,10055994.8929,166.171770621,56610.5136587,-13.561797624,0.00401985327242,4195179.86595,5
0.494822748247,0.192708887109,7.77156117238e-16,0.0320609844068,32.6241740598,0.486472197201,0.230832876052,0.820403615018,0.0653065985446,34.8307727266,0.525307321781,0.211227454533,-0.232051996359,-0.094317088681,36.3269153092,111.830185201,28777.0174101,113.104119017,0.271857620963,2129814.86724,104.406704177,25264.6933264,183.576700487,-0.180199985797,1869595.88238,91.1372894675,15743.7786573,-255.304835631,-0.563996125544,1165221.81413,565.861792106,788362.979322,-745.39501806,1.14438451164,58361046.31,306.701387324,154179.742408,-224.019368721,-0.113804262159,11430478.9434,195.840751765,71710.2434704,-575.358768488,0.0571588504258,5306597.24383,5
0.505535738253,0.191030603686,3.33066907388e-16,-0.0295809247866,33.3037433716,0.497987867446,0.232116704161,0.0,0.0176376368408,35.7760298171,0.512705311244,0.208917172562,0.525326503928,-0.0586412521117,35.1748759829,102.30811126,25347.2808203,11.2724196847,0.352753042223,1876134.8874,93.629278522,21617.7329856,56.5241760437,-0.34300782698,1599831.43616,85.846208754,14604.9936664,48.7976445256,-0.700690375412,1080879.85741,564.429747992,786275.622645,-425.610081236,1.07014769958,58187838.042,311.129590032,155330.95941,-224.957509473,-0.117942277603,11499647.8639,185.193649816,67766.4074097,-608.793586975,0.0334187866405,5014923.33805,5
0.507223650015,0.187314817428,0.667606156474,-0.0345647890887,33.1569838248,0.496102965939,0.229105769186,-1.0,0.0226689125965,35.4126883808,0.514322141844,0.210997060336,1.0,-0.0626178395612,35.4533273842,99.1105058181,25406.4018938,416.71177707,0.399247144229,1883047.64651,88.644788288,20669.645824,126.918099549,-0.488839083648,1532050.93565,86.4538967543,15552.6627484,-409.999325126,-0.791972290439,1153645.99369,528.857282886,729912.698049,1412.11049372,1.18768655038,54016494.724,294.683020929,154091.934988,-1064.89327853,-0.406484300543,11402829.2064,183.24202342,66459.2754652,-562.385384914,-0.0783396669576,4921377.33283,5
0.513426596809,0.180983089922,-0.621168897981,-0.062759044771,33.1632639275,0.481544959488,0.220426701323,0.0,0.0738082571091,33.7029919985,0.540045767945,0.211040590711,0.0,-0.171032229628,37.4907110732,143.366771671,55965.1549187,-160.286638952,-0.148348577136,4141422.36929,105.111679694,26431.5380622,91.4719075237,-0.365879847525,1956520.21163,114.214368058,33342.584897,-123.014551319,0.640147876127,2468262.28896,549.832979753,797767.814992,191.146394442,0.871223984685,59074424.884,371.873252612,291707.327098,-905.07083972,0.277297802287,21603013.9428,216.411069481,90486.3096281,-523.950147345,0.364429857196,6696226.30135,5
0.510933769634,0.184887665773,-0.161978623199,-0.0537480115802,33.2606860386,0.491918559349,0.218371850342,2.22044604925e-16,0.0251576237556,34.3083071027,0.518233097751,0.201578666441,0.458079945587,-0.0682487197382,35.0592370869,144.700467801,56205.6539266,34.9403389683,-0.13182749597,4159342.90901,110.282695948,27206.5603233,-14.0463927192,-0.287384057028,2013561.52817,117.976266579,34377.7914946,136.288876539,0.583312353658,2544011.90216,553.728493749,803924.589239,1451.25858556,0.979904696341,59523355.0304,430.034453778,360078.691938,778.018246093,-0.013467312356,26654806.208,227.290467894,95282.4907857,146.914672253,0.231707965167,7053532.62845,5
0.530656960395,0.182912174264,0.71061802251,-0.14101946402,34.6552616167,0.469636934264,0.2195169055,-1.0,0.121479124034,32.7861647589,0.50897776608,0.191335608735,0.39481047242,-0.0367285366022,33.5882125236,131.370559467,52754.220237,167.205584848,-0.131932308081,3904477.79975,102.785996811,25751.0697509,198.059354956,-0.318510155339,1906331.33202,106.780390938,31255.1952259,-103.295717364,0.710272050813,2313937.86414,506.407176471,729840.773693,-258.407352409,1.10642982664,54008313.1576,430.254039142,353276.618698,752.906345818,0.0539219838583,26151769.4624,206.505041913,82556.8605218,413.392304998,0.216774217884,6109251.26795,5
0.51921541111,0.184008692672,-0.660435627927,-0.0823460041196,33.8354914928,0.474730459924,0.218065780432,1.0,0.10417318531,33.0395434704,0.502475975601,0.192651081426,-1.0,0.00188831961054,33.1923379797,136.955331158,56405.1535103,292.806007996,-0.119010999587,4175166.42284,113.988455766,30882.7153092,314.409026389,-0.0408526206486,2288037.54932,106.418612174,31744.8106931,-142.119728832,0.738219086638,2349157.33784,559.680705539,823882.190748,-2414.32770131,0.773940105375,60970869.0646,433.878276404,367449.814153,-450.910345257,0.206752643921,27191333.5081,206.661449911,81752.1212337,-37.3089650442,0.301525385094,6051024.92251,5
0.532975048759,0.179731265582,0.800904695207,-0.132081590263,34.6047938481,0.468369517056,0.214327677965,-0.657080242177,0.12899912279,32.3129985074,0.509612375037,0.192332291892,1.11022302463e-15,-0.0424557870541,33.7104475593,151.903593495,62106.3266293,316.848700857,-0.156024793226,4595880.70794,129.380456572,35420.7322816,235.083343438,-0.0901196241397,2621145.14504,120.449663154,35256.1964443,-163.894138897,0.635083673449,2609069.75163,713.488420164,1264774.18783,-1748.74628337,0.575321128765,93593761.735,450.714496101,381364.87507,283.703316517,0.161880077608,28222452.2379,239.775786183,113307.527792,-224.717228323,-0.247375483975,8391080.42353,5
0.478283091203,0.175741278339,0.163878600974,0.110639626622,30.1614582468,0.526275113827,0.217686917639,-2.22044604925e-16,-0.100535934224,36.8812440627,0.457424980771,0.195690636629,2.22044604925e-16,0.19443639808,30.173928088,157.344983547,62800.9954766,-128.429392091,-0.145130028222,4647358.29555,135.830512472,36165.3698253,-65.9741910002,-0.0511401589671,2676480.8331,125.811926506,36168.3766754,123.253412953,0.596253311489,2676651.09858,710.257941146,1265534.36979,270.171447017,0.616170471653,93663219.8146,483.062658206,403833.346589,-148.807586191,0.225665783897,29891919.8801,248.538781709,116345.903738,243.922672061,-0.166188460568,8609871.49993,5
0.503792455956,0.170982109449,-0.290473318323,-0.00330143448366,31.6881890001,0.494965998506,0.221427861264,1.0,0.0215384558568,34.7600122093,0.496108594494,0.196719721605,-0.575711223323,0.0153546585028,33.0165397136,161.257034835,63699.701701,457.875422184,-0.115923378365,4714977.9394,123.736170827,29901.4174697,380.727585542,0.146395244693,2212793.99289,127.385079509,36649.8706168,-369.582385704,0.596404930247,2712289.28535,757.905501934,1335242.74406,203.440869321,0.575069108374,98827811.3127,494.411407133,416083.733649,-79.483844851,0.127953035778,30811636.9855,256.756143959,121050.971288,-267.810563404,-0.218921535016,8969244.40522,5
0.496627930231,0.180957136594,-1.0,0.0216122168836,31.8887756894,0.490659236816,0.223640891664,1.0,0.0398697626078,34.6054124836,0.510538410399,0.193845206095,0.344561099672,-0.0515468335153,33.893255388,151.920975177,56668.9299519,65.1728644543,-0.418008732994,4194647.42412,114.960651066,25572.800633,129.243575876,0.172435052522,1892931.51008,124.492549252,35627.206308,-81.1621165748,0.937642098123,2636460.52924,651.382841793,960435.999942,1685.5998713,0.0434615928635,71213493.6555,515.715641169,445438.655682,286.608267354,0.0454393009904,32965829.6975,250.232757325,113587.356202,-386.77134781,-0.118852030983,8405896.52548,5
0.498828330755,0.177699148294,0.039323824308,0.0192696748837,31.811964741,0.480711050605,0.221425714984,-1.0,0.0803152651081,33.7167364719,0.507725497594,0.201484349717,1.0,-0.0215285136683,34.2437304471,150.600756057,56499.7148724,57.9434201053,-0.328381291058,4181913.1433,114.48640893,24885.9933793,58.5999827243,0.179644530091,1841803.92832,125.112472453,35796.3569503,15.1843676796,0.872214876768,2649469.05831,640.644321689,921469.769395,-541.05191742,0.061342285262,68189209.7261,508.448717875,436478.942917,207.76526258,0.0948692075766,32301709.1549,237.515118808,104795.362872,-141.37633566,-0.166935080839,7754978.24446,5
0.478306797876,0.182115424107,-0.359549526116,0.122883374043,30.634845851,0.479549469879,0.226370259227,1.0,0.0858077154186,33.9989762374,0.528061345935,0.199530506071,-0.922974802014,-0.0971312135299,35.6789163296,148.772792145,56199.8166704,7.05653521098,-0.383933147389,4158834.23583,115.204553055,24892.8242658,-16.1943197864,0.128867079473,1842133.87455,124.482233445,35608.0261961,-42.0686461897,0.91788050961,2634993.94762,638.358999756,920824.540807,826.043757384,0.0605850154112,68141412.8831,494.250881834,428332.651606,23.5965544443,0.0736858615888,31696620.8431,238.274854499,104954.199182,-5.07238387336,-0.175255550671,7766999.68915,5
0.484665407861,0.187197471434,0.821846145393,0.103648936782,31.4701547044,0.48378529035,0.230514887729,4.4408920985e-16,0.0688720169851,34.6117172289,0.511859741469,0.194842141034,-0.0733591839112,-0.0285988387068,34.0683480567,132.920374506,44071.2583282,836.595994399,0.188658850712,3264320.30568,104.796819095,22040.518276,249.439405046,0.348693855784,1631628.4606,111.003078612,24934.3559019,-498.915142422,-0.101120460306,1849154.56549,575.912390585,806862.738557,-1469.39336666,0.235818769448,59734942.845,464.939432688,371094.880261,-2229.65458281,0.395174074237,27490425.2813,219.632378979,91764.9484836,-1037.50661059,-0.342654788779,6792766.71479,5
0.473747530238,0.19017212052,-1.0,0.135572325733,30.905491099,0.519638308703,0.235262827271,1.0,-0.0744797563536,37.6612471084,0.485608334969,0.194662693473,0.292942639651,0.0743250621469,32.0911984414,127.467649732,34527.0998691,-337.620058422,-0.356590563726,2555078.83116,102.646010852,21501.6681473,-348.497415567,0.335182667454,1591153.98549,110.323749725,21375.2969825,80.8609511857,0.478321400102,1582814.71404,677.110631882,1207008.70543,4425.27276417,0.348934130827,89333624.0355,423.58850092,272913.270531,-111.103447237,0.207940646563,20195834.6499,221.591605386,92565.6772124,-83.4856980734,-0.656422357964,6850568.11314,5
0.512736934024,0.189739786336,1.0,-0.025115863198,33.7581814523,0.461642092911,0.23318742578,0.146341253169,0.1704149284,33.2393761538,0.539266961889,0.199896872252,-1.0,-0.163313045461,36.6030327605,138.285724331,37107.3098257,49.426693158,-0.403257273282,2746600.49592,108.615589626,22969.0382222,-19.0078757197,0.246730726909,1699908.3203,112.471408685,21359.7154325,-10.0767834489,0.523784267654,1581179.74868,736.80144575,1296045.19384,-374.591106478,0.394196212646,95924158.2316,420.771886202,269636.818037,-127.055022469,0.217386502965,19953444.5444,238.532670791,102696.743235,-246.333801337,-0.449473618051,7600138.09661,5
0.473310998904,0.189701697422,-0.205720124303,0.127142518387,30.8396732355,0.52139508508,0.239391197262,-1.0,-0.0849766074341,38.1039112033,0.495955070653,0.205109628372,1.0,0.0314708808065,33.6259699075,141.071023457,37434.387109,63.1294385736,-0.318131312565,2770605.73519,109.072190523,23021.8334192,184.483350374,0.322947130629,1704002.97965,113.730469483,21562.1512439,-249.225119786,0.429558852354,1595898.13756,740.514526482,1300628.72427,-133.12376887,0.323874858199,96257286.2921,431.034833255,280830.357842,468.601804617,0.121625576158,20786429.5453,237.412348904,102607.319119,18.1302093035,-0.509442844239,7593849.6007,5
0.50303155837,0.197463157835,-1.0,-0.0136536325043,33.5903298335,0.484710283387,0.24214276691,0.477070715131,0.0701652590359,35.5393691629,0.513205374855,0.200419524623,0.0197274702802,-0.0551459652229,34.5845265806,131.632515491,33640.4494827,196.021081828,-0.507721923215,2492031.10582,95.4909952581,17030.3342227,136.719753759,-0.125938059539,1261532.30556,112.552180033,22024.150251,120.139671849,0.678873550957,1630903.5453,730.172134964,1234918.61084,-4821.0286168,0.605954433969,91409578.2399,411.037015669,248427.891029,363.037556409,-0.102561870112,18383828.4874,221.458349925,84788.7795282,426.070938149,0.00751800824352,6290705.38818,5
0.465997248586,0.198540845788,1.0,0.145069754997,30.978530265,0.531071226255,0.24477250776,-1.0,-0.118735212166,39.2659141259,0.483693079972,0.197136376102,0.851767612501,0.0836832535638,32.1350165025,131.881415827,32011.2206502,134.962493253,-0.326548695266,2368914.47914,85.4034962522,13988.8011334,46.937878812,0.130569338023,1035941.58222,113.34469407,23687.8487171,-124.707384548,0.474295808618,1752901.54083,661.953356271,976785.475529,223.537385418,0.209842063803,72316604.3825,396.099799219,234827.240531,20.4618352189,-0.127975404029,17388668.2815,216.318596761,81623.5111343,322.550098362,-0.0516934469515,6042798.84018,5
0.483539689651,0.206085425883,-0.997953290842,0.0625354558481,32.7861188754,0.491923160806,0.244876581058,1.0,0.0442440185428,36.2699967086,0.511305530852,0.196691362989,-0.962295998613,-0.0323599130583,34.1626618021,130.487887549,31785.0000022,-112.355219861,-0.363383970446,2352210.50305,83.9270274021,13834.7542795,-30.4598286718,0.0469588816123,1023788.1739,113.77231325,23802.5952469,-233.035357333,0.452663366687,1761521.07492,681.367373097,984490.993671,-404.825679484,0.268402718916,72868133.0348,397.511974844,236477.839112,465.799085353,-0.228210688952,17507216.7751,205.558892369,78430.0418154,309.015000379,-0.0935107551195,5803872.01831,5
0.494135045683,0.204671961263,1.0,0.0182689236054,33.4584333863,0.491923160806,0.244876581058,-1.0,0.0442440185428,36.2699967086,0.498680440554,0.19866931358,0.486712751796,0.0123274043801,33.3526928393,116.457527209,28434.0720959,-14.8851975748,-0.425559746397,2104398.24675,73.2978422668,11667.0767701,124.758760386,-0.14106118814,864511.569091,106.04211514,21599.1241155,256.652090442,0.605858945831,1599240.38186,637.980684153,921950.591707,-429.029284441,0.321264139215,68249438.718,389.946575261,226501.950354,427.780749548,-0.136130284539,16814549.3392,188.190623417,70832.6704994,348.921204625,-0.129717812347,5245943.62649,5
0.47977434471,0.201162685889,-0.169319586577,0.0763216766428,32.1497953939,0.499603257966,0.248970857884,0.0,0.00534934077746,37.1440996362,0.489381309007,0.198003602033,0.0455527874008,0.0653868791395,32.6143214708,129.523390543,35935.188531,-708.41399127,-0.0316549689695,2659208.76219,88.6636002483,19161.9397081,-470.249292467,0.465579905647,1418029.68306,112.036767504,24290.8276158,522.152677843,0.279800058779,1797550.00886,805.659635719,1552057.18417,2892.29933676,-0.0257104397759,114856537.983,401.241794273,255178.216639,-1037.06003584,0.428383969002,18951453.9827,202.657443968,87149.661201,-341.543773261,-0.163711609767,6474941.94464,5
0.524998098753,0.206880015725,-0.264252015134,-0.106099034592,35.9808464407,0.472936591299,0.248228691648,1.11022302463e-16,0.114371450408,35.1440996362,0.498984530092,0.198324368017,1.11022302463e-16,0.012171939807,33.3499203286,140.575214442,39743.1240708,156.967279611,-0.147435364941,2941794.59428,97.7382659961,22527.9973155,68.3422136371,0.405808328763,1667640.58542,120.906837238,26751.4088578,-180.190496034,0.312065879635,1980352.17878,855.35225021,1681451.3505,-393.340560422,0.102121968141,124449080.914,442.011861268,301818.97789,-658.341821731,0.340061359768,22373391.2602,233.241039901,112611.202881,-453.634544455,0.14160532429,8334090.83582,5
0.501987363977,0.212322256147,0.996174465262,-0.0295157169228,34.6111954743,0.486269924633,0.248779954947,-1.0,0.0597964046927,36.1440996362,0.486922979187,0.200410954095,0.965438962762,0.066026867806,32.6124596776,143.820947935,40169.5714799,-20.438121961,-0.0726674089279,2972822.87137,99.4856178927,22738.7828544,-14.857981101,0.470398317689,1682745.36753,123.001760661,27284.4365449,34.9079234008,0.210616486281,2019792.47436,861.919378663,1684431.04607,115.630581558,0.0591772975928,124648053.27,472.835358962,326039.722378,767.70987241,0.387886670243,24129472.9129,235.412876352,113173.225838,130.718880366,0.187395535365,8375242.25649,5
0.523453425003,0.216877709272,-4.4408920985e-16,-0.107649806973,36.5992120971,0.475684072552,0.246160953307,-0.771984356925,0.108611577437,35.1865608107,0.484918270678,0.20003264057,2.77555756156e-16,0.0570851661912,32.438345095,141.96653818,39344.4367855,-530.07913762,-0.101100302756,2912614.2061,103.874213758,23681.9246906,69.8470517858,0.374224004993,1752596.11526,128.13521409,29154.1718773,630.755078069,0.302200739314,2157436.76531,906.591332035,1772509.35625,167.196796514,0.064709634664,131313392.351,470.808990132,320293.170882,-679.543690116,0.312715200351,23714768.2742,239.054553345,114016.922004,247.002328286,0.148644051744,8437402.71732,5
0.537122505348,0.2195048505,0.139350437372,-0.163849168805,37.8809028683,0.440608120847,0.240411832074,-1.11022302463e-16,0.258914005634,32.3506392852,0.50603708959,0.192575829018,-0.234985076084,-0.048727349781,33.4561265504,124.881750678,31079.2123701,-204.902493153,-0.134776317759,2302656.02027,91.8919616174,19557.13249,-171.560613277,0.413940873526,1449164.25344,116.879443493,25490.8865519,-26.8951545612,0.448158897466,1888910.91328,768.508590108,1311771.22482,1371.27219016,-0.24016310766,97103641.8916,436.24248483,289399.988597,-1019.3897033,0.281958147032,21431285.5744,219.559271847,99008.2778828,-690.425445071,0.363284266965,7326627.03382,5
0.496955609007,0.217250084567,-4.4408920985e-16,0.00628802907368,34.5988720572,0.468631920652,0.242932411926,2.22044604925e-16,0.13997254323,34.4481892616,0.50241033349,0.188578464804,0.0971407874285,-0.016194835729,32.8860171353,121.762812227,30290.2733493,196.603984021,-0.0347271071637,2241948.20606,90.5258603178,19148.6519389,86.4602719115,0.516305096442,1417076.41357,116.121192219,25473.7959062,-166.165583325,0.330020022454,1885745.17376,727.684051373,1261068.66913,-239.304533821,-0.265937957469,93320814.0724,417.126680879,271987.750182,934.549178018,0.288647369392,20131317.7015,200.913919386,90477.2774956,57.5268290154,0.287156527327,6697046.9003,5
0.526298239079,0.212272315934,-0.507422740363,-0.105155932429,36.4823891134,0.438144451075,0.236803268896,-3.33066907388e-16,0.262992977539,31.9212338989,0.523896936455,0.193863762484,0.134166132771,-0.117773469065,34.9310184258,129.524181377,34010.8271836,-404.565732891,-0.194888131042,2520919.8818,97.4118424324,21440.4628137,-140.766585121,0.270098701654,1588940.16977,122.043971643,27494.078884,332.783072712,0.404578343018,2036710.61944,763.945173532,1348450.82563,2530.6513192,-0.240857817793,99979755.2104,433.376719173,312899.779645,1224.073388,0.566816051981,23157845.545,215.567925123,105988.534078,928.028957206,0.645536751329,7846521.34884,5
0.506699267682,0.209459000926,-0.240281145306,-0.0275304087216,34.7557771587,0.466873739756,0.234980631732,-8.881784197e-16,0.142480968475,33.7363984137,0.526066637702,0.199226597179,0.219081338245,-0.11870172588,35.498726239,154.540347565,53057.9571073,-265.367561773,0.195805487773,3929239.8835,115.909878397,32725.1869517,-141.575885781,0.497264625053,2424273.28362,130.703005926,34625.387133,79.2490499556,-0.257188512719,2565502.43282,941.732895629,2393676.75947,-1824.60246543,-0.29051739928,177197828.476,493.157676134,403774.499894,1159.66821928,0.320144234831,29892293.0219,251.947673991,150680.768652,1424.09727601,0.10468461271,11151585.7288,5
0.51931707944,0.206395918493,-0.677476404393,-0.0832371047421,35.5000651434,0.463315988073,0.232085226815,1.0,0.151447019921,33.2739346446,0.511151087951,0.198899243554,-0.295687588372,-0.0504645361968,34.3142016264,155.362657647,53114.8823583,-103.070325598,0.1265610259,3930566.61628,121.347476599,34915.9235184,83.9177424103,0.50284129226,2583785.28632,139.750459215,36811.5234045,148.431135217,-0.165846783203,2724144.092,933.233229991,2414959.72528,1297.87977301,-0.239567773583,178722043.388,548.644185051,484105.916878,-719.539565056,0.262088107353,35824241.1568,262.723539655,157757.075461,102.037817939,0.109382356149,11674043.3695,5
0.529610019291,0.20625904292,0.802653282074,-0.133896575117,36.2996771161,0.438212414705,0.228383784514,-1.0,0.257817653035,31.3026590841,0.546320760383,0.187751238335,0.142439134407,-0.198462676462,36.2785696286,157.946432149,53538.0600239,44.2084938325,0.147340623939,3961891.04613,123.8819215,35399.7937547,173.210268557,0.475728340267,2619818.95839,141.748446699,37074.4040613,36.2607647162,-0.178531376016,2743506.14025,931.121952306,2444403.43142,1895.09261182,-0.267652778669,180911910.528,560.948465534,496992.180911,102.020382514,0.259880460604,36777421.5178,269.283797731,159939.722437,-292.222088615,0.112687588318,11835596.7076,5
0.532965453267,0.209396932849,-0.482421642545,-0.147998081484,36.7992861091,0.461409612545,0.224031336926,1.0,0.155343269337,32.5457312237,0.51743420122,0.190189909857,-0.244258861353,-0.0702957535328,34.1544147739,173.366650573,64350.9984859,-296.17262028,-0.0347595574737,4764670.15775,124.192459327,34996.2309136,-282.382227584,0.45564525708,2592898.49256,150.367250655,40629.9367416,388.299644995,-0.0505532583737,3007979.28707,983.381096784,2630840.68033,-343.644874632,-0.300574782691,194753346.132,553.566637605,487425.975029,-1917.39921113,0.192764876432,36070148.0842,298.397396612,183801.422758,-1143.20557833,0.249645045813,13603188.4674,5
0.541425379959,0.207698862658,-0.968505633697,-0.200237202116,37.3553239915,0.45398954031,0.220059877905,1.0,0.187311163329,31.7424186683,0.539684495983,0.18530409531,-0.780439690952,-0.163246248105,35.5569546933,152.303704834,51934.54429,-188.013028801,-0.0543256632056,3845539.73721,100.188633543,25625.3799741,-80.492623659,0.467470692164,1899314.25348,132.061117549,33929.8661121,79.7913023235,-0.114530896419,2513114.48794,821.954034841,1966779.75142,880.897297997,-0.418016802136,145707537.15,492.610473983,408471.030753,-1178.27857993,0.140263873087,30229191.8693,257.65410356,149649.345822,-794.343825523,0.293736134096,11074507.4085,5
0.518510974033,0.20262935573,1.0,-0.0951344767418,35.1585945885,0.467322873643,0.221123223662,-1.0,0.132772674721,32.7424186683,0.533385993991,0.18324589602,0.973527245028,-0.131335405469,34.8977426994,145.073026013,50150.7030683,108.473226762,0.00888732073293,3711411.27737,90.3503666777,23117.4323739,103.833336569,0.480182180474,1710697.07322,125.398807651,32474.516522,-157.139476001,-0.218750208212,2403813.16656,778.552297257,1901896.84047,-68.3308449954,-0.546478745447,140762726.058,453.266329536,364444.980413,526.482845426,0.0458161637079,26973956.7278,227.041344395,130805.024732,-29.5497827441,0.188040766081,9682841.80345,5
0.497738088454,0.201516557436,-0.913622250181,0.00643393931151,33.4929656026,0.49398954031,0.222168834096,1.0,0.0244118785531,34.7424186683,0.520727281432,0.175936697788,-0.839191091111,-0.0955926460992,33.3560832583,168.293523423,61925.9754744,325.939773127,0.112312837075,4591816.45222,102.665107831,26851.2408265,284.367972809,0.511786025875,1991731.42398,140.400724254,40693.1719104,-111.825449419,-0.343298599589,3016846.25915,920.770160713,2537731.26292,-5485.1119602,-0.818460476536,188396679.105,492.815535277,429134.800235,-1291.471294,0.195110057943,31772659.6177,269.339627424,170545.178706,-844.714760149,0.0361901738855,12635996.4317,5
0.495700754926,0.199753655883,1.0,0.00750217701673,33.2107134178,0.491242059058,0.224338519592,-1.0,0.0293058265048,34.6999574939,0.546650741386,0.180057895004,0.225646851787,-0.176972646473,35.7363117096,178.829223881,67995.6386836,-10.2808609695,0.0524438489401,5032096.69979,113.841887674,30621.1101144,-65.6281574653,0.330059287891,2266564.9996,148.824148471,45088.5311661,-238.429527955,-0.204835728242,3336928.90864,1070.28977005,3296121.21752,-1706.17348943,-0.083007899807,243931717.714,545.584354803,492453.885726,291.248806041,0.149392542897,36485439.6955,273.889534614,176438.114946,-198.987171091,-0.0216037150424,13058720.9193,5
0.474394550857,0.201712590462,-1.0,0.100144912035,31.8054959354,0.539692959988,0.225872395649,1.0,-0.171813029093,38.5596941076,0.497196437081,0.182177489571,-0.13204795614,0.03862157992,32.0214565067,180.683718729,68361.1452626,41.8872547186,0.100455064375,5059026.4665,113.560075723,30473.1044178,15.5102149344,0.38778273592,2255081.63425,149.919050526,45305.785905,-88.6449706923,-0.262031262049,3352884.70607,1082.74936428,3306213.80088,-44.2870025752,-0.106790389106,244659835.196,559.519074255,506779.420933,377.039433438,0.20526374491,37501734.9872,286.858507403,181834.826988,308.452756248,-0.0142567614942,13456767.3479,5
0.518165075067,0.209404078323,-1.0,-0.0884247699635,35.6330301723,0.486359626655,0.227280643576,1.0,0.045490947289,34.5596941076,0.541694576584,0.183630598984,-0.923123462247,-0.159999556776,35.5961403973,202.050880681,78392.7915525,561.19785578,0.0776603050695,5801614.09344,126.309552384,34959.4457551,246.327966217,0.237960215263,2587062.47816,162.771974998,51353.4983281,-475.656925863,-0.274300030163,3800477.59093,1196.07055592,3663574.6942,340.013612299,-0.183701275465,271120839.148,578.861845294,521291.029316,745.655473445,0.174895994799,38582075.6225,318.453808119,202929.049745,-75.1224504767,0.063923775401,15021672.8845,5
0.490975898003,0.216382625362,0.0,0.0231791447307,34.0916142083,0.507559182958,0.221531855368,-0.104474030411,-0.0437211286636,35.7145816126,0.545935171609,0.180924100682,0.824330169032,-0.165230660078,35.7417743204,187.744173378,66207.5588241,-323.631182107,-0.171702724405,4906411.73476,112.764919522,26526.8667112,-47.1906125184,-0.208163342998,1968119.45008,146.657255681,41015.8047769,15.973703703,-0.0309797113822,3043729.23923,1101.85963563,3111424.0822,2674.01257306,0.160896830084,230365884.448,545.378142674,458295.624396,1103.80824599,0.14488875518,33930678.6745,293.939233685,173353.125369,1249.8801698,0.0948198670571,12830568.1912,5
0.505270237597,0.217534283805,-0.991841304373,-0.0207538989022,35.2448879766,0.490471380627,0.219643451255,1.0,0.0275284238226,34.295778534,0.533018280356,0.181866831911,-0.652818344663,-0.116623832629,34.766282101,160.61127356,52988.2537829,-132.683976502,-0.0131436177021,3921205.25459,91.2781891019,18329.8097641,-60.967651885,-0.079249537285,1356489.14344,130.562488983,34582.3248432,243.618988446,-0.142224684707,2559509.76626,898.71909317,2327228.33844,-113.670425089,-0.193184653287,172215594.073,451.959834468,332739.682231,-562.679055942,0.127365987599,24659859.4604,250.891674017,130469.57185,376.465315117,0.271001349232,9673496.47695,5
0.51553630887,0.211480133119,0.969439304884,-0.0594239829475,35.5828562831,0.475685315547,0.217671945732,-1.0,0.0806176933534,33.0784629412,0.549230715667,0.186609389494,0.430753585887,-0.191894173385,36.4331732499,154.610396541,52024.3045192,23.9758517236,-0.000956937252242,3849801.85886,90.1932180954,18230.5711488,-29.473570221,-0.0823925401719,1349115.11208,120.805770109,32740.2737323,65.0236550864,-0.181024024609,2422784.54115,895.289216989,2322718.15108,-261.241159455,-0.205718093956,171882011.303,401.517055689,282402.751049,-320.221082852,0.243430415225,20916247.3538,237.973876956,124532.533217,-47.52075788,0.202532291098,9215528.42667,5
0.470734130242,0.209521638915,-1.0,0.129503230989,32.1238978829,0.539254521782,0.213372505059,0.217194558681,-0.183245325552,37.5992233191,0.528924460536,0.189212783658,0.666267767366,-0.115535278869,34.9838273622,167.688425147,57208.0546082,331.391879801,-0.0439193722036,4239913.16717,102.76379684,23034.8374975,-101.885104703,0.144435095267,1704763.92731,134.190462514,37353.6698191,-142.252748513,-0.265470180323,2768261.45939,979.317826941,2539353.90728,3007.72586293,-0.139983171666,188085007.097,422.351077856,308435.84078,-983.716676385,0.322014427003,22847829.3493,263.105584691,145231.956041,-639.115592072,0.041706628523,10747172.7392,5
0.500135213708,0.209169479308,-0.543206709533,0.0201761999402,34.2386838681,0.522244500214,0.223346360443,1.0,-0.113024827116,36.9830795231,0.513442116027,0.183949439512,-1.0,-0.0502902891481,33.3839690122,155.864770079,47931.2134027,-188.638164649,0.0928541510219,3547634.75943,104.530454392,23371.8434804,17.2321596549,0.095735157769,1729656.28177,132.11180914,34865.9172235,177.795703254,-0.255215960214,2581004.94106,954.780950694,2492068.00226,670.920506449,-0.0288744259227,184482316.323,462.149887329,354311.567392,-530.368752129,0.34311417254,26219387.1869,250.427216579,131396.285572,79.9960031479,-0.217302092223,9723826.2157,5
0.482961262533,0.211371478413,1.0,0.0767985409684,33.1353579856,0.514818680728,0.220290733383,-1.0,-0.0813253684737,36.1793848223,0.54845141958,0.17833337061,0.409353799777,-0.190283234269,35.7565913981,155.162389531,47643.1843102,-141.758217741,0.127912230411,3525608.79696,104.189805444,23471.8029314,-28.2605523117,0.148188558626,1737123.60877,134.494694366,35357.7446317,-79.8426476111,-0.270714435681,2616522.69192,998.547583812,2577384.13955,-1208.35220531,-0.0925453949533,190726428.461,465.526198879,358715.305816,-99.8271252852,0.304450770305,26545083.4577,258.042778046,133939.565858,276.169148162,-0.182468410431,9911576.88438,5
0.514741359656,0.213450599566,-0.581791850432,-0.0465879848089,35.6672444184,0.491138327216,0.214728468191,-3.33066907388e-16,0.0086950326999,33.9811708806,0.528629562861,0.183080920078,0.0,-0.103095626839,34.5066791906,160.234139759,48653.5017138,417.334289986,0.116166674547,3600368.52354,106.802569388,23808.7431245,113.667001491,0.08783009346,1762118.13622,135.116515142,35327.1375596,-398.268634404,-0.283068094226,2614208.18752,993.354042925,2577009.61888,-628.145863307,-0.100675731647,190700574.789,450.485939052,349687.297298,98.0565316141,0.25381619018,25901697.0411,261.629360347,134060.925379,-292.207936076,-0.210044862812,9921444.82939,5
0.53220077766,0.208107053138,-0.256391858456,-0.128089016919,36.6427470128,0.470004362893,0.208868679312,0.0,0.0838694302177,32.0240898545,0.548070503308,0.181833170381,0.0293459806902,-0.19441388461,35.9842503529,137.081327017,35321.0987697,625.77159474,-0.169049026039,2614310.31512,94.2250419778,18079.8808829,290.466695362,0.119816306209,1337931.78986,113.196912896,23275.4898704,-478.549175571,-0.382334697287,1722573.31526,758.969909691,1385784.90301,-2563.37268,-0.492111566868,102575506.761,418.014426503,294833.587743,1120.14382319,0.38708849166,21907328.2048,228.366535823,97662.0289565,-290.313537914,0.103843246699,7249028.24964,5
0.49953320106,0.20301158857,0.925357916337,0.0153456177698,33.7378639762,0.507842794235,0.208595303141,-1.0,-0.0711560478654,34.7788752067,0.521418183565,0.185188210488,0.802510905275,-0.0840971133806,34.0946967375,145.588602333,42625.4462036,-45.8891607106,0.530917595698,3156649.00088,100.737113244,22237.160762,16.3600208598,-0.139908999549,1647796.34817,116.85205651,25497.8961184,123.986844821,-0.626710639216,1889397.43068,681.284451008,1122909.92199,629.944205073,-0.784267087665,83116098.297,394.264242945,262199.879159,820.430733759,0.250320715974,19438269.9171,242.358530369,112227.711869,765.835301712,-0.251839962721,8308476.62241,5
0.521387750757,0.191567822453,-0.805385468181,-0.0803594910282,34.5644078595,0.481176127569,0.208298517244,1.0,0.0359129064584,32.7788752067,0.541078814901,0.187369649594,-0.935511825031,-0.157806124972,35.8228253651,143.988095456,42519.6758028,-215.407819333,0.420423420068,3147245.03454,100.668145869,21935.6714394,78.9921288632,-0.284422229079,1623239.77581,119.197453671,26240.9883068,103.295208531,-0.535117077164,1942449.05904,735.878514586,1287603.95151,942.81431572,-0.593902656824,95619704.5316,390.952547099,260673.51829,-119.817762704,0.199556394095,19291912.9008,250.427484263,120019.331391,652.518727688,-0.197239077213,8881458.54801,5
0.510410385971,0.184485983416,0.888192355813,-0.0419960963476,33.1908699308,0.506186357961,0.210089111675,-1.0,-0.070004568179,34.7634414379,0.522525788617,0.188582562468,0.714520715399,-0.0705232318082,34.4325996054,119.858991577,31683.1466021,342.876198237,0.60519112647,2345759.61696,86.2674315697,17395.1366364,224.353538968,-0.101204672737,1287881.8951,106.101526767,20316.6308903,-154.015584177,-0.505252533839,1504445.97814,667.657250478,1040432.75925,-1052.06444001,-0.057479114525,76997941.1928,373.750349523,244387.730864,644.926811189,0.179712461104,18084734.3613,222.014524252,96701.0906693,459.457397183,-0.568361759049,7160310.74596,5
0.486509476043,0.182189697203,-0.547867366208,0.0593702953746,31.233897864,0.53842922928,0.218680121962,1.0,-0.19068394613,37.9252816459,0.506212010369,0.183830004622,-0.69936319303,-0.00756179780504,32.8222153002,131.112513931,36572.6163598,84.6101537351,0.381403061253,2706887.90084,95.7389249306,19719.4278518,135.509569721,-0.246197649983,1459240.08935,116.051262533,25598.3027047,-294.438224813,-0.158811091566,1894285.96488,746.408799293,1222371.902,608.362335077,-0.185589523662,90458673.1641,391.894313735,265758.820925,663.867716495,0.0967131511626,19671048.4526,245.745734853,113748.372717,119.165944962,-0.374489837087,8420425.30564,5
0.501884616846,0.181940877858,-0.0451088296676,0.00507749496703,32.3552376085,0.525511020667,0.21992491274,-3.33066907388e-16,-0.135890363554,36.9865810059,0.502123462714,0.188313319261,0.0,-0.00443439139005,32.8447835108,139.12348679,39225.1767643,-76.109436209,0.420419933449,2902754.06717,105.419363996,22302.1188516,56.0287826033,-0.15986809336,1650363.35267,122.137215476,26736.0238084,171.357536395,-0.168409305143,1978574.68706,752.609254654,1225500.85505,-46.5021716537,-0.237643516494,90700093.173,424.192138366,281287.29766,508.079608778,0.116672590815,20815309.4164,267.995062152,124101.039744,367.230898427,-0.354536952652,9184556.00916,5
0.488709866377,0.184118732047,0.547108195363,0.0426007753429,31.5375861835,0.53875111013,0.224098070073,2.22044604925e-16,-0.188760821871,38.3522140854,0.491258860123,0.185005269312,-0.484549542502,0.0495897547531,31.7905350028,138.45032398,39117.0287624,-336.791399936,0.36436935762,2895339.53984,104.592216522,22121.3473142,-347.615914802,-0.230592629361,1637874.92402,119.56215061,26223.5909254,388.213875391,-0.113278066841,1941106.42655,745.373984551,1207778.48397,2174.47315579,-0.149212904439,89432641.4004,405.496666907,259369.614663,631.09755184,0.0993748523888,19232236.2597,261.711471124,117654.438943,189.470133315,-0.31524905432,8725433.1385,5
0.523233270729,0.174259211992,0.0,-0.0914465507044,33.4281608573,0.502726721881,0.22844038117,-2.22044604925e-16,-0.0358085812156,35.8596499735,0.49220991256,0.192064899012,0.277670846347,0.0528125836189,32.3830973786,116.700285636,30366.9497442,-193.396302511,0.637316160137,2248650.79852,84.2103825877,15730.7812772,-202.422335315,-0.597958731708,1164707.54942,100.231468435,20520.768335,136.156142064,-0.121534179803,1519840.86551,589.705720896,764875.387265,1432.57198793,-0.30977823061,56614832.9876,344.675496207,200993.788062,-998.369425445,-0.014552577253,14873559.2873,224.302885529,90395.1771233,-223.073295223,-0.227707312627,6690632.35689,5
0.52499044885,0.174414403034,0.950493342306,-0.117749632551,33.5777886783,0.499383969705,0.226535525698,-1.0,-0.0226843999956,35.4674550915,0.496908002406,0.195731407444,0.654425652708,0.0293607622801,33.002941365,109.57498467,29185.7839992,6.20775316961,0.767505208438,2160048.98862,85.1985742729,16271.8527556,-245.993324699,-0.60895951755,1206006.25355,94.5755890022,19696.2125348,221.539207684,-0.166937944629,1458169.47294,574.186027689,744726.79229,131.182437929,-0.349078985712,55118377.4987,309.046459277,170296.317237,399.811040936,-0.0796234327492,12605099.3715,224.567109709,90710.8164679,340.010205482,-0.230841524538,6714175.72231,5
0.497693065437,0.161813944549,-0.599554512321,0.0143890597915,30.5516109505,0.538792907315,0.225105455539,-2.22044604925e-16,-0.182122658435,38.4301384829,0.475334422635,0.20365370274,0.153828529899,0.104891375124,32.0160850034,142.922766487,50058.5251328,-166.827829363,0.662350037676,3709286.9378,104.471414469,24859.942665,-242.46512857,-0.107314095751,1841517.49236,118.000051669,30511.3498989,138.608734819,-0.496731830453,2260596.46578,778.453200835,1794336.31619,71.7103407323,-0.424287956292,133011430.112,390.641307202,290642.177661,500.614318781,0.277710462873,21568409.6705,269.422311881,149880.677479,224.612866563,-0.181677899683,11104851.775,5
0.489479166998,0.152845460567,-0.421484484319,0.0152526566737,29.2798032014,0.537777639524,0.232591848305,1.0,-0.167325830854,38.9021559925,0.476492630123,0.203455857894,-1.0,0.123888825516,32.0841254763,145.923970907,51098.6918116,43.7425686947,0.540436579005,3781775.17633,111.114951022,27662.8087947,-52.1265502723,0.0169330618535,2047275.89906,123.692354884,31663.8562138,16.6003641554,-0.350503887924,2344070.90423,814.622212456,1867828.68219,-41.8899922672,-0.286905082925,138245658.727,439.862779183,346271.873874,-438.930711301,0.216464136376,25626383.619,293.448820941,165750.805627,-270.830385348,-0.131089701232,12265709.3068,5
0.4990959211,0.150252729817,0.76130013954,-0.0480133943806,29.8009573908,0.5146462311,0.23780533048,-1.0,-0.0667513188447,37.4621501944,0.492030066685,0.205816152998,0.94760587267,0.0680808820532,33.387414311,126.527741074,39801.0442817,371.715299903,0.407750824677,2945861.18508,104.884314921,26609.6641025,-356.792767512,0.0837069776859,1969197.53237,110.647501497,26334.6827862,-176.814425009,-0.354496357778,1949009.94615,787.666214438,1840581.20222,-423.453359701,-0.362834192536,136223819.684,426.989373803,326531.505164,626.765195329,0.11436323065,24173235.442,276.732351096,157972.505068,-276.866517933,-0.121438827427,11691551.5644,5
0.501718005652,0.142306839461,-0.510823978329,-0.0230792635456,29.4097779098,0.542581241471,0.237348277928,1.0,-0.177091018717,39.6433528364,0.452359137819,0.20525023719,-1.0,0.229872367342,30.5356767697,115.055912822,35907.1581886,130.047131941,0.335179546857,2658026.03452,92.3254500619,21039.9831194,-299.640400467,0.336807799919,1557347.4989,107.982072696,25743.1480469,-270.60992738,-0.277653428275,1905462.72936,746.241114263,1715729.92211,-103.602280897,-0.449372332,127018621.504,415.621824555,316978.644147,-1092.09940283,0.194766291741,23475394.8894,241.686544923,128220.329083,-516.580657512,0.0595298202612,9508902.65572,5
0.520496896326,0.148618753802,0.532236119889,-0.092945958538,31.3165642127,0.515914574804,0.238929245936,-1.0,-0.0677508276652,37.6433528364,0.469023104463,0.198863241004,0.314031796161,0.164603561996,31.2145802733,126.490375789,39879.1419918,-171.756634167,0.268059705821,2951226.14642,96.2861800611,21897.3073889,-1.50832404651,0.319843413832,1620517.0049,111.440917673,28528.9069934,14.5834464807,-0.0474889160721,2111169.85699,699.349628316,1596971.39985,76.6011917744,-0.415762391841,118185241.891,408.078974845,307452.251669,-142.961608193,0.141451403422,22766025.8383,255.025154525,139161.964267,92.6726215127,0.0337438273363,10298718.8717,5
0.492362493845,0.15588570603,-1.0,0.0195275976708,29.7171041472,0.525418235999,0.239473749326,0.0205500661183,-0.100304591022,38.4258816542,0.465153973874,0.196542462516,0.0260306370513,0.190024417431,30.771758682,134.49654875,41573.4643484,-357.632188116,0.226378760346,3076450.29658,93.8539104507,21529.0023257,-98.4535398843,0.326564715764,1593504.58066,116.824451222,29343.2959259,-39.3449590719,-0.0390402961597,2171561.56968,733.775857602,1623250.21266,-1615.21682204,-0.376552445545,120223903.43,415.281620901,315934.347302,1015.10104064,0.256567336394,23405342.498,262.921318342,145974.506003,609.038983605,0.098695822177,10806039.0159,5
0.515896079571,0.151447134261,-0.781312449584,-0.0817676150706,31.1682453041,0.499025570214,0.240399601373,1.0,0.00856250009237,36.4665594812,0.484810007591,0.196511338618,-0.66816432741,0.0939169804744,32.1698948172,110.622652876,32717.1572869,139.768407226,0.432030789665,2421796.04011,79.2026534456,17659.5766654,239.339825205,0.485863078566,1308268.19468,101.608097564,23246.6180301,-1.50668694405,-0.210427633389,1720337.72387,677.927435698,1496595.8111,237.484314341,-0.409535974906,110767704.386,390.367327794,291186.218679,254.750564457,0.244939191769,21547805.4053,237.268390896,128207.07794,455.020368898,-0.0133899458323,9487578.11499,5
0.509860097314,0.1570747854,-8.881784197e-16,-0.0561132525064,31.1203330321,0.512358903547,0.240245757133,-1.11022302463e-16,-0.0458179866534,37.4665594812,0.478124156376,0.196233621498,0.877180854663,0.132891687944,31.6664911591,106.245586595,32038.0808583,-3.2941541286,0.399576889115,2370818.55423,73.866271883,16478.7064154,-34.8898570988,0.551947570004,1219445.79806,97.7728803405,22563.6714378,110.027150123,-0.221440317417,1669730.40244,694.690584147,1510022.21098,459.81247544,-0.346173787206,111748131.165,377.337780204,283038.775556,256.456915492,0.318050091461,20952839.3429,221.712216872,120645.708418,84.5465419613,0.0838685920646,8931650.19427,5
0.521731087126,0.151681308749,-0.644314982331,-0.111014235243,31.639666393,0.487502785011,0.241828109064,-4.4408920985e-16,0.0605272927462,35.7197024753,0.511589028275,0.197015931588,4.4408920985e-16,-0.019836352288,34.2084289764,130.427866029,43131.0705897,-415.54966355,0.53742847426,3192146.32587,94.2395247552,24487.4185547,-287.423000206,0.776497233414,1812080.73397,114.007150313,28800.3921216,257.719794313,-0.437460516169,2131230.76552,870.65028117,2077908.41946,4158.22780004,-0.211004489309,153817688.089,436.750544719,348176.802475,-723.167417619,0.267593197994,25786147.8527,254.666820512,153437.42283,22.1562162248,-0.145801855937,11356778.2011,5
0.513394840753,0.147075752678,-0.00295067525204,-0.0644200753603,30.6516753865,0.539416292131,0.239125983797,0.0,-0.155981447456,39.5180680172,0.46948269203,0.204591543461,0.0,0.151074396141,31.6708240748,146.738893727,48021.5633675,66.2823651137,0.343842519721,3553908.70475,102.930679003,26031.5295409,73.1319946239,0.676192915144,1926487.65336,123.949177351,30933.9666536,-86.6049916103,-0.348172835793,2289608.23143,947.361612538,2205693.84038,-192.525297953,-0.114589536255,163251401.282,473.523963828,374802.322902,-311.761280102,0.16873969473,27751832.9709,262.673854251,155745.986509,234.067587534,-0.211730156157,11526780.2397,5
0.510499223,0.149350842058,0.288991812349,-0.0534084216716,30.5976715635,0.506548483024,0.241213450122,-0.980679315338,-0.00913020747181,37.0941477331,0.48681891314,0.204374107479,0.0,0.0768340622962,32.8981330178,141.899615269,45923.4129203,-909.876238623,0.414015927712,3398347.61127,95.2289936777,22708.2559527,-430.324745075,0.724747625877,1680896.43927,117.008329959,27504.0317728,463.373985053,-0.26990197211,2035431.25559,920.906139928,2111445.26374,5286.67156914,-0.192297975132,156311793.139,455.387789563,326544.24552,1824.59716553,-0.123640876682,24231777.6317,240.730908043,129031.766819,1447.44784178,-0.736294375497,9580802.23139,5
0.519401040216,0.158508010565,0.308884465112,-0.0841681326204,31.9629008251,0.509086547295,0.238760580446,8.881784197e-16,-0.0143479283916,37.1059664008,0.475971638077,0.201915178797,-0.813545629712,0.127833063426,31.93289825,115.996086169,27494.414624,-27.7819978068,0.181003789306,2035276.92854,82.0802696969,15879.2353998,-162.656919113,0.878098659931,1176070.39052,105.674934958,20880.5598796,34.4818380434,-0.0896368973888,1546000.19085,749.16133593,1147896.42691,1058.9518377,0.047266241699,84944770.0453,378.990744181,231014.631192,-715.59871071,-0.0343023914304,17095235.3143,209.983834653,89758.4814959,-423.570605935,-0.256919091126,6642176.50706,5
0.512870748182,0.167374569251,8.881784197e-16,-0.0766656808688,32.1134484501,0.499003028765,0.23183960823,-0.161532907431,0.0302515264248,35.8314327128,0.498684668968,0.205238834188,5.55111512313e-16,0.0305566201338,33.8391536597,112.593041243,26775.5921781,-15.2244896707,0.215960253808,1981407.24041,80.1340808815,14955.5743485,28.4692228081,0.869633727129,1106839.50065,97.4263520735,19348.143692,-31.7070846022,-0.149457959312,1431772.67737,773.027295815,1161042.49199,-189.065432413,0.0443802971611,85926619.3099,332.032082014,187434.109548,-378.406103165,0.0372508015206,13878726.5176,210.641389912,90965.8413038,338.1668123,-0.308019044242,6732048.45928,5
0.5146199375,0.172122256468,-0.169683181886,-0.0580630140607,32.599572984,0.547011497738,0.228022519815,7.77156117238e-16,-0.175955740611,39.3152848656,0.444759732598,0.201825637035,0.0,0.24848506124,29.7709386211,112.438993971,26776.4361467,-24.0207125431,0.23814427297,1981506.45007,78.607321838,14864.0668238,6.75285857714,0.862691534898,1099972.5845,95.0468491812,19143.2078329,22.505637844,-0.183746207128,1416666.45653,761.837550692,1151967.33295,622.81745328,0.0841574106735,85246665.2416,331.262404949,185048.120469,219.838697957,0.0891379072321,13693579.2268,206.391103752,90207.6879466,44.6602923238,-0.258463346698,6675928.02237,5
0.50245611809,0.181917673158,-0.380452196754,-0.0342042926777,32.3965691091,0.499930054837,0.221262460342,8.881784197e-16,0.0271295206248,35.118176545,0.504116734826,0.205891190361,0.222000468458,-0.00314085867286,34.2959742615,107.288757679,25168.0540521,-221.256817914,0.356880737714,1862483.88534,76.6102954015,14760.676148,-384.983710593,0.803088784422,1092356.63824,88.466187079,16465.1674206,296.447057365,-0.705214345109,1218429.73278,720.025524054,1082672.48224,-325.279051129,0.0524299309061,80165561.4848,321.902516885,175128.532851,384.39628095,0.161427730688,12960161.4052,190.878798401,79387.3264191,41.3726007163,-0.464998061719,5876893.92642,5
0.472973229323,0.173243811176,-0.319622168194,0.0785178129174,29.5978177012,0.539032597923,0.215562864166,6.66133814775e-16,-0.130635593906,37.74336257,0.481582593655,0.211020770382,0.142343562796,0.0901936735288,33.0096715966,127.091505226,37710.4558769,-143.691905337,0.523373813296,2797781.54502,92.7054466433,21741.6642239,-253.086946394,0.735859758859,1611517.66015,103.616449964,23647.6325362,60.7279348738,-0.504523080365,1755656.12895,898.803914116,1970823.79444,168.900075897,0.610235587018,145973755.101,374.342890631,250677.937121,1091.98549877,0.342683582577,18606189.7419,196.959559152,90066.3042814,-36.8035738928,-0.450076176767,6681090.33016,5
0.519518174581,0.168906855859,-0.233595458507,-0.10726322768,32.7415423625,0.500901642328,0.216367579486,-2.22044604925e-16,0.0212467196402,34.8288850285,0.495087935803,0.211480419208,0.0,0.0183593551394,34.0329558347,131.544824645,38662.716116,-91.3754373328,0.36019075424,2862312.88063,99.2192881509,23244.3349241,-116.586144695,0.593456086628,1720756.80924,105.37454473,24246.9670967,102.041929759,-0.335419793509,1795954.97384,946.509145897,2130327.81484,92.0240520137,0.460022799479,157653869.094,400.087416724,285751.096317,-1118.56870793,0.439183464488,21145657.2831,201.985569101,93304.0469322,-366.140019299,-0.403309701681,6904851.2257,5
0.478256867028,0.168981062793,0.895276598044,0.0584037147005,29.6593209612,0.525156531516,0.213724776815,-1.0,-0.0828997011592,36.4998371788,0.486116986326,0.211113715079,0.814771284369,0.077344824447,33.3456442455,136.861715581,39795.7302233,292.781812538,0.40086209909,2945029.14037,101.783347317,23583.3729183,-114.741820893,0.658962895827,1745387.96259,109.349997445,25184.9200712,-235.190197832,-0.396591679252,1863894.86109,960.169926257,2155709.87536,-953.989352451,0.479334870553,159534662.321,392.462746442,281800.064659,180.877325096,0.437430287928,20853233.574,201.247526,92886.4944916,54.2906565638,-0.344788190056,6875223.51588,5
0.488135626738,0.171297422795,-0.173928186688,0.0156750043352,30.5467385437,0.512592015673,0.213471201566,1.0,-0.0286623851378,35.5031620057,0.490927001008,0.206489624312,-1.0,0.0545050114537,33.355931223,143.399945893,41299.0002718,355.509375409,0.297515574894,3057527.71785,99.5067197063,22453.9705974,-148.879174051,0.687900300853,1664368.96792,116.321898231,26595.6951365,74.6907140645,-0.267217937352,1970817.61169,994.590291404,2207989.3654,544.278514012,0.446370668086,163391213.366,386.705274989,268620.37342,-1222.87377972,0.364963277532,19878633.0359,215.056828197,100538.538537,-770.094803419,-0.198661512347,7441407.1631,5
0.496826176997,0.175947321269,0.46393263027,-0.0233253690658,31.5328205351,0.491730293903,0.210240657461,1.0,0.058188678759,33.6927097978,0.505980345941,0.205565866632,-1.0,-0.00405461678388,34.4130824167,116.352385853,27783.616001,-197.420107565,0.232563109115,2058048.43467,81.3636760813,15226.7160658,-44.1473356588,0.277489788624,1127753.11928,99.8889535478,20214.6335906,-34.6326027796,-0.0558288310718,1496259.05537,837.467735399,1635800.60702,1646.92012189,0.695421048621,121237563.297,360.348661105,232270.879226,-55.1137992428,0.529053498094,17195303.7284,176.521947768,68316.5683037,-89.439092844,0.35077489813,5055480.7794,5
0.496338969167,0.174567889459,0.789091413899,-0.0334417591397,31.3944517435,0.482161280375,0.21085632445,-0.246797785996,0.0964954954517,33.0393305312,0.498952381621,0.208126125666,-8.881784197e-16,0.0303888969807,34.0728442337,108.279097772,26269.0536032,82.6648268276,0.318906219164,1944034.26439,77.0003449405,14440.7004243,34.3852505319,0.352087900678,1068827.66226,92.4666395258,18883.3365822,-75.3517760391,-0.0562389584446,1397515.2821,808.899919145,1578589.61184,-640.154691695,0.621527728061,116843314.502,335.783524786,207990.234348,138.970363122,0.576875344848,15391287.7468,174.949313862,67815.1983309,128.872098989,0.36968787926,5018812.97898,5
0.487891025084,0.178358844703,-0.967874393166,-0.02010769526,31.0513784349,0.487771179073,0.208176615599,-2.22044604925e-16,0.0767306448974,33.2491237894,0.511573828571,0.205431952789,0.0398297744626,-0.0216790905806,34.8300481623,111.886704522,28086.916918,60.8327515485,0.243837512874,2079524.14349,82.8568163599,17183.1822596,358.507770849,0.434237397304,1271780.1547,96.4390428914,20543.426798,-141.433078159,-0.11640223541,1520531.81255,811.766159448,1601375.74023,751.523388561,0.673044198184,118502874.574,367.62254909,254531.446333,1066.42453212,0.860814532655,18887563.6265,186.314487905,79125.2113309,703.176257767,0.576626606031,5884738.98307,5
0.494078099378,0.184232371681,0.898862785179,-0.0271002920045,31.9416831258,0.474957058443,0.212398053136,6.66133814775e-16,0.127720920378,32.6362714844,0.513905953644,0.194840657473,-2.22044604925e-16,-0.0367057625402,34.2256583424,132.671154716,41051.1785025,292.385547518,0.427093927579,3038339.9593,101.05629911,26626.6345917,437.728449512,0.516786821535,1971891.99168,105.948863446,25235.6671467,-159.45969055,-0.262215028024,1868454.98156,928.776728083,2077315.71473,-2663.45371074,0.392968332702,153746170.716,431.879657564,332533.778615,871.209219953,0.54979682985,24607522.6996,212.513400676,111295.135666,569.801046117,0.104321534039,8248515.50054,5
0.478623819287,0.178566535913,-0.439051963659,0.0425089648946,30.3949806868,0.506893164494,0.218881581876,1.0,-0.0168381629346,35.4677880746,0.502744459017,0.193383166894,-1.0,0.0148357197682,33.2667536806,136.105732159,41892.9352897,-84.2394285372,0.387909663506,3100079.83636,105.162645285,27876.435481,-86.7156327067,0.512109568775,2062940.11051,115.198060503,27085.3666232,122.323478011,-0.229662487657,2004415.64185,923.277311115,2074626.55858,196.694455454,0.437762054915,153526125.194,469.524116455,366052.541387,-538.57914651,0.45369732088,27088091.957,223.683513832,117001.637982,314.739634782,0.160702596207,8658390.88084,5
0.513226397083,0.181432229203,0.709317665084,-0.0942156365617,33.1810850607,0.449044159939,0.219184843942,5.55111512313e-16,0.242250534889,31.3427277698,0.519717049465,0.191912807385,-0.015920330555,-0.0425468854915,34.4594836093,153.772018735,48784.2512476,24.2520060344,0.296764702091,3612809.18111,113.841373357,29473.8147512,71.5186465799,0.44654708662,2181219.18456,124.544343407,29456.1000998,-286.971445429,-0.263869668251,2179821.55403,1000.38445079,2220460.50724,-134.754008307,0.386312964457,164319821.715,492.85416143,386598.493728,907.199287315,0.419476060165,28612012.5149,252.912952257,132292.202848,234.271177799,0.110673411121,9795221.68677,5
0.508420342256,0.182883566298,-8.881784197e-16,-0.0680567546011,32.9202272376,0.473908334662,0.226852307298,-0.298126533479,0.11201140476,33.6312539646,0.51361206698,0.185096944922,0.821067177226,-0.0186436054845,33.4819755753,155.701819298,48496.1586521,-826.337878185,0.314886346094,3588898.59757,108.746375512,26699.3321187,-367.098926939,0.393093640862,1975850.48175,121.081130837,27215.4871955,545.553289383,-0.193153971128,2014576.98887,968.778657303,2173775.37917,4528.47858153,0.375963025253,160859827.732,475.452689553,353159.743796,573.543882806,0.397038689314,26191710.6194,245.370989616,123936.833682,1030.81100924,0.122979158498,9184722.82764,5
0.534724392036,0.187093099719,-0.380601215311,-0.177062729838,35.2896525371,0.481269245278,0.224395650922,1.0,0.0829476557654,33.9767846521,0.498282332481,0.187863071615,-1.0,0.0341629209917,32.5232635142,129.755606883,35354.2726832,-130.357133188,0.231037312792,2616948.37419,90.9204570485,20799.0910703,-192.768223753,0.533570658686,1540179.75725,100.132937643,19842.9304239,182.448425452,-0.418262371998,1469020.67695,715.235154336,1096628.29604,1256.44252714,-0.138430015184,81150493.911,411.018438704,271108.249407,-413.153386147,0.347342468824,20063029.0271,213.102423137,102228.016038,-251.189604557,0.307426734474,7565437.60503,5
0.524134114851,0.183105716169,1.0,-0.133457939127,34.1535657728,0.470310782175,0.223685512235,-1.0,0.122030019723,33.1421452926,0.530250509354,0.190221555714,0.675862343748,-0.123474668599,35.1638153231,123.366458571,34371.3787687,67.8632866894,0.291637202865,2543514.70215,83.4349224125,19570.4691949,26.974567199,0.608119337752,1448228.46844,92.2070762345,18521.5556804,-17.3957277126,-0.479523832991,1370596.17206,687.31479511,1072025.15767,-486.579222868,-0.133653918293,79330517.9881,388.719309342,255002.473208,-56.4407903956,0.366743675171,18873217.0074,202.494495886,99839.1807341,51.9777198391,0.282201432021,7388219.01764,5
0.525242270542,0.18359803759,-0.536592166983,-0.124091743264,34.277212989,0.474809252585,0.220619282438,0.0,0.115422393161,33.2341138759,0.495645031539,0.195049325969,0.0,0.0129729939475,32.8584499185,119.601594255,32964.4967934,308.121220585,0.318294654579,2440091.30119,82.3345929629,19392.4225578,115.250569234,0.603821590492,1435043.11849,85.2156404948,16658.9121612,114.571162881,-0.574991039433,1233511.29606,648.270992409,1016264.21392,148.648283523,-0.18093943485,75277479.5936,393.512672441,259329.033765,143.730762857,0.324671470891,19208802.6729,191.609397973,92323.7149866,315.431846318,0.162437540887,6832611.70221,5
0.533313364014,0.180551148819,0.689170871581,-0.175933545104,34.6925208303,0.456687930544,0.217249840483,-2.22044604925e-16,0.180422150901,31.7187781386,0.526580672891,0.197610480152,-0.603301744647,-0.110944374888,35.4197159109,135.020186078,38236.6696362,-43.0489997426,0.404530138286,2835742.97714,88.5666122832,20607.7379776,-46.1837171213,0.566476909507,1526413.06706,93.9882705706,19426.5838216,67.5813121787,-0.508928157335,1439802.38958,798.359976059,1675807.1464,-649.982288897,0.371263020292,124057362.076,415.647425466,286573.413506,1497.69637271,0.363053886583,21206992.8719,212.628249854,108957.564745,330.918272795,-0.218495521706,8063773.11698,5
0.528874289515,0.185959081714,-0.589446626726,-0.149780305766,34.7390731051,0.477549652314,0.221962230603,1.11022302463e-16,0.0933692759001,33.5292303465,0.500052490844,0.184600083334,0.331382888936,0.014274264318,32.4143431866,143.05819213,40521.9176003,158.5116458,0.23557972294,3000980.40299,94.9566565678,21602.2640145,102.139971685,0.385516930229,1600255.86515,102.839985902,20977.1927918,144.002103379,-0.344227931678,1553118.96777,867.377039308,1852947.15938,857.170982706,0.220235953768,137165474.255,446.383849765,334449.155678,-1482.6537536,0.267039181796,24792553.5945,235.12666613,118818.320369,-658.701016331,-0.156118667544,8802518.09723,5
0.540213908241,0.18711323159,1.0,-0.172785771022,35.7337091369,0.467327288486,0.227060257674,-0.017691997468,0.128161814235,33.1820686601,0.518978169613,0.179363873793,-0.101848343633,-0.0857179673518,33.4733022008,161.211478111,48299.5359336,-6.01863966435,-0.010640513059,3574181.92923,109.129021889,25923.7102291,-44.6187695806,0.0664682647876,1918495.65063,112.510919849,23101.0980691,-7.13924477186,-0.264821780877,1709487.75279,887.885045969,1876375.77355,310.571632142,0.247327460211,138854588.828,470.875839323,355938.584469,206.881523303,0.0868063926976,26367722.7989,257.350648187,132705.393298,-221.721576397,-0.0660012632067,9820241.85465,5
0.542241149451,0.178179577986,0.159193139324,-0.150244285878,35.2371985828,0.45259180727,0.223427984193,8.881784197e-16,0.178025172976,31.8966216309,0.540313753318,0.185428036911,0.0,-0.18567997995,35.6170961333,147.191729205,39431.2844371,372.341735001,-0.405618110876,2927021.91709,94.1909187595,18439.3069825,391.623233565,-0.830580690357,1371790.46588,101.571487148,18196.2608552,-253.587938807,0.149042380971,1351739.07422,773.869978279,1548801.57496,-2096.15924464,0.651226629036,114854170.999,421.5151547,280493.272135,687.756146151,0.00929658764846,20757713.3172,215.742563646,95694.4869156,549.707917932,0.182645280854,7088014.22965,5
0.500822170272,0.182160161893,0.999146247167,0.0227740048245,32.2915654478,0.47298686299,0.21404612824,2.22044604925e-16,0.100608583838,32.6181564318,0.540732411831,0.19395543123,-0.758380229409,-0.174058436201,36.2820675013,127.076858166,31789.1163196,-73.3168156441,-0.362806886296,2352396.77563,72.959573896,10802.5715933,-39.6088888043,-1.15210639931,799607.248829,85.8445220408,13974.3968123,197.504697417,-0.0505459043851,1034105.61787,635.384694795,1199628.50194,943.650037406,0.585820595234,88776748.4615,368.230124587,222572.764648,-262.435206953,-0.0930838252279,16498783.0918,181.631785586,72064.4665436,495.403464609,-0.260935243448,5335594.61306,5
0.508814688596,0.18567725265,-1.0,-0.018392994717,33.157045746,0.462933686818,0.21088659935,1.0,0.147702453562,31.6786782312,0.562113934978,0.187775520497,-0.507740857054,-0.276862060146,37.593294209,124.664849582,31332.3657265,-469.302805196,-0.414152829479,2319588.00331,70.4779713395,10533.4168917,-151.79006683,-1.24969086302,779506.270029,81.557786824,13098.9158523,75.173879039,0.00142476989905,969364.130524,614.989331175,1157118.6576,-1045.75685384,0.628654953625,85645419.508,340.607755798,201484.314429,427.390871212,-0.0778597382793,14909847.1364,171.388121376,66967.480446,460.893341174,-0.245253991166,4956351.58326,5
0.492594553526,0.184297407985,0.240796041247,0.0625742441269,31.8367127532,0.483839787536,0.211884029447,2.22044604925e-16,0.0494699113132,33.2369886793,0.553872042541,0.18619164579,-5.55111512313e-16,-0.261734572628,36.7862497516,118.945116819,31651.6975705,-115.512304967,0.133668916131,2342444.68133,82.2335967916,16081.4600103,-177.600763165,0.0560310375616,1190083.3768,83.6242141378,14806.9806821,155.767329053,-0.318769123922,1095825.66679,652.752950317,1288951.61504,1496.02006191,0.360953083685,95397116.1688,337.526006199,203263.591063,-222.191013444,0.0560314877743,15053846.2009,177.447925308,76950.5389326,8.62173929055,-0.281398770005,5704485.38025,5
0.483549022204,0.176387634756,-0.301804445095,0.0885467281974,30.5891592375,0.471176008817,0.212656997085,0.0,0.109924217145,32.3871301306,0.562044371882,0.190483214937,-8.881784197e-16,-0.284463752451,37.7877986026,128.02353507,35439.5200951,105.424241942,-0.0835700333037,2623264.35101,93.6258593975,20040.8144621,47.8797488897,-0.329347187492,1483356.25133,91.5394777972,17036.7530421,-133.569659694,0.0334153263697,1261069.47071,751.43971762,1533390.79513,-172.04165556,0.540942790906,113523340.92,356.348138034,217809.645938,-27.4195012426,-0.152106214221,16166957.4023,189.451760131,83811.3018275,50.4627682044,-0.245118776701,6204049.59923,5
0.482204434993,0.173445781838,-0.755494752886,0.102683257899,30.2740716405,0.458739662774,0.217240351897,1.0,0.16745573857,31.8589419055,0.552966439578,0.193856627912,-1.0,-0.244564766568,37.278281713,137.561241898,38159.2060883,42.8651573844,-0.0471192966416,2824751.38726,102.868476226,22459.7919048,-6.86114623012,-0.350330490191,1662647.17354,106.998499287,21348.2167687,-175.760702521,0.0702115916529,1580430.76471,823.479006606,1655641.54298,287.815903557,0.448249852369,122518309.039,370.030610053,229955.687413,642.920270521,-0.0393513442247,17018156.2609,214.288987979,95649.1770833,-38.9953089082,-0.180393350728,7079888.98156,5
0.473602148477,0.180758826508,-0.0691292680425,0.13493921561,30.1985777897,0.473242018274,0.21763640939,0.0,0.107699857575,32.9019448844,0.549751926606,0.192112078279,0.983703381129,-0.22433695136,36.8833323531,141.318525358,38651.5515716,-99.4817458692,-0.096510444184,2860214.8541,107.395853042,22988.5454057,-33.6279613618,-0.38359756925,1701154.164,112.321453933,22220.0068246,148.041120802,0.0980257048434,1644298.9124,832.679782234,1661861.93135,462.567988971,0.437676301037,122980545.842,374.615737674,231176.378384,-69.496966317,-0.0574493129863,17107072.297,224.450997167,97939.0824231,134.240217176,-0.146904190155,7247508.43366,5
0.470611622315,0.176690409645,0.41267780428,0.140300452289,29.6857377431,0.479798459463,0.217753467714,0.301437841273,0.0838021585771,33.3792487386,0.557246930628,0.185566663527,-1.0,-0.238402941742,37.0212437281,131.284956536,36748.156468,-353.061707803,-0.0929680619701,2719416.86085,104.876250819,22665.6905447,-19.0645701509,-0.349853448397,1677692.61125,108.017478632,20996.8837109,162.199538911,0.136955147516,1554903.83035,775.678825604,1506366.21014,3102.4178356,0.714354630372,111508804.244,357.491641559,219068.101898,747.938702068,-0.0699573237131,16211064.4213,210.945324267,90591.1634123,920.054332127,-0.030866589911,6703749.58136,5
0.462161484089,0.175816663151,-0.358269317001,0.187204492983,29.0299258763,0.48381763068,0.220747259016,-1.0,0.0731789953314,33.891259649,0.555111478666,0.184422015952,1.0,-0.232862792025,36.7583857115,107.926573089,29676.3409681,-82.8546584442,-0.219863835416,2196058.39404,95.2111840541,21084.7948512,-123.650054557,-0.403909019239,1560422.02278,92.8799235666,17424.4189219,145.614903687,0.119427611912,1289498.09094,548.271313821,771295.028471,415.238472494,0.234580492352,57086268.297,296.228539039,161314.278707,-295.08219982,-0.306362190777,11965275.9201,184.60380341,76368.0504704,-307.489073327,0.374208916664,5654164.0294,5
0.4749450058,0.18295178353,-1.0,0.1408133072,30.4563888713,0.467699527139,0.211401115091,0.643372578275,0.131332994947,32.0493960932,0.563142472844,0.185579939528,0.107000481049,-0.270099280887,37.5176238792,98.6959004636,25216.1570802,-20.7940431047,0.317432224265,1866086.26338,84.8016286402,17474.2752777,-248.896442876,-0.0454359360518,1293240.6542,83.6315912349,15591.1630099,167.724969801,0.010475479449,1153786.39681,515.631181173,744113.737941,1569.38966531,0.25394467601,55202396.791,275.431101109,142584.390464,695.651878845,0.633318675178,10650809.0882,174.263029863,73673.1671881,360.888239102,0.652017794088,5470051.45606,5
0.468652980385,0.191231505744,0.111470864502,0.152101726019,30.6238026269,0.487134456925,0.20274090294,6.66133814775e-16,0.0559877038561,32.8003252518,0.527795003019,0.182323976948,-0.718835770793,-0.0952867885811,34.384541685,104.416728435,27795.178626,-12.9106977278,0.560268906259,2060168.00852,89.5768931145,18988.1382439,116.674754405,0.141252199543,1405986.89118,96.0588585172,20005.678014,129.764999208,-0.408415772026,1482987.75448,658.714727712,1180147.58977,478.047225515,0.0148153329248,87399774.2751,296.704075292,173134.940218,1392.8449855,0.310208733037,12823506.7071,207.080348633,106830.900268,261.351510555,-0.165809183464,7910010.73765,5
0.464955986223,0.191530564049,0.83891411809,0.170122246461,30.3870669239,0.492386186122,0.204092312731,0.397126307771,0.0424214782574,33.2861428634,0.527795003019,0.182323976948,-1.0,-0.0952867885811,34.384541685,106.467054864,28324.5588861,147.386150195,0.388334042177,2098504.9347,92.593340032,19600.4059816,-179.613694376,0.046734895022,1450835.48223,104.925063418,22339.4903829,-107.982459471,-0.255254970445,1657216.19509,745.481831508,1332754.30227,-2620.11698126,-0.0218560974232,98662671.5564,351.257073492,257995.666293,-1251.32887048,0.0902640392282,19132379.7343,221.117428527,115318.972577,-109.072457298,-0.112817610365,8544061.61155,5
0.486271576267,0.195467393197,-6.66133814775e-16,0.0839017478161,32.1990905379,0.492453817554,0.200667240931,0.0297471134515,0.0399054743642,33.0376830106,0.481911351503,0.182477790444,0.0,0.112529650999,30.9212477959,115.857962203,31549.3000948,-81.5755777241,0.237551630961,2334726.38155,97.8370557987,20642.203113,11.8463698711,0.0590315003208,1527582.42495,119.171720766,27839.7929717,13.1221796388,0.208397589969,2060188.24077,800.557320677,1389258.82071,775.928221559,-0.092163517452,102834100.185,391.387260214,294114.341963,-403.796414352,0.0831335259638,21776304.1189,235.284313498,124786.018671,54.9918081895,-0.0640905982195,9234182.85596,5
0.502557285674,0.188113772807,-0.197803712642,0.0152621203909,32.8627060915,0.471647223704,0.199129529865,1.0,0.111716653065,31.4194179821,0.487107739724,0.189311255064,-1.0,0.079526032432,31.8045791322,118.985873392,31881.5328795,430.908355632,0.226835659641,2359271.82948,95.5156859597,20012.1951687,274.277814965,0.100649959435,1481008.29438,119.251921937,27620.6957992,-193.270377003,0.189978032314,2043933.80158,825.131287026,1408215.92001,-888.899589709,-0.0129565739144,104221738.009,421.531757006,314022.553242,-546.402929329,0.0736458744575,23238771.8147,223.252039266,116406.989414,-337.313906026,-0.174833334764,8617849.94643,5
0.493546136584,0.191376055217,0.700177049591,0.0440552510345,32.4309122564,0.457100053532,0.191694018139,-1.0,0.162852002452,29.8558917627,0.517961517325,0.191990324486,0.788387706505,-0.0365497990887,34.3285940192,89.8854676232,18060.4419757,102.01620059,-0.302959842727,1338044.8587,69.2880335235,10116.1999055,19.5017735281,-0.200119333339,751057.833571,97.632533349,20543.0401383,-58.3599986571,0.535099518933,1521401.88234,675.190778805,994237.642736,571.807280694,-0.164240219391,73659495.3861,386.317629124,279042.11992,-692.411265088,-0.017728595415,20665024.4896,186.186918653,91886.5920072,-231.176373488,-0.15440748606,6800174.66564,5
0.484937238978,0.20067875821,-1.0,0.0906172447678,32.4875375386,0.482233884028,0.183457105767,0.421295077214,0.0916820762954,31.0170397447,0.486257445754,0.188949289367,0.322828898586,0.0841820029038,31.7157201795,90.9373484231,18903.8091683,11.6815072998,-0.244950954773,1399489.34089,77.6806859895,14564.5261384,232.657425004,0.705464044752,1078805.37226,100.639233626,22043.3142452,-617.638231785,0.317220977533,1631457.27401,670.347684244,1031448.85672,-4246.28890998,-0.503310922044,76439517.0552,399.79889288,318041.979905,-748.312568555,0.220705292708,23536207.2525,204.974693134,112198.79363,-927.588166,-0.308925823226,8306319.43276,5
0.506164794135,0.20438171093,-2.22044604925e-16,-0.000967341315091,34.3394565205,0.468641920822,0.176684488874,-1.11022302463e-16,0.145027854022,29.5465459231,0.495392386597,0.190075509459,-0.741278251451,0.0428083669098,32.4716089524,102.16453252,24844.2339498,124.032246297,-0.2330628404,1838895.80692,81.6846141386,15541.5427186,152.122886209,0.634657284088,1150151.57796,100.693627559,22101.3376115,-25.1114726731,0.244177327587,1635506.19695,724.876456905,1215475.0601,-1024.10686924,-0.14166267981,89945367.5209,446.941241353,380000.085195,1303.9120738,0.318445993292,28143265.9493,220.374044813,130210.730241,10.1892902806,-0.480846857734,9644695.49149,5
0.455559502283,0.200569034285,0.600920408666,0.216711681767,30.4071930461,0.498070643663,0.175673708088,0.553162786036,0.0389461491646,31.6054318544,0.503861031138,0.190538172431,-1.0,0.00220185270128,33.1405201623,110.927806053,27336.3335797,-82.4497921107,-0.159015815413,2022896.9455,86.7546648177,16459.1768493,-57.2824536112,0.619700220237,1218146.23897,105.699482675,23280.1611674,181.679352409,0.21663619726,1722736.23476,758.315762374,1273557.56043,-33.9007560443,-0.134543516081,94252268.5071,481.916636746,416623.021493,266.494613948,0.262817095133,30833877.8555,232.159252324,134386.792582,381.761166611,-0.354894454563,9946620.10967,5
0.502703288158,0.203041324321,-1.0,0.0115193964067,33.9783526941,0.464776988291,0.175517681431,0.0669902983104,0.161830603407,29.1896320892,0.510044311157,0.194296193375,0.531243871034,-0.0492938535807,33.8888082606,113.380097021,27576.5166687,8.10649588398,-0.138457542774,2040817.18198,87.5874505495,16534.047875,23.9772386184,0.568527955908,1223547.12556,109.34623321,23996.4332648,57.3167014552,0.20083151478,1775864.7218,772.986295258,1303051.95283,1351.63104735,-0.17816188655,96458794.5575,504.272594448,428251.648696,-348.021224636,0.206128948895,31692459.4954,240.681857813,137206.950555,-391.041378281,-0.387972614523,10153362.9454,5
0.498374377673,0.201642962393,0.280918769531,0.0401901466125,33.5498557412,0.4826357802,0.170588625923,0.219329560741,0.0786730294389,30.093855543,0.501195405663,0.201482388881,-1.0,-0.0195857269976,33.7494593765,145.018637665,42132.9610419,-131.513419115,-0.327053294287,3118006.00204,98.955930035,18623.294303,89.5885702849,0.370750283758,1378479.97605,133.98407811,35433.7613137,-113.1645381,0.401681656632,2622099.00591,873.75122015,1501130.56574,378.086165192,-0.321555189074,111084974.723,574.055836961,503833.567005,249.478890409,-0.031185943636,37319460.2395,279.519422008,165615.32044,-253.714171043,-0.246316933856,12258394.7531,5
0.508405020093,0.195759330281,2.22044604925e-16,-0.004931123389,33.871865275,0.466523535954,0.181598433088,4.4408920985e-16,0.147388076512,29.7615997684,0.509723000377,0.201802905428,-0.27597445557,-0.0710842949092,34.4197302852,137.504855313,38737.8797039,-356.901038788,-0.393695375802,2866645.84609,91.7425883307,16522.151649,89.7734402144,0.406684087803,1224021.32085,137.407872452,35373.6281038,488.087340841,0.470692673819,2618442.79262,825.585008278,1313244.48613,1933.63066874,-0.162135916784,97184356.2143,579.490591245,501920.304639,1367.1345686,0.0234409639312,37177314.3397,255.696432762,139920.869379,1026.29019264,-0.190821398791,10355158.9554,5
0.514493779488,0.183171083968,-0.373054886878,-0.0403040178462,33.4074488985,0.45968781056,0.190963074218,0.0,0.175918853031,29.9797337304,0.529490364248,0.202848752475,2.22044604925e-16,-0.165027707182,36.0378111205,126.768950546,35266.1916362,-128.805538527,-0.574624027733,2610849.1908,86.1848521961,15706.9918922,-76.6894054948,0.345186147387,1162599.00576,126.455850452,32327.4658958,166.99347822,0.705199884966,2394768.02794,710.117835198,1006354.46242,1275.02936072,-0.558765538196,74471712.6826,541.339031494,447194.685224,-464.581610961,-0.11086140558,33108683.8531,227.101269245,115919.288108,-59.8586193221,-0.158958929055,8580030.066,5
0.521128228239,0.180129335001,-0.543198217162,-0.0620456696441,33.6976680601,0.438269979044,0.196938115926,1.0,0.266569561325,28.9794636684,0.544835220949,0.199323145375,-0.104595100357,-0.237306691976,37.0133191067,119.194961797,32387.8225587,280.964283494,-0.429262451036,2396706.8639,81.803932497,14779.7421015,163.114143435,0.443088803662,1093701.47269,112.042368325,26097.5183719,-134.932546879,0.4840369225,1932430.4164,676.551045497,907145.587465,-957.947111628,-0.451924489352,67152079.2456,534.981827069,427194.446352,-644.567136727,0.04229127513,31702137.0674,216.732597039,106251.131528,350.509180687,-0.199089630283,7865210.98609,5
0.527030988684,0.180293601333,0.460652233116,-0.0956023153936,34.1738512261,0.443728268185,0.200343224611,2.22044604925e-16,0.223722815352,29.5925068202,0.547591470152,0.197433295732,-0.688686209433,-0.248353405985,37.0992952479,138.734994934,42138.7842499,296.961447535,-0.169641509314,3119556.94252,93.7149075231,18456.3384858,156.112926708,0.423097862478,1366558.24593,125.237258619,30293.0756396,-183.583079958,0.245862801175,2242831.18128,876.534920099,1753477.55265,-1505.65320667,0.30685480149,129758227.694,544.101846676,443332.00413,1743.02256972,0.080188160106,32812419.8797,240.443852938,118740.693356,471.522271551,-0.260166360433,8786951.08424,5
0.497733901747,0.18809781379,0.106042357876,0.0277686683848,32.4996659915,0.456760597955,0.202348185499,0.243623237846,0.173251054038,30.6210340152,0.568495497683,0.191769178495,-1.0,-0.34279391204,38.4299540251,142.38886832,42860.960785,-124.092543769,-0.226634692003,3171739.41676,97.2518991149,18993.645128,-36.53753017,0.351403529882,1405579.83028,130.468194194,31240.8790352,79.8648651028,0.291371967223,2311843.46897,897.980376654,1780891.04739,-46.5930992145,0.271364852105,131787912.476,553.664671623,451132.612637,-429.121539601,0.198831853464,33410073.3934,243.29538648,119459.907302,-33.0482309418,-0.22844877855,8840294.78779,5
0.53362742126,0.186850014941,0.226357325534,-0.108187237368,35.1837679597,0.464817557119,0.204337347314,8.881784197e-16,0.1369233356,31.3251158067,0.529569554037,0.192416818234,-0.62219463219,-0.175158888738,35.2721379915,146.048116496,43631.5632103,48.0878996517,-0.199205297481,3228746.76569,100.20105071,19237.5438399,164.409781525,0.382392412361,1423642.91688,133.648169644,31565.1024765,-79.825046561,0.264724439146,2335851.08409,942.817217418,1850356.06578,367.347794442,0.267974161756,136928382.26,548.299452864,449504.407801,155.80142145,0.0561320171583,33279252.3836,248.760824627,120894.118869,203.47243797,-0.290564081359,8949840.69578,5
0.54185747839,0.17320253537,-0.636911872947,-0.152877008746,34.8377021339,0.447978243109,0.214183357601,4.4408920985e-16,0.186963956161,30.9009064349,0.543828340732,0.192495368218,0.0877277674183,-0.204557375213,36.4258520619,138.06023309,39925.8046193,319.082037092,-0.313030415363,2957228.34235,80.6421286197,11794.2867831,233.596514531,-0.128876695175,872777.584622,119.864007487,27246.3992612,-291.23066834,0.405564982439,2016241.60236,835.858690154,1588365.71389,-3037.39923772,0.394618011934,117590206.418,483.03598991,373609.110632,410.719508026,-0.0258551637571,27668877.0851,212.29979076,83215.1044891,-396.743346356,0.309420971587,6168728.36529,5
0.526421665149,0.167299087306,0.192655455309,-0.0949198414907,33.164115176,0.469001635192,0.220970941181,0.653578644337,0.0904679520991,32.8490396833,0.533038351633,0.197429626131,-1.0,-0.140713397623,35.919533657,125.047318596,34519.5419694,-332.804119063,-0.15672420556,2554460.60837,70.6283691043,9632.52938146,71.3156386934,0.0671936034534,713677.830797,109.44275674,24408.284995,84.2700061789,0.419831957937,1807289.25708,749.651136551,1393706.64748,-1068.42443927,0.392935440185,103144678.604,435.095466432,313509.276826,1352.31058288,-0.18037427671,23217492.8987,188.390412154,68517.2327717,382.866520307,0.226176033234,5070384.81346,5
0.550185688283,0.172184553294,3.33066907388e-16,-0.194443275164,35.4444788131,0.437716017117,0.221072750738,-0.882822762812,0.214711020502,30.7290319277,0.541956820687,0.191431186786,0.659110927884,-0.17190247444,36.1946974839,115.628441566,32063.6433209,-68.5803536368,-0.270189309291,2373127.20167,64.7409491381,9017.36128692,-28.2580429099,-0.00376417012415,667402.394747,102.872104417,23400.9127497,16.3914924709,0.521552999613,1731993.3548,740.648460589,1377176.85012,-205.293386351,0.389276670862,101918901.872,394.090265211,276777.229967,-490.375532852,-0.124034275047,20481905.4699,178.357211033,65775.1706945,-123.238714091,0.240827438332,4867494.66329,5
0.535498891265,0.172886726448,6.66133814775e-16,-0.148208537517,34.3005474481,0.476433490045,0.224995622251,-0.762404783419,0.0526872679057,33.6738413293,0.520958408564,0.195931873303,0.42430617993,-0.0661236646832,34.8537833835,113.77842832,30690.080099,370.085814652,-0.34667468676,2280536.52978,65.7791412147,9584.21958432,194.877570807,-0.0412597937334,711612.278329,97.5976093389,21871.7366343,-422.813164126,0.542154843293,1624733.41074,711.573162055,1286612.27225,3986.82173506,0.582437835493,95277085.9652,377.753136899,264146.551008,979.987104503,0.5291164602,19690718.1961,176.092608858,65120.1812643,66.0322121003,1.07615474665,4859774.38957,5
0.531807984249,0.169830934846,-0.194971242379,-0.139752952108,33.778969087,0.475525245224,0.224867599304,0.0,0.0590812338159,33.5995217619,0.513121603602,0.198187749231,0.29501543931,-0.0246312032055,34.4129269493,114.163334758,29612.2708008,-25.7543644061,0.414261240426,2196853.78266,71.6412555978,11665.6877555,-17.9489747656,0.80504327439,865576.723294,93.9541448893,16978.5704705,165.288105205,-0.184025946734,1262446.09153,888.843681727,2209304.57474,-73.7278246138,0.811974446644,163623658.557,387.339262924,291592.609756,2068.4411461,0.365317501632,21606171.5546,189.411183699,81957.2379702,286.604138853,-0.913616411898,6066615.70902,5
0.521552983739,0.165628099574,-0.721234250933,-0.0942364083145,32.657792982,0.452688765198,0.220439304138,1.0,0.156879758097,31.6820423664,0.539157031684,0.20254887716,-1.0,-0.132233721182,36.7903897709,120.417208854,30948.6227827,-101.80123416,0.249967453962,2290672.84037,73.326307758,12087.6852732,-41.364136707,0.618046140739,895019.66971,93.7897694014,16882.2819323,20.4296736007,-0.217904389108,1249789.93467,976.631233167,2441588.30309,713.296237236,0.61811186299,180678006.096,383.458783093,288145.993181,-861.027162902,0.548307797828,21333986.1061,185.672880193,81264.7293386,-318.850794161,-0.88950542104,6013686.8477,5
0.517877896208,0.168762846169,0.98717364681,-0.0664210472095,32.6032642701,0.505240708768,0.221934531396,-1.0,-0.0598855283857,35.568268358,0.493123377315,0.207552569765,0.996596765741,0.0535377731829,33.5966900567,125.118655356,31399.3304223,-73.4444169275,0.296378710093,2323607.58805,77.3174556237,12418.5182798,-84.6640456464,0.698493354354,919230.938463,95.5908619008,17290.6435714,-183.137604384,-0.269723282482,1279507.65683,1032.15539902,2525128.84341,-967.905437921,0.609413994485,186877353.942,369.770316783,280845.945754,500.387356212,0.486373894895,20783514.7016,186.908021273,81467.1339642,379.892967352,-0.862126770667,6028739.26107,5
0.538325760798,0.174631896344,1.0,-0.157158392522,34.6573571848,0.47947167816,0.220686742469,-0.783571150843,0.0478925324762,33.5728007045,0.511807212878,0.196677450113,-0.323959004426,-0.0387135797043,34.2001280449,117.213561284,27565.6337619,365.371805044,0.071304693429,2042897.8345,72.42429789,10840.6755007,193.410532754,0.464068480535,803335.990623,92.2259142141,15841.0844476,-201.98078273,-0.102191198682,1173333.97047,981.249146558,2310102.33167,-2744.21245038,0.782586653661,171694339.222,337.497643196,240826.018721,-311.166716786,0.316814770515,17825595.1618,170.299549726,69684.9049425,-319.876171601,-0.975762218258,5161358.39989,5
0.48683220042,0.170922391434,-0.119279093547,0.0636565264603,30.4236763185,0.493516800992,0.231118318459,1.0,0.0135780438692,35.3696680306,0.519662283827,0.188158956234,-0.764433561276,-0.0627101841439,34.1774294537,101.935629193,21575.6046938,-113.148061434,0.470099593295,1596725.49275,62.5840216318,8412.31561465,-52.6431771839,1.04550911528,622716.681128,77.7644340557,12407.9738701,116.586162582,-0.320145217137,918590.980438,823.490248399,1703732.85853,420.03525039,0.632926653331,126076237.692,324.943960741,219169.986507,727.972854869,0.285142306449,16233419.4535,171.156776286,69233.0683481,426.859519833,-0.906277717376,5124543.50805,5
0.533422636329,0.167457691481,-1.0,-0.119798026471,33.7323473407,0.45759584584,0.23084272912,1.0,0.157205769125,32.7869088146,0.50765417663,0.184061469988,0.089674291836,-0.00442312003639,32.9490060079,98.79283258,20979.3158722,-4.13419825462,0.452085433683,1552489.94576,60.2449480992,8208.89398058,-56.0363105089,0.993723542572,607577.435083,73.7923269273,11837.5993048,-19.6191512066,-0.23468278781,876255.08539,799.342742276,1673088.91733,148.709376879,0.685513740574,123843951.636,319.593366082,212805.223803,-411.113910669,0.253622658183,15748527.2757,168.346384918,68449.7697458,-71.5310167907,-0.988552689816,5065827.11268,5
0.499109411865,0.164880892582,0.28587991607,0.014140116339,30.884451427,0.490178395262,0.232131187394,0.117234148318,0.021415872624,35.1983223058,0.497132625436,0.188584828151,-1.0,0.0384686088467,32.4908408286,89.8585242971,19034.4375913,-133.4299913,0.523681500379,1408912.43784,57.9118919031,8004.47557234,-52.9588187535,1.06338665493,592332.062572,69.7810275781,11423.945306,-63.5977416718,-0.299649608761,845429.754301,764.310055891,1627258.3253,79.133259897,0.682740017483,120418224.427,317.5245916,210722.17072,192.207444959,0.278578249751,15593519.8025,158.652977727,66036.987167,238.072631577,-1.01442116075,4886846.54235,5
0.493591103608,0.171373636742,-0.845582073893,0.060236978885,30.954062436,0.494082868187,0.23499188628,1.0,0.0111052944784,35.6982406324,0.491478284122,0.189433689125,-1.0,0.0452979704239,32.1344107775,110.276498422,30270.882081,362.631604397,0.845512694963,2246929.06515,76.7155150195,15598.6781266,164.174015496,1.18886551613,1159826.38612,85.5798960541,16712.1122091,-156.289879001,-0.545957215371,1241025.07861,881.869624816,2015276.53005,-3792.91616312,0.233515691865,149357930.681,381.875089871,296511.59278,-1336.2193649,0.126859415578,21941971.7545,193.770127237,99436.7531166,-1316.16567159,-1.03223994111,7361762.2635,5
0.529258044458,0.172618637208,1.0,-0.0966054638531,33.7823349752,0.46741620152,0.233951320596,-1.0,0.119910152018,33.6982406324,0.516311774769,0.191655968668,0.603517362611,-0.0616775580547,34.1758803388,127.517980226,38110.4687612,197.31117376,0.284277808778,2820200.27761,94.1359009425,21780.9730481,96.983197658,0.265835609752,1611895.54316,100.115154297,21350.8108868,-221.743006902,-0.142726038537,1579983.99734,957.751415051,2229866.24942,-707.101620776,0.270941020491,165019307.628,419.255932565,331109.956368,646.451000533,0.169582294089,24515043.6287,211.559009006,109984.971904,-289.832560125,-0.920195568562,8141146.36953,5
0.472974750972,0.173378372972,-0.157352310115,0.160683179547,29.6078832291,0.520749534853,0.234591010522,-2.22044604925e-16,-0.0976152135392,37.6982406324,0.47735307085,0.19600516208,0.127676970795,0.098098569424,31.5943285626,133.420641911,38900.6831397,-64.9592445785,0.285876730594,2878741.26419,96.2301811494,21885.8295549,-47.7650437401,0.297659845467,1619570.03426,107.838986669,22639.1154995,54.4526546392,-0.172383645517,1675605.72396,969.324329836,2236507.92834,790.131367981,0.294812562559,165501812.941,452.044534577,354780.631313,110.174536688,0.189305198077,26260041.0513,213.301531978,110554.676888,-44.1854526775,-0.849173183649,8181370.53251,5
0.507608487995,0.175718905907,0.368000354462,0.0163302731886,32.3281773184,0.486166810902,0.239121423768,-1.0,0.0544863721583,35.4218479605,0.495002497882,0.199130725872,1.0,0.010688879108,33.1127341827,120.972342923,32891.5184125,-275.077414373,0.0204866316559,2434447.93752,85.8054312655,18301.0137245,28.5976156632,0.156990719755,1355767.12472,100.998418041,19704.1816836,74.3868237485,0.0539971568652,1458901.87973,908.667602898,2006330.11748,2665.18897363,0.552062465206,148496113.968,416.235877819,289344.921797,711.141357282,0.142635535451,21412053.0873,181.667672545,82061.6178355,1136.4879823,-1.14706326305,6072771.0409,5
0.501234627458,0.187462178196,0.707198449485,0.0506508641159,32.7149125688,0.484309151611,0.229838437086,0.737024349095,0.0522311156258,34.5996959194,0.507429548826,0.198762435288,-1.0,-0.0416037882859,34.019776238,105.955836619,26946.3537229,-188.861436419,0.204765364595,1994242.26033,75.4929088188,16779.8848342,14.8151291278,0.0932651911417,1241842.60381,85.2301256763,15508.0349992,166.92473422,-0.116529773871,1147649.95392,656.672377681,991030.786757,1526.71559513,-0.461274123726,73363120.3389,359.263058588,230784.949297,-228.841970241,0.0108510288756,17099300.2567,168.384766569,65494.995789,52.7212204651,-0.727625438002,4847472.02069,5
0.526901643857,0.196308585607,-0.630885519268,-0.0766919079758,35.3487360073,0.470951125711,0.217227211651,-0.304418084882,0.0967404062522,32.7094358727,0.52076288216,0.198381456491,1.0,-0.0947107811364,35.019776238,99.7771133051,26051.3077392,112.621333211,0.212336310062,1927982.04956,73.7370269919,16488.3373442,119.247981225,0.127194415797,1220169.16983,80.342426748,14642.1212126,-67.6115226003,-0.0770005784297,1083710.41474,596.314172456,924852.117433,-986.556494067,-0.417946118014,68459834.4116,329.925187416,214531.097313,-261.365142349,-0.0321096644159,15876052.9381,165.449403395,64971.142372,33.1508387907,-0.795279245459,4808058.46644,5
0.494982028537,0.194273396566,1.0,0.0493837818958,32.7517719889,0.510497551509,0.214158026611,0.0931061821864,-0.0625852511659,35.3932752264,0.500004686495,0.203391428233,-1.0,0.00193619667757,33.801317178,95.3201656608,25479.563436,-158.372115058,0.195869525902,1886407.10543,68.9089311134,16042.8855787,79.0549566207,0.101847747539,1187226.45847,74.1073116186,13608.226152,207.730544275,-0.0968063157647,1007457.05983,539.419595891,847552.764161,612.664937095,-0.5275961596,62769265.1863,326.673991534,213042.454179,-507.803381338,-0.0272298203905,15765353.4275,149.390738333,59109.797167,187.075287026,-0.954311884297,4377997.78559,5
0.488394886491,0.196977900782,-0.155907795012,0.0712934227887,32.4660820442,0.515181428784,0.208390175655,1.0,-0.088517900812,35.3267658408,0.506253839376,0.209192631473,-0.450258241792,-0.0143875111474,34.7022259702,87.7906322491,23634.3297229,126.502047828,0.153560964452,1748960.0945,63.6252720531,15188.9538086,143.167529125,0.0989474978091,1124073.61962,70.5825254302,12930.9289002,-112.338137558,-0.118318825094,956964.510984,474.617359831,747101.845299,965.485497396,-0.683580423878,55343526.9564,286.966616736,185473.546716,402.042692756,0.0615156717882,13734794.5941,136.89996003,56389.4525188,180.445325383,-1.12847288201,4173841.34169,5
0.501120615688,0.198588378188,-1.0,0.00857056616329,33.529680346,0.480913033495,0.205946654884,1.0,0.0581339367442,32.5858533953,0.526064237124,0.215471255993,0.332982835513,-0.105996144327,36.7006415621,101.94226052,30708.2082256,188.12560595,0.557884550604,2277226.45435,71.4996981828,18208.8478601,34.3939141434,0.314803712579,1349740.31679,80.7695367606,16777.2891597,48.4291175192,-0.496796302849,1244038.58998,532.612597483,977704.237313,-1794.47182276,-1.15710559511,72520050.9049,311.336910165,229821.111027,-560.596868083,0.247228778002,17026938.3394,163.484933233,81693.1640224,-653.974432675,-0.831603283466,6058883.45923,5
0.5070940428,0.204395501883,0.09084937507,-0.0170501542027,34.4110947576,0.480488319942,0.202484745223,-1.0,0.0735083740011,32.2990480665,0.51448710849,0.218010260117,0.915513658159,-0.0604332270528,35.9850331088,122.453381309,38250.36545,154.317998977,0.10484511558,2830686.36634,84.097153973,21727.8345209,63.3904795997,0.0514981560577,1607945.09445,95.0268210532,20328.8773715,-135.548203287,-0.277375328467,1504380.6752,658.050255959,1377955.51715,570.844305466,-0.0335496773502,101978662.282,340.033855744,258846.241962,280.287926852,0.185532932988,19190685.7673,167.470058704,83168.7965434,-29.5354896647,-0.971258767981,6155600.881,5
0.502801335603,0.208051060205,0.724171808792,-0.00327056397169,34.3564671865,0.500132870012,0.195914737272,-0.682105762973,-0.0113301947001,33.2576571331,0.514450312771,0.217272941354,0.0,-0.0661773174006,35.9276319835,127.534962505,38866.0266722,227.231920623,0.176653661287,2877046.79231,85.3794202397,21849.5022924,287.140149568,0.115327741895,1617213.71482,99.8905093568,20915.5801179,-254.748600111,-0.317220597647,1547936.97913,667.059961328,1385059.31763,-724.920619449,-0.090146207316,102504364.34,355.704825545,269438.664502,122.705348592,0.291770712467,19940618.9854,173.67572434,84738.5430409,-87.7837483329,-0.888007840229,6271138.98231,5
