cap1_mean,cap1_std,cap1_freq,cap1_skew,cap1_power,cap2_mean,cap2_std,cap2_freq,cap2_skew,cap2_power,cap3_mean,cap3_std,cap3_freq,cap3_skew,cap3_power,accX_mean,accX_std,accX_freq,accX_skew,accX_power,accY_mean,accY_std,accY_freq,accY_skew,accY_power,accZ_mean,accZ_std,accZ_freq,accZ_skew,accZ_power,gyroX_mean,gyroX_std,gyroX_freq,gyroX_skew,gyroX_power,gyroY_mean,gyroY_std,gyroY_freq,gyroY_skew,gyroY_power,gyroZ_mean,gyroZ_std,gyroZ_freq,gyroZ_skew,gyroZ_power
0.6285474691813626,5.674166206310628e-07,-0.0008754630478756686,-0.051336924092017976,59.260872697220876,0.628508261423074,1.0616119416813986e-07,-0.00035495084312830993,-0.15953571860213636,59.25341101957621,0.6284667401569441,3.662093830106864e-07,-0.00016663750209378048,-0.012722270481627431,59.245621087722476,0.5384480204573143,0.0021623900506131297,0.07801551022409092,-0.0001626419551418507,43.811136727701424,0.4840823815484149,0.002425041724535141,-0.07726041096665809,0.0007119261903387107,35.511694035793525,0.4293293894485274,0.0005328385263559922,0.017923993386988024,-0.00217567369750328,27.72795163706385,0.44995344318913777,0.0003113447808465669,-0.003462260596596267,0.009697072498628313,30.415105528010226,0.5377736254807699,8.0780320960125e-05,-0.013253754010065231,0.023912481851750732,43.39210710723276,0.4344005269082718,0.00040435894883805967,0.02587810471582436,-0.012659828847493858,28.365822150104485
0.6289451275607282,0.0010741386253558204,-0.058302280739227615,0.2448720427916352,59.4958426775351,0.6286335049135734,2.150289702567011e-05,-0.004903915571385809,-0.05762750010281972,59.280216456645384,0.628459610173266,6.743056446557118e-07,0.002960721715288717,-0.2859907780215218,59.244322714411076,0.4451508715364324,0.000653062582133569,-0.03079395743788893,-0.16094961944381675,29.821201089184704,0.4653584264059354,0.0005684894169419486,0.029570049046284574,0.14217875616425046,32.5684746771756,0.5268444332983139,0.001996004217697404,-0.1027795295437125,0.688142080673082,41.93216316305015,0.4483794476756347,0.0015120871413698616,-0.06498998227074533,-0.05675950235933245,30.3819203487502,0.521812526795773,0.0014106044235929905,0.06875877543847543,-0.12643355591491506,41.053427027263744,0.4796339229223998,0.0008545408884784577,-0.03369089798784286,-0.006674565675545611,34.63463159507286
0.6285846651322083,4.998907285198438e-05,-0.0016972416221181508,1.4831725834244025,59.275250557760536,0.6295365104502079,0.00020645997990922802,0.006647030942031784,0.3802592389861457,59.47819523548017,0.6285546612964685,5.470269883746042e-05,6.485614594353706e-05,-0.3099499016357445,59.27029503775454,0.4576784843896792,0.0011869226804998554,0.006364604482791025,-0.08371443661994624,31.597290740379556,0.3957524216470379,0.0031805572497425323,-0.0003883892668569144,0.2710733552947817,23.966899916135866,0.4700038880573624,0.002211547067389449,0.005390270597714575,0.546614143131865,33.465068731396684,0.5897907713575467,0.0020742924122057497,-0.009020144436111877,-0.9443736272974754,52.48704266619814,0.6140343783151235,0.002865244803241789,-0.004632518075841252,-0.26772047866513743,56.98265413860905,0.5785161586261606,0.0037221802360891884,0.0021475175026500763,0.654050232720287,50.75674672391264
0.6284464783367857,1.8377708891111945e-07,-0.0003816106910499162,-0.006636877427626283,59.24177380287246,0.6286814245507876,0.0003763781543220872,-0.01952447475341568,0.09068066583109127,59.34213038127511,0.6284543014395918,1.5212031812823812e-07,-7.701128722681361e-05,-1.080681967001878,59.243244015616206,0.5689717494213989,0.00030497840031017164,-0.0032629629550632307,-0.493422668059174,48.60476952759328,0.4153009452135707,0.0004472650358064626,-0.036105823381052234,0.2678516009691345,25.937873754627944,0.6167209208198116,0.0005256148263819741,0.029686035731584463,0.116179596459415,57.130020735656345,0.494311261325859,0.0035645695459274795,0.1257271405155641,0.20989823374264074,37.18266432337745,0.5313453386890234,0.0013898113220821113,-0.06780412965434246,-0.22319684760138586,42.5562622289732,0.5621086948885883,0.0012367773572885036,-0.051021767790117016,-0.0907728947222336,47.579207556638785
0.6285197381912556,2.0100556250195062e-06,-0.0011705922304255931,0.00536353811499959,59.25585869268881,0.6284894282581881,7.360893185565753e-05,0.035164991487620534,0.8170627062807655,59.2608119456921,0.6284539237226111,8.987038943578041e-07,-0.0016636970374391824,0.29017169761889483,59.24328404323208,0.3959005701296876,0.002550914205633753,0.03223878631652472,-0.6653035089314904,23.890675430991173,0.6054483159123748,0.0019888271250959053,-0.055815787412037084,-0.24709705411383606,55.28148472780892,0.4136729398293276,0.0005104324382945577,0.09105556127331887,-0.4400407728026956,25.744849605361658,0.4993693200712965,0.0008527944676329001,-0.009479375364003615,-0.2438604512691073,37.53252404994766,0.42371117274796666,0.0005906939107903077,-0.007102888695159849,0.005949681887109189,27.017687079426338,0.4844120322932284,0.001860645981731372,-0.013197597234872129,0.4625454999221218,35.475488805846354
0.6284403892652016,4.5276786358576593e-07,0.0007029631718559193,-0.07789980587626212,59.240665891381376,0.6285515670302732,0.00027607270502607814,0.008124024061603508,-0.8151048544085843,59.30269569548068,0.6284490393137084,4.6579702584393933e-07,7.110439205137986e-05,0.015358560848070527,59.242298655905294,0.568914682863138,0.0025265328578793025,0.05958214518609345,0.6977934321860808,48.92604085241377,0.4154469137968034,0.0006529258786263668,0.01210308742170052,-1.0903634104662323,25.98670668340861,0.6173192272050647,0.0007971543450387418,0.06819623455399683,0.47918171121037,57.281230238969535,0.4928837070069772,0.003283860174064521,0.02223361382618555,-0.8797647327648251,36.92944746087658,0.5312169071075145,0.002327819481943545,-0.013338652307452016,-0.3656395766712241,42.67555546234063,0.5612532872736143,0.0016281273373483615,-0.01604802204959599,-0.3084268359516575,47.49337884458065
0.6284895395900649,1.1345562737072466e-07,0.00033447953483023435,0.06035962044861494,59.249882111008226,0.6285069683281355,4.093977890664544e-08,9.94425779111685e-05,-0.09151679725868248,59.253157485580616,0.6284603093726224,5.975580260085024e-09,8.465017806036368e-05,0.15348626307564373,59.2443549588713,0.37060050366022973,6.185631792491996e-05,-0.0017364054196288279,-0.026832202965787613,20.610926588353216,0.5514882904138705,8.847751153527105e-05,0.0005181155810244363,0.8409176253959111,45.63408331876079,0.4419931020411254,0.00016734428260588042,-0.006481498905478944,-0.3049460788272176,29.328619635898786,0.592241004795399,0.0005124565045961656,-0.0055848129499996855,-0.19120275444524826,52.6887671833444,0.4596980254403104,0.0009789595012714698,0.0037675320239325405,0.09893441698924467,31.844206154747496,0.5393769828179091,0.0013404224204215393,0.009860253896004423,0.7463973058907489,43.838852379705436
0.6283155196742581,0.0008605597912993943,9.348052020563546e-05,0.21119563014617126,59.34528224843354,0.6289878124388505,0.00021364994051403197,-0.008591654174443852,-1.7366573121495996,59.375684070628175,0.6285016613552876,1.3482127758171856e-05,-0.0016847758494950016,-0.1158047576565224,59.254159585989456,0.4444833036207532,0.004914152757452101,0.13068735364637965,-0.9321115159785336,30.367019840503172,0.4643912872087663,0.003770135628575906,0.04247336199540497,-0.13948689090222846,32.91064035397004,0.5283138457058918,0.002683387802541711,0.010312670986208805,0.254745989266546,42.26715271726104,0.4483667365598267,0.0034869946278747173,-0.0537872347725592,0.010453861701079474,30.67447176754969,0.5227462502458561,0.0029457163151978805,-0.11900465945632728,0.17970872390584308,41.42845805287997,0.4797680830042525,0.004124547488641451,-0.1144417447989291,-0.001483898058142907,35.14116959624387
0.6284986653921433,7.698068168241051e-05,5.275533324000658e-05,-1.9184558774302043,59.26305598152648,0.628510724636173,1.676628866278665e-06,-0.00020463711169060872,-2.0725471073254726,59.25410946510418,0.6284592977496996,5.5492180359779745e-06,-7.217029740502756e-05,-1.9387359936881623,59.24499017269421,0.37057088305983416,9.32216771623184e-05,0.0013508197771494035,-1.6931767204058543,20.612306935658985,0.5514649166233819,0.0060714897947236795,0.01724156835123336,-1.8547392391325637,46.521685119378866,0.44213665522420986,0.0003693118697480731,0.03102770276905875,1.013620859142195,29.37775075252023,0.5919726637804403,0.00020702051515603684,0.003027803908528859,-0.3968327877520912,52.59559125625478,0.4591710545829905,0.00025110980034808865,-0.001461697597411049,-0.31079447344741284,31.66312396528023,0.5400639174161138,0.0011312104434671633,0.03031848165959938,0.0376712995736726,43.91890559030246
0.6280147513334713,0.00039292836874106943,-0.07433537218904984,0.10155188897784112,59.21892551080869,0.6293472543098327,0.0006797304471824549,0.005858021341533792,0.1861183903287554,59.51297481272897,0.6284232389352172,4.4800130130107256e-05,-0.012985217823352936,0.9019543833947444,59.24404030446378,0.45712684849783397,0.00338641408922368,-0.056246895469058984,-2.5185565659163043,31.84931904192859,0.3956303471263095,0.0030505230666528554,0.11433786676047995,0.704421730622783,23.933033672023896,0.4713554681168646,0.0016464686110160293,-0.01395045065672845,-0.5901293538522145,33.57172042159169,0.5884385695202851,0.002686617148003055,0.0036506951126447093,-0.882927524092974,52.33929846991437,0.6146444922347879,0.0014091035350877175,-0.09575818663845016,-0.3694166344844296,56.87813420191212,0.5766411327263836,0.00541605848382929,0.027942141176850455,-0.3355806482249254,50.68424210688557
0.6283459708716655,1.6715229246264192e-05,-0.005131136653540924,0.15853382645057962,59.22528943575609,0.6287573058235637,0.0004320995970393996,-0.02909726647668454,0.8735041605707509,59.36474528393482,0.6284551203599639,2.26153247257566e-07,-0.00010028719270394058,0.12790394627270688,59.24340944283236,0.44652546275665533,0.0060322315909818935,0.1922353459083907,-0.3956020804995594,30.80655084056309,0.4663305477655723,0.0044160218677143275,-0.02213473041474351,0.12801035453164056,33.277614225190234,0.5262937001221922,0.0077255122206250325,-0.1951215115320014,0.2910531318076825,42.698860139119354,0.4472882929530747,0.02262094841950765,0.039815492778576884,0.18389174613456086,33.38054386643798,0.5209647566675549,0.015756352936884842,0.3185159291419646,0.1339137424167414,43.058338241048574,0.4794258200380976,0.0033560602200316198,0.08415515021286257,-0.3293147200977428,34.97742051066507
0.628534761491926,4.2856855939035216e-05,-0.0008481413683506522,0.4957835566231295,59.26477763209178,0.6286307217977961,0.0013360535328251135,-0.00018579236939764154,-0.11973225118590924,59.47555963459371,0.6285118376027122,2.2504098740866327e-05,-0.00030494099410260933,0.11123457894222276,59.257422611723115,0.5005673178361656,0.0062973146389248115,-0.05580483039571788,0.14027213637520272,38.523445834053724,0.4593617381399034,0.0035093019829092725,-0.015161442609403497,0.41913516757748603,32.174866965490466,0.4487641335604785,0.0011598646716006794,-0.028269058177663342,-0.016235704167995087,30.38120697161155,0.5166308111191165,0.0037739951929907454,-0.053854236087335694,-0.16300011458484984,40.598434533395036,0.5733300533471479,0.0015924692202360874,0.044226230872119736,0.8397985038712729,49.543380424471714,0.5082911289245373,0.009161206151221998,0.04270391703296178,0.4987382343057487,40.119000478039176
0.6285761920932876,4.016076083955968e-05,-5.532556856591154e-05,1.367758363373388,59.27218834333973,0.6286178238369954,0.0002952244830577643,-0.04035087683635818,-0.14133679100976562,59.31804371480958,0.6285129101996445,7.345859090276344e-06,0.0002778846562390136,-1.8384783292771951,59.255366276148436,0.5000117844419695,0.004461608609614402,0.032069049714831516,0.8415300871266076,38.16654736995892,0.4588402441136582,0.003448733693050964,-0.0856130313067745,0.37947549525159946,32.094016763006806,0.4490461321723715,0.002684096629756241,0.07040314877891596,1.1735132241292032,30.646294720678725,0.5170803115726496,0.005489290475547679,0.014138176577333073,1.0320957370765036,40.92371157326687,0.5746619827627725,0.002445737105550733,0.0075985726482332705,-0.8728948766284241,49.89987399365323,0.5102101430271474,0.003804049471689189,-0.05753030554724881,0.4235952120950355,39.613961878449004
0.6283788570512265,0.00013653096834095437,0.005204046403933349,-0.4968798724848805,59.24934131263366,0.6286811748409727,0.00020040640774988304,0.016573134284834867,1.1924014621416361,59.315863494668605,0.6284580600479298,6.011583551957005e-06,0.001203323237555565,-0.4208436499233215,59.24482571183036,0.4447693640180616,0.0038023245854391023,-0.04317860205418478,-0.20909216284285664,30.239514438585086,0.4655155311819078,0.0031425447299354907,0.10264877653822962,0.0035945288733194455,32.973945630496445,0.5278347461442733,0.004533431703115087,-0.03618427900960286,-0.12933848139675458,42.46690920934257,0.4487990697408181,0.006965945547351525,0.06389103573415489,0.08527991968595251,31.251016636588925,0.5218159641806376,0.007331622894125716,-0.056562791161980534,-0.2907650956353545,41.93619688228998,0.479260883753765,0.002173628188705725,0.05853321223970742,-0.01859944005796389,34.77751980458312
0.6285322860655355,9.36709540617732e-06,-0.0025742210681559685,-0.029355017613288625,59.25932089123074,0.6284316825024558,0.00033640078912236656,-0.0300467655043839,1.0610241949282941,59.28908065350935,0.6284718502812238,1.110406086215054e-05,0.003217759529575037,0.0703296478030019,59.248184494454186,0.5386229358180208,0.0007572129744486318,-0.04007773698838346,0.05801397124357008,43.6300247815764,0.4847629220081674,0.011616596391737951,0.17008037728976586,0.02200896546682877,36.980136445453454,0.4298634111454512,0.016918659540832378,0.1652513690993031,0.01049255235416755,30.2382631078245,0.4527488703898146,0.016413093577616705,0.02549090879133792,-0.16395964154279866,33.19278188895286,0.5380226949344896,0.0032389927028504267,0.0019131648098366094,0.16744120363407458,43.902872952410355,0.4347965664518743,0.0022489673679059585,0.004225407320642471,0.02139311058513612,28.69230426756885
0.6284229383417267,7.076211108487052e-06,0.007508820558519647,-0.12957245289040364,59.2383627705626,0.6286923978735679,0.0005332745488692714,-0.06132728086261041,0.1734418959775203,59.36757757938401,0.6284097006240167,1.0292652752128776e-05,0.012639257012662108,-0.003212225788896655,59.236346381015,0.5383737770831313,0.0013372922326344845,-0.01337827060845498,-0.0708789785160001,43.67620512027611,0.4841416096298912,0.0015619310647850993,0.016801868810862652,-0.26701190578909983,35.391692454906284,0.42962188263516415,0.002651303432344303,0.019839848891613776,0.15376842494963214,28.081288517266714,0.4510011569156694,0.002431066202084948,-0.009436026328960456,-0.4840039358841791,30.872535395001503,0.5379446344898408,0.0006383716665027978,-0.07457597347705391,-0.01921253903791446,43.502781844770205,0.4347008988801089,0.000776445639751951,-0.0010204664961371843,0.0071963772466267706,28.460421123399247
0.6284563252387978,0.0009440729862891492,-0.000802829168230601,0.15813577069858462,59.38426978485512,0.6285575831731804,0.000221290515602554,0.005979547579872846,0.4158520928295988,59.295667591501214,0.6284579035062012,0.0011450726813399795,-0.00040812389012379047,0.09954661868467306,59.4145163014311,0.5686149718484255,0.0014513600695018336,0.017726244313133962,0.4115081766839852,48.71470058188365,0.4153142530244768,0.00042847274983600313,0.0064494639672893475,-0.5384275290259402,25.936731754517442,0.6171079638869721,0.0020653866268931413,-0.02370994719448738,-0.7448123973937834,57.431078471315715,0.4917274098572669,0.006005869809973395,0.20099503392090665,0.0199380028749931,37.16425144242651,0.5314428004999131,0.009018313483719858,0.015185461383397825,-0.010831781204912605,43.70844623955284,0.5615780510230833,0.0023470688935646905,0.012882286712017854,-0.10491276634025652,47.65519937377386
0.6287410949324085,0.001605285611789692,0.0020712989025941653,0.1386765799022237,59.53649222467725,0.6285677272068934,0.00017586685349847646,0.0099111617640939,-0.2726811049002336,59.290812314077215,0.6284722002122383,5.380627225947414e-07,-0.0003713205947710741,-0.11552833668395708,59.24667613728742,0.4445603677231772,0.001346360806841357,0.06731775371176829,-0.050578317723505614,29.84569584274435,0.464966372102098,0.00208206598685503,0.05206067062731756,-0.044395037881617284,32.739286909909396,0.5276342234389051,0.0024016392002934725,0.108596363043449,-0.2475025313798411,42.117525302440185,0.44807432204316094,0.004693297234370898,0.05570346116499042,-0.18906448841559734,30.814890999087023,0.5215246117548865,0.004077196378468857,-0.04999680276004858,-0.006281225280715357,41.40569036030463,0.4783699072454745,0.0045518103725110505,-0.01654865497834424,-0.036883256644690283,35.00388496921074
0.6285508688771042,6.42876282012175e-07,0.0008466553174988345,0.10358677652838574,59.26152500349042,0.6285077366196886,2.734777703115356e-05,-0.004143858050270288,-2.1421926147377355,59.25737106739822,0.6284695251678826,6.106979091155184e-07,0.0005916972329179647,0.2753768474381815,59.24618260370001,0.5389488648518159,0.0014729622685016436,-0.010066784652839831,-0.0042937307989062545,43.78935321676588,0.483737531074877,0.0014275701697899108,0.0058861015535616725,-0.014651829541274147,35.31300780086136,0.4296656813266331,0.00041535342958386916,-0.013987367305285991,-0.005850436040159967,27.753777317489966,0.4502025259073385,0.00026116226471799346,-0.021857240180853558,0.008974534647765745,30.44126032744515,0.5376955555844679,4.859254619122954e-05,0.002722141561618319,0.04221316212411156,43.37471686367592,0.4347050250383256,0.00032287615274290566,-0.018163635246903898,0.010671823272134305,28.393377365794386
0.6285034627853214,8.539719347087724e-06,-0.002767360268154162,0.09478282372313833,59.253762828153704,0.6285053409388227,9.421251240700824e-08,0.0008351490019937735,-0.6038351476113143,59.252858575958214,0.6284650065759654,1.8420074751125338e-06,0.0025474112199557197,0.031167877328163094,59.24551413269303,0.5390794172917737,0.0011104794734897398,0.022768948342649864,-0.3698174134637671,43.75645416369571,0.4827360772240663,0.007672081223676556,0.0017182382103226868,0.0754016776805229,36.098258140379755,0.4291180149792807,0.004887785483508615,0.032796941433715754,0.19172557344758834,28.34962065400651,0.4520592078672862,0.014990008459889771,0.2196184141247784,0.1978395370057296,32.887140373163305,0.5368889779891648,0.010619469728879574,0.009308213908811924,0.10432518728835724,44.81976719254053,0.4344637013219433,0.009244202181447302,-0.08937199839028448,-0.3856662056955377,29.691192289990067
0.6287567029948112,6.216756214036438e-05,0.003619085496638808,0.7025376154301818,59.309511700894696,0.6293676833811757,8.811356057972862e-05,0.007546958550375238,0.11675714240158952,59.42868105321455,0.6286363434285704,4.2302335302318574e-05,0.005208105971792221,-1.024044475483075,59.28385088984656,0.4577752442044514,0.001351568721969634,-0.0024216441079543127,0.10114232043307746,31.635109870540237,0.3960387376087864,0.003207477537902773,0.006134102502280525,2.6540988716750715,24.00491640616169,0.469827378441797,0.0020452929567834907,-0.0037283340970881147,-3.396065359927312,33.41541348058449,0.5894530400315502,0.0005493470065904653,-0.004791274783909172,-0.2686958555260875,52.20008566434744,0.6139253927398797,0.00019145119975320858,0.0005392882203136828,0.7535435613210039,56.56418440638557,0.5782446158116418,0.002391146724337097,0.00808874451115238,0.6816463132709314,50.5113062191992
0.6284988299291341,2.8676380841631426e-05,-0.005462102842685557,-0.5504391391080475,59.255889664089004,0.6284920721034754,0.0006707134168214018,-0.0027703005310686373,0.5612768806115291,59.3502790036444,0.6284571097662607,7.122830376918996e-06,-0.00034517143312085,0.32402311851715804,59.24481212409043,0.5387044964933131,0.0006517603908494952,0.01585683042860031,-0.3213575921827553,43.62749247955368,0.4841971263732893,0.0033863923209563264,0.0039998481936122645,-0.5451927927681518,35.67160103404514,0.4293485377020664,0.002522447286912713,-0.006982236605398706,0.2854402454125529,28.0268696697854,0.4500191457350545,0.0022655350897066045,0.0006070982991783769,0.6789967618310869,30.715149457582513,0.5378194039353074,0.0005397745686394191,0.0043041652293500645,-0.1820460382171268,43.46788309812669,0.4345275696028246,0.0007690989377761023,0.017862743824297478,0.22742977857846486,28.436727053469287
0.6284894803053434,4.1793488242683944e-05,0.003067325474807592,0.3870896176543783,59.25608125792024,0.6284719857460819,0.0005454031520064085,0.06050179049657434,0.05910306810767845,59.32782059979248,0.6284931855618295,3.890870302126698e-05,0.002583324249602059,0.31741531172781395,59.25635004139863,0.568968738329519,0.000947976710441695,0.02797294564516062,-0.17410197161207855,48.70006230929854,0.4151116091100534,0.0005697268153132829,0.034550043629518516,-0.2647978658840826,25.932536498172347,0.6171211310512192,0.0005322833760793214,-0.025744683779404972,-1.026590933925761,57.20508378152626,0.4908120514961026,0.002790638805395979,0.04530397609505405,0.06098090708786106,36.550275666075954,0.5308787649627806,0.0009786836133694383,0.055630251613165815,0.28416034885660296,42.420663321653144,0.5608228216018133,0.00323456704093477,0.09084690835528414,-0.2632449815054088,47.66028607351218
0.6271739332907158,0.0022035523273762217,0.0755968806756131,0.6042359531037744,59.33040068668114,0.6284674704842155,0.00041809262509079733,-0.013465515577085864,0.6123460386132258,59.308000019662764,0.6276794898258266,0.00158627392240543,0.00919921975324134,0.2422037529973057,59.33358610663989,0.5687901653825136,0.0006856814164853421,-0.03164054531888294,0.21037686632742664,48.6305043664364,0.4153054224104227,0.00046377660446283,0.08311552494628383,0.5150066880616614,25.940891796589888,0.6166068598857251,0.002143485624594593,-0.06604643160228374,0.01769384722433408,57.349982306784725,0.4924797654809213,0.002030272074464248,-0.041524559816438655,0.08785098924651237,36.68295845031666,0.5327154572199331,0.009181652663601736,-0.1587929073762731,-0.17314704031011044,43.93593000103301,0.5619576944621799,0.0019201967550699828,-0.04823797376399147,-0.3613375242804917,47.655576871292716
0.6280491785238749,0.0005287591223931393,0.0014898885188803224,0.4360200897138044,59.245650705913704,0.6284301171048592,9.760417095146592e-05,0.004829658816732363,-0.8003249806269268,59.25320483413582,0.6284673242225945,1.797145201307643e-06,0.0017411141642404981,-0.07277160627761887,59.24594441696119,0.4453166820358793,0.0020627063500476897,0.11583457049377276,0.10869144998992936,30.053385341073767,0.4657703259624938,0.0016307683543152255,0.05348204382024968,-0.07617044084078763,32.78428396687412,0.5277030667614943,0.0018841432967939167,0.030605297407377833,-0.4322109353680484,42.051316351645205,0.4497643179173169,0.00575734350624128,-0.06852628882662981,0.22261912593249972,31.201035433174344,0.5225165314300909,0.0010751411922737574,-0.013947213296268912,0.1559602116047066,41.11372488030876,0.478600820570494,0.0010585758004127328,0.053877645052110346,0.055598673212343394,34.516539611874016
0.6284927205000836,4.219510501831584e-05,-0.00534038274357984,1.2194089778064428,59.256752028887156,0.6286219780352336,0.00020346533184947144,0.009098924937258612,0.4138935169992815,59.30515502478502,0.6284508659269218,4.184882169307328e-06,-0.0006189855523175414,1.3314314729409058,59.24319718008792,0.5392720064453023,0.0019801738641135693,0.06379156737651859,0.07557297861262295,43.91719044608424,0.4840842876406861,0.003462952022995687,-0.2423695636248015,-0.0799188587000835,35.66661948251493,0.4297536916703918,0.0017002877042062653,0.09696543603199276,0.11450069990341792,27.95657819357627,0.4504322717749306,0.0007306347966562128,0.031483260362410226,0.07330499979704028,30.54224930315052,0.5376238395519003,0.00017349208488296556,0.0046557086566736405,0.28103171903844315,43.381759248826675,0.4346388664601474,0.00017725104774165542,0.024303564616050318,0.22145081974047492,28.36305204177778
0.6284455583332819,7.350722329973241e-06,-0.0006729553267964539,0.05425686586250679,59.24266822595174,0.6285220267769642,0.000506923307920907,0.03242261758029885,-1.6002881065307786,59.33152229445365,0.6284507278790076,7.624416498827237e-06,-0.0009690328174243312,0.7214508155707334,59.24368364380653,0.5687621326199845,0.0009071794609007127,-0.0723194322228391,-0.09157109038721027,48.65872426503914,0.41542745233636497,0.00011882466220682034,0.01716597734807257,0.9766599121017976,25.90470009787123,0.6169091498359481,0.00031534628939936096,0.07733282586614931,0.2047635347090196,57.13352146981735,0.49378614797635295,0.0006630945510042273,0.034297018971123805,-1.2716501887006062,36.67251507809834,0.5312752687181944,0.00038344524595114617,-0.023626599905249512,-0.5398979470094843,42.39514501438518,0.5616675233470352,0.0011270925332566473,0.04700769004894945,-0.5892695299438957,47.48849780487409
0.6285541558436575,7.675704828681637e-06,0.0028249938444867557,0.3715621767619363,59.26319270426938,0.6279141381492164,0.0007039640129269258,0.015277725397758403,0.2983158018097932,59.24631537107709,0.6285137947658807,7.499481579574935e-06,0.0009138754757253008,-0.2395397879181591,59.25555595440647,0.5016962672862905,0.005748182687808336,0.04050272598034155,-0.6408657287746887,38.611350911833,0.4586485902695955,0.0021164984715389265,0.09947353324874747,0.3024090042321521,31.8691376757024,0.4494510954120046,0.0012196153011753124,-0.05477286885789273,-0.22260408965813994,30.482665754932764,0.5173906809184646,0.0019362753523309952,0.06711035416430218,-0.5091409088656037,40.4424725326882,0.572434391796473,0.0018884565662742887,-0.015407797676375234,0.3252333484167124,49.43354996508458,0.5072704419344474,0.005533807980671429,0.0661884742714306,0.16271115492949534,39.42303257817548
0.6284967734250111,2.0961145779466715e-07,-2.233091808201415e-05,0.002928696277560981,59.25126036295468,0.6285084801955575,4.1775729371943224e-09,-6.298195544585106e-05,-0.06597024897421501,59.253437074117784,0.6284577681721383,4.609879267255795e-08,0.0003203480484657017,-0.12340621222173385,59.24388182510586,0.3705666325098009,3.2819890189017943e-06,-0.0006131661232173237,0.23563050794211085,20.598433385811887,0.5514636726914636,8.522501318179297e-06,0.001019701971464504,0.21791976402631325,45.61809719745006,0.4419729460988783,1.0084072872709747e-05,0.0005088112386839594,-0.2419952548666004,29.30251528935633,0.5921759167967374,8.05811055693528e-07,-0.001068174686137513,0.666559786475444,52.60096753095577,0.4596116333138646,6.885550252290011e-05,0.0004443768267223813,-0.3979077099354576,31.69668749149164,0.5395971402303564,2.1726013823784483e-06,-0.001924960901627193,0.0720381391217781,43.675084779322816
0.6284317317213353,1.4651023533864231e-06,-0.0034218539653720907,-0.07586822318905923,59.239184515392104,0.6285079950140682,7.215379817723619e-08,0.0004409437202693711,-0.34810290996100623,59.25335572040653,0.6284663811038171,2.576404636167288e-08,0.0003332915329778974,0.33996117890464944,59.24550266550218,0.3705232060198096,8.59037206896832e-06,-0.014303043733914613,-0.14642386447219125,20.594396895318006,0.5515096222292798,3.451078435187276e-05,-0.002386424206864413,0.0683374987883345,45.62957161859086,0.4419945473495608,6.063719014047583e-05,0.007093646202313121,0.2692976041733569,29.312911924342394,0.5920898596385971,2.521106784964377e-05,0.0009797433465951189,0.3743771355605972,52.58931673213763,0.459512353723084,0.0003821666287213457,0.013808797301530172,0.14036502084330665,31.729683311298785,0.5395887509358981,0.000685607315984329,-0.03762040080542933,0.23887604536663895,43.77555851056607
0.6285001158437655,0.00014383935329809576,-0.0026935174154403274,-0.4621338833447226,59.273291405985425,0.628645938811756,6.155133207260834e-05,0.018176079143250142,0.22436753625161715,59.28852860615593,0.6284698161539026,4.934962743551447e-06,-0.002730224700722484,-0.7624195762071849,59.246881781926824,0.44416017457293056,0.003686707957015361,0.019843924811107527,-0.0020498826856553674,30.141058587093724,0.4645906207728416,0.003044536181987479,-0.06020065194209062,-0.1366837607390241,32.830302627630275,0.5284318754334083,0.0039050301664060273,0.17181618018766814,-0.05460952367707517,42.467886540904864,0.4487164622240977,0.0076191373103089285,0.05664413819788978,0.21365208879955808,31.337220979872537,0.524058282199664,0.00643585298016956,-0.0803297112410798,-0.35755525260790605,42.15450456535466,0.4796675414580962,0.002460617782644917,-0.052006334882322425,-0.1923513726529208,34.878774598882266
0.628494323834539,2.244320469243304e-08,0.0002463774902768945,0.014681657216562768,59.25077060787264,0.6285005357111516,6.586923512946125e-08,0.00013222934906498285,0.19497136411550772,59.251948322896716,0.6284585322713347,5.834558778180087e-09,-0.00012063855620769727,-0.04236891825572012,59.24401988704529,0.3705575261259854,6.324861581701698e-06,0.0029737251483584197,-0.030260703509077724,20.59787442966722,0.5514356289365229,4.5424520948938756e-05,0.0003469309068242499,-0.2362716994722678,45.61895618271418,0.44192774870653656,5.091180147067808e-05,-0.013399169249992736,0.3887790214116985,29.30260611994328,0.5921105833776439,5.804346981875675e-05,-0.0025041437777088005,0.01350010578101193,52.59788991917506,0.4599709736637406,0.0004467617756801664,0.005043667976789679,0.003277315812030745,31.802561996551763,0.5393379434703769,0.0010169038291409367,-0.015977335638779344,0.09019087410085193,43.784331260570326
0.6284419192325219,4.201474527933582e-06,-0.002539009804746639,-0.018128631952031668,59.24151289700299,0.6284829138458179,8.334739524236279e-05,0.008044516455465667,-0.1620139836146801,59.26103471131058,0.6284659392220856,3.141293124828936e-07,0.002718509936214586,-0.2132128133078134,59.245462319612294,0.4454196248125454,0.004727807491481455,-0.2518739883107082,-0.8165010520343514,30.464239641453037,0.4667861004502044,0.005070106296918658,0.019772496387471642,-0.4747601624641378,33.438835374267136,0.5276952911233767,0.007619913546128504,0.2166665739199385,0.037003936165095404,42.90471515944094,0.4487290226660103,0.01009216519026282,0.277070886088757,0.0451886013636185,31.70739298076807,0.5238910118996033,0.00896833942422953,0.11231495342470044,0.08566800220063163,42.50555142658875,0.4794487149754376,0.0022616610382188997,0.09036170979049528,-0.055700187361043214,34.81764803843437
0.6285923017506,0.00037220826459001966,0.00215170635776063,0.3436231297984013,59.324701304441525,0.628560815861482,3.436209150967408e-06,-0.002651676851357476,0.08987033416960505,59.263816880631296,0.6284634672553582,2.9296885972009844e-07,-0.0001381160856825936,0.19906184593117865,59.24499310355411,0.44506691414527,0.0014959195851303444,-0.056411997500469664,-0.2873250286125508,29.935575728203396,0.4652318626227449,0.0008715176052463807,0.02036671153265679,-0.04639017613800394,32.595959023096015,0.5274562024172925,0.0009289102770877803,0.06917473149449771,-0.5645952181407097,41.86991445155688,0.4492280772879209,0.0024348456949489,0.05137433508660277,0.31067263934183376,30.63367182211772,0.5223372065958148,0.000600017406087807,0.0151713350878393,-0.01111337051732916,41.014826202654916,0.4791289881109222,0.0007472685942092037,0.006494718206479011,0.06756748865072341,34.5460311077666
0.6285816481212062,0.0013739559789700275,0.039606760866621286,0.6007872175461043,59.471952694082354,0.628611600309043,0.0001735444305096368,-0.003775183339234656,-0.8440473801979842,59.29873972661034,0.6284602818871866,1.337451928696433e-06,-0.00034029082477937683,0.24835089929604234,59.24454816679568,0.4462817262980051,0.0026052198530219788,-0.04776751443480659,0.1959453652046365,30.263284642229408,0.4652757515711899,0.0019972236529938337,0.00944531048244518,0.08170754457772303,32.76981507431644,0.5280382593723993,0.0023131479114242353,0.052978494914975305,0.20012566571021675,42.16831954295722,0.4480813057996276,0.007850713059093609,-0.017787915656179543,0.25716993217376216,31.28628473686985,0.5218880903187794,0.0020319490555492027,-0.08044154943099585,-0.02234841362271952,41.15783723176419,0.4793939195302805,0.0014468602103897164,0.0158689943536946,0.08669238258491363,34.688361683738826
0.6283212299993316,0.00011602549589389253,0.011699536805048429,0.3416286596271127,59.23542300906914,0.6293881628025836,0.0007340647480111882,0.02136410769589869,0.4756936159002403,59.52879456885539,0.6283617202258325,8.566345899173695e-05,-0.007430418537143656,0.7299403196892141,59.23853157216489,0.4578745646552,0.0017018454033210664,-0.1402647410883272,-0.37085294887262,31.700942508823186,0.39503739460787296,0.005637531348545235,0.027626809795354174,0.8919228341794062,24.248173641719696,0.4700875115093807,0.0038630194784667117,0.18502265027550951,-0.1823309515241077,33.72293017385387,0.5898058066480216,0.003870765571311565,0.06315764176959954,-0.8529560496093415,52.75737750348394,0.6145750001841674,0.0022417808922465176,0.08811835071341101,0.24773289020674585,56.989389980650145,0.5788409714515749,0.004411950628477684,0.015424043416624844,-0.5717542002896278,50.91591117829361
0.6284633753100661,1.035009636127703e-06,-0.0005452154972478418,-0.2236838910560782,59.24508633235393,0.6288727557979356,0.001152110807991954,0.07883859798589621,-0.14001916566136655,59.493805958124284,0.6284651252526453,8.263029388911006e-07,-0.00047536020802296797,0.011078761328119531,59.245385167961366,0.5696977627757381,0.0006311370630350236,0.10380517680977852,-0.4225347867713337,48.77737055914442,0.41601311535488106,0.0005888868612954359,0.09466631592664182,0.10568067153404924,26.047780964424057,0.6174132562036639,0.0003891745702326044,0.08400484805708819,0.9328326016077996,57.23785635136633,0.4935250419298166,0.002704526220588149,0.019056025267792542,-0.19788718876323075,36.93801945864171,0.53089891515858,0.0006377281615034151,-0.05806961770832564,0.183048785229148,42.37307021354758,0.5613806449991351,0.0009830065577898339,0.042920168811028565,0.02379434933035375,47.41870226405743
0.6292388069039848,0.000696987398444615,-0.02626526282301922,0.3420194188440577,59.49507253946079,0.6284848940273821,1.2112123303011022e-05,-0.007875857295245203,-0.2801298515323004,59.2507940094636,0.628447929014888,3.9794377426085206e-07,0.00012130747025074219,-0.3879710626472263,59.24207921608765,0.44409310976908417,0.0010631452938361637,-0.04785529869006228,0.15944640530601278,29.74121217043797,0.46428329204899793,0.0010726372067199443,0.004174038403428393,0.18910146515748796,32.49366923517953,0.5275474064881597,0.0011471339356222627,-0.0592922348854158,-0.3719418015653786,41.91686287026524,0.4469163741962757,0.005280678006887974,0.15112353774034748,0.3579933624542722,30.74695785173814,0.5218112456470237,0.0010087324487250103,-0.016247953218444744,-0.3659921161673268,40.993347547414814,0.4793109531903671,0.0007955929172242428,-0.0847783101252938,0.2917869766659197,34.57939182190515
0.6284497196064666,0.000510199300035062,-0.0002472102760028294,-0.2835901235251416,59.31837720672218,0.6285652368232756,9.656919345974664e-05,0.005436287474663515,-0.06700254195923475,59.27852735123059,0.6284588217654903,0.0004008314355144706,-0.0006195624721059279,0.0166825012948014,59.30379748212189,0.5692246467035776,0.001985365142363798,0.08985313215136237,-0.4288695666693653,48.898324168434144,0.4153339295409135,0.0005903137518401527,-0.0027684159633668552,0.06025431525643742,25.963297703208667,0.6163113381854409,0.002338750696914753,-0.0032614940076385324,0.29328956028233155,57.324423690229644,0.4933677591125428,0.004485292381114843,-0.03037979510676375,-0.6818985911938877,37.180070424545924,0.5288588250157934,0.005565383997924954,-0.08058030793419663,0.05715756561844758,42.782990735253655,0.560446120866162,0.0019253979114063648,-0.037182945277657975,-0.3426455896751292,47.40186244788885
0.6285680845806191,7.932274650616833e-06,-0.0024203431509012274,0.2445806192066408,59.2658574519252,0.6285045049616527,2.0127089921434168e-08,-0.00035014188068838164,0.060918177186356476,59.2526899125002,0.6284257564644693,2.461596492670949e-06,-0.000383758448222582,-0.08094824250170775,59.2382064860685,0.5389006465869869,0.0008649090595968564,0.01857267538963536,-0.5421312425570043,43.69095748366081,0.4838842011977215,0.005951632329083184,0.02771433042117638,0.06851938446435639,36.008381242346935,0.4291147868001547,0.0049441002782255215,0.019995955888436227,-0.05844924316752743,28.35759597903694,0.4473774759281055,0.016150371641527116,0.06921607322839934,0.3130191325748623,32.428396269757926,0.5366955975766289,0.008982340749129422,0.09855670529976064,-0.0036705412558143227,44.54469344034053,0.43474578013878745,0.009814720673666032,-0.049440536693607866,-0.07619068294923295,29.812977382648683
0.6284972837108483,2.332342172431995e-08,0.0001119556863158344,-0.3303430583269744,59.25132881997703,0.6285052531066799,7.614569994278213e-08,3.622956483373408e-05,0.012841868638205951,59.25283932311306,0.6284587398465029,9.639750212877234e-09,5.491199142548808e-05,0.3661972995982112,59.24405958974097,0.3705546670354096,5.3365625494451584e-06,0.000583541888266592,-0.1555827776407354,20.597409337078354,0.5514785593323583,9.139401273005374e-06,-0.0012627686040304065,0.22256948779146166,45.620651981283686,0.4419374208344751,1.046074281749769e-05,0.0043578315393009714,0.16567058534559553,29.29786124075399,0.5921818602167945,2.2480160089793392e-07,-0.0008348293349890179,-0.20414606205538804,52.601936830912024,0.4596028802640366,2.886308498434565e-06,-0.00172185772414174,-0.035547681996133645,31.685651192016007,0.5396226350975682,4.28847777993984e-06,0.0026265918884502693,-0.03298099801526274,43.679527229635724
0.6287117412210226,2.6925106083406444e-05,-0.0017356250733514544,0.3780448089809135,59.2957798731819,0.62955910195341,0.00016686327664676719,0.0026115166685198865,1.0631830542683487,59.476562056077995,0.6286621636696117,3.1083650212640274e-05,0.0009401105721693613,0.1292584792137466,59.287048868345316,0.4577514053516941,0.001146481325727855,-0.0495960515978966,1.2979678368126173,31.601278082751087,0.39683257159755214,0.0041230214588294685,-0.07993028076060392,1.355290346331195,24.235743679474545,0.4697612834913101,0.0016693762857160279,0.009653754052457051,-2.2152287024097213,33.350086586682124,0.5897614296724263,0.0014231298332825063,-0.017150026398155882,-0.7475949463920941,52.38482793454874,0.6140006889797993,0.0016289288495417314,-0.009188723866489612,-1.1861601658950385,56.792237308731956,0.579465354038609,0.00302726151421374,0.09977404753494977,0.9915122002360448,50.81807644528144
0.6284525539432259,4.98259283565693e-05,-0.0010068594386042349,-0.525882909599599,59.250315946989616,0.628338271305689,0.0030458360874549427,0.07750199284159233,-0.04600869873681016,59.67517705514404,0.6284515945049526,5.0016452737668986e-05,-0.0018322834569364235,-0.3291537795534607,59.2501634468305,0.568974285096951,0.0010611671339440804,0.060995476609822186,-0.26409611455894033,48.71787446819563,0.4152011949809184,0.0004324912261424232,-0.00374665748491787,0.6928470584419735,25.923246039732607,0.6170954558494134,0.0008658320462923638,0.014188422321839922,0.008275396166089691,57.250029219396865,0.4920995098978582,0.00309629084319788,-0.0819671836181129,-0.380715508245654,36.785636481893306,0.5313409717240345,0.0018820739193388426,-0.030878793545763724,-0.4358884324842844,42.62891324887768,0.5605656205169278,0.0017877054683926024,-0.009262487671808041,-0.5061996858422515,47.40144035061977
0.6286377870705566,8.047525578540546e-06,-0.010727330969639626,-0.32062103684994275,59.27901918125619,0.6299714000909139,0.0003081095138467194,0.035590978310305665,2.340186035306425,59.575503057439114,0.6284757365991813,2.4487179509832594e-05,0.029528409406296308,-0.8247406657390578,59.250911313829505,0.4577986856961653,0.0006558305050604629,0.06839654966223467,0.8534896749348558,31.534664239024448,0.39622027367281343,0.004665717718324018,-0.1538044820532598,1.3975318088612547,24.24376773043415,0.4698749895292629,0.0006776082217413938,-0.0460868171125034,0.1253208184520133,33.218339492808234,0.5881964434067062,0.0019130933189030288,0.17515300324838234,-0.8896466190436255,52.18130930996132,0.6139251777955491,0.002456745229997605,-0.1558329254289128,-2.149905663778777,56.90167362896412,0.5786600055183637,0.0013443932062055474,0.06069707522078083,0.9309977046676662,50.42742488570156
0.6284983113161071,8.255461129729602e-08,0.00042515258363429176,0.0485575616785134,59.251531399716775,0.6285102474083362,1.7591770437276525e-05,0.0060422685611172255,-0.007051806798989577,59.25639083838835,0.6284589396886053,9.173942297285911e-09,-0.0002834431424680872,0.14455137325517484,59.24409719809631,0.3705834354507141,4.54038370209894e-06,-0.004587359992440254,0.15236653108584286,20.600488911739646,0.5515070327074332,1.2536133329130165e-05,-0.00498111653414024,0.11754605679687655,45.625868952729704,0.4420738325977317,1.6665501938419838e-05,-0.001883251088583393,0.26072066690821105,29.316874179935926,0.5920722336637524,1.0947669882101907e-05,0.0071967172590441395,-1.0654179040156249,52.58406068415018,0.459329528897091,2.988933374208113e-05,0.023553655472113574,-0.998081138482512,31.651995928251115,0.5397814437859731,4.603575428654837e-05,-0.02939521207795104,0.09179392337185943,43.71146038573914
0.6285908451544336,3.93021406285043e-06,0.006132382663033176,-0.1104470458543824,59.269553193690136,0.6294504312680147,0.001092718678891034,0.023277947631763385,0.28192270065545805,59.59399189667821,0.6284749994122192,6.6828414081604815e-06,0.00602914268562571,-0.23555099225810736,59.24811947629816,0.5388557454335787,0.0022224294380729886,0.0505290399670873,-0.1780636961959041,43.885969144289554,0.4844041564869158,0.003247324961842119,-0.08897344737794388,-0.029373978734164006,35.68095944258454,0.4299418512185541,0.006058170220890297,-0.2268828556431653,0.027220718340857673,28.63016667729823,0.4509102304655478,0.005796472687828029,-0.2304378735316474,-0.0421196526789818,31.36167982126039,0.5375916285414101,0.0014214170717794135,-0.02913367974825953,-0.024697562306322456,43.562505005365956,0.4347693736467616,0.0018009860037740593,-0.018910334205892443,-0.043137137662523375,28.62200815374195
0.6285408676961771,8.871081924508163e-06,-0.005449622243507646,-1.2273016003338575,59.260865145846225,0.6283098980614655,0.00015663915437535492,-0.049057005541850114,-0.9911511715301242,59.23933843430329,0.628519626261849,4.75038569183251e-07,-0.0004006357188481857,-0.4971685608170743,59.25560887019695,0.5019049968791773,0.0033595694036266475,-0.02185909793839791,-1.5244162447612637,38.28686972498344,0.4593815888672218,0.0024222025299215624,0.0691558481447685,-0.14942723139523573,32.015624805484265,0.44875194246265454,0.0021152762463740515,0.033435570990353984,0.4013018510604919,30.521922040310574,0.5172273992833717,0.0020230833707996694,-0.02421869133390031,-0.011130790496037714,40.430066807665206,0.5727511025469837,0.0022408232919552845,0.09625324502352084,-0.6202988552823371,49.540456490819146,0.5075293595384386,0.003489897523929091,0.1732329812919441,-0.14244137627092252,39.157902350090104
0.6285825159790062,1.3630123539552264e-05,-0.00014879919690435894,1.7861759649022293,59.269427797582026,0.6295778694802683,1.2672369039325727e-06,0.00015265176761547483,1.4563333822540838,59.455432879195754,0.6285923193883618,2.712696476426574e-05,0.0038690783242596454,1.3327282079342146,59.27328751685591,0.4574454397606919,0.00013416819376744607,-0.007521276506740059,0.7201695875596809,31.40844061454927,0.3959990484019769,0.0006826558365639463,-0.011804604238445373,-0.7748484097622506,23.62400266993871,0.4694903012378286,0.0003449255035968834,0.006239047854729896,0.2897625717036397,33.11456534349401,0.5893526364301073,0.00044818066184109783,0.04290297084029382,0.806195515020775,52.167258428682054,0.6138114976061047,0.000220421105523096,0.028815698578902205,0.10890035506230053,56.54752593374028,0.5785398040812351,0.00046268383280425663,0.016168591296351953,0.4104569685528906,50.275185627040926
0.6285693332846348,2.0378052277316848e-05,0.0019553332061275075,-0.4720846753284692,59.267947341672865,0.6295547151994191,0.00041153245597933626,0.02438169454819805,0.4202685447140137,59.51218925041418,0.6285597671499151,3.133251232894212e-05,0.004103617552479677,-0.5050250935523753,59.267775676270354,0.45734808896344104,0.0016552218972210636,-0.0045744852795793775,-0.7652626232376275,31.62171923446267,0.3954362537582867,0.0018026212230662828,-0.004812238684682557,0.8730077974987407,23.724065180195094,0.47019280085541704,0.0008228494675200513,-0.003449661126594672,-0.6857939614392444,33.284795067099765,0.5892782394660777,0.0022994429411155,0.0057190085358337925,0.5664388888684457,52.4299435244622,0.6142607934126507,0.00046919951298872285,-0.017229045572778712,0.605471887814078,56.6673590760262,0.5793244237977004,0.002313295879874755,-0.006054802194332297,0.2785843236723076,50.68719928738197
0.6284997746750033,7.299709898196172e-08,-0.0005553567623164389,0.21641103136636688,59.25180589154722,0.628507804241323,1.0051963362970892e-07,0.00037602169258066365,0.1967334691557253,59.253323976262806,0.6284590052303531,7.772759631000182e-09,-8.240503876777439e-05,-0.11780001629251555,59.24410934640994,0.3705703925043499,1.7049886887717582e-05,0.006141900124587596,0.10979363466340797,20.600902803270472,0.5514596697480739,4.6690914995664836e-05,0.0067030660323326155,0.08726155147644521,45.62312205013258,0.442030699100319,8.431617544406105e-05,-0.0033822220049614105,0.27130058573037663,29.32123395220866,0.5922367538632187,0.00010180438535000871,0.011892878887677759,0.2228739450052632,52.626824747383566,0.459616466038003,0.0004384771466463698,0.008628758407938308,0.0798410179263397,31.752427472839702,0.5394697649332426,0.0004464240652034257,-0.00630508924993034,-0.3810847433600362,43.72066127728453
0.6285331395774415,9.123950164030687e-06,0.0016440701260299615,-0.17333035743536554,59.25944560063576,0.628497320272194,0.0003146841920722404,-0.0005686449556611128,0.9469566788368338,59.298220183018074,0.6285072754698503,9.446756132774143e-07,0.0006013369566721938,-1.2660455897419185,59.253350054446535,0.5011218939632178,0.008734881256647458,0.009534490358889314,-0.12382712852289975,38.96997019863286,0.4584794322820162,0.004498454454590915,-0.016463253659910027,0.26321301272745323,32.200778187580035,0.4496887331119776,0.0040647744327471065,0.0006509079365763504,0.2939407237400004,30.938644893657628,0.5170909610005904,0.0036593403279876475,-0.02032316030995257,-0.009001081380886688,40.65270100114725,0.5729086130896016,0.006187326085446439,-0.0048065719421629405,-0.3465915357115488,50.15555342956914,0.5079054434535916,0.008784734953430795,-0.016339172026619497,-0.30275271208321586,40.0041164315296
0.6285206097440014,1.113733878917209e-06,0.00036230756443778045,-0.3332449457179564,59.25588947729364,0.6285023294687744,0.00045097552597089276,0.004984915814962854,0.9890349485124594,59.31947207552102,0.6284447600233555,5.449090558115347e-07,-0.0004563816529431497,-0.2177535424384426,59.24150365157126,0.3968327698061449,0.003409886579188896,-0.21478243142990644,-0.4822628872397993,24.129510179101658,0.6059314810460753,0.002957449342802097,-0.1690374656292135,0.19197010954655536,55.51360391048106,0.4139798806127541,0.001098617752219875,-0.022645777138240675,0.5884283155104294,25.87059527790328,0.4985235255381673,0.0012533344584708126,-0.00036890338971667935,-0.3830423361120852,37.46560266156271,0.4231961495613078,0.0008341347588273329,0.033270009584251636,-0.07446770023036788,26.98853322959279,0.4837518015941654,0.0023316346396483945,-0.053040280802222506,0.04174130924470766,35.449784393147716
0.6285705775347414,9.64628837748952e-06,0.013404138100304495,0.3809157300162235,59.26658293832202,0.6283239851667192,0.00016695489162531818,0.026278413269183343,-0.5330280341867292,59.2435308292203,0.6285083137207228,8.417754071896883e-07,0.0007278863006081604,-0.802020984370734,59.25353048694565,0.5016247921692629,0.01012494964920674,0.19925247180145228,0.1519121322614909,39.25273231556024,0.4588912466829875,0.005560918406884148,0.30729261069049313,0.31700317173278314,32.41575328496572,0.44892478351158577,0.0036136338122070726,-0.15028639020778214,1.0167526660152542,30.768450625657486,0.518592925061569,0.005681472963022003,-0.11045761466374704,-0.2001408277638,41.18733276007738,0.5727132746671615,0.006246509036721261,0.1546219404491529,-0.2862923275516569,50.13080409346902,0.5073503910281331,0.008752017463517048,0.15022559382782374,-0.15748755407308415,39.91471349352396
0.6285634591736289,9.850523256975046e-07,-0.0019795612502939712,0.4958221682381291,59.263950104044255,0.6286420801018363,0.0004897486422058081,0.047306278563918114,0.9636322889128486,59.35160227890321,0.6284686213104105,2.517417073260643e-07,-0.000651645289482472,0.37880124625233497,59.24595870528558,0.5385566072636458,8.160710741738035e-05,-0.03761186804804306,0.138440354732912,43.5186423431045,0.4838623593342703,0.0031994463855618623,-0.20432181677090394,-0.441095279009654,35.59513492852769,0.4291783184400277,0.0020019051287479247,0.11389523063763594,0.6177721082569474,27.927388217034913,0.4500592854673365,2.425323331212047e-05,-0.013512718477993235,-0.09108348558983777,30.38661779706893,0.5381714972327584,0.00035565140799819145,0.04467879330093028,0.3812479552428467,43.497276124854075,0.4342456495672097,0.00010786128041032421,-0.0075788187017473705,0.07054048583604121,28.301463955988318
0.6284423758719359,5.047226885826236e-05,0.0006238500173745276,1.1014153773282835,59.2484933367944,0.6285322774876403,0.0008160266200056898,-0.00040676948825668635,0.2705900291193174,59.37951154295086,0.628444628467357,4.815051857698846e-05,0.00019977086664568766,1.2050589692310587,59.24857208468913,0.5689731374993835,0.00017426268510593596,0.002486701812877357,0.6944288525228753,48.58552981946465,0.41522293544725736,0.0005855796594170053,0.0027204253852121663,-0.3734930477661164,25.94876428746872,0.6170141023472039,0.0005821453285560525,0.0059636223371812855,0.2882950831084125,57.192700028253746,0.4925455939712266,0.003581002557731597,0.0025319671298377755,0.019675623598001298,36.923743702172295,0.530928530606922,0.0005513515587543152,-0.017741393267917682,-0.2516155816907215,42.3649170741182,0.5612701410636884,0.0007504375896940804,-0.01350896980146976,0.028563994163007124,47.36544088831232
0.6284881426931646,1.8338412650868347e-07,-0.00040144956203769233,-0.3551829191084027,59.249629150120384,0.6285082987615728,3.256423741758037e-09,1.9084085353782143e-05,0.4464211881842392,59.25340272703214,0.6284576307675959,3.0254888524919234e-08,-0.00024873213542331296,-0.22258793791102596,59.243853558481376,0.370581971844548,1.5411518340104598e-05,-0.003890253303640123,0.11618435015447448,20.60194599466168,0.5515236978921995,0.00010669435569108045,-0.006631742110845607,0.3295388901067332,45.64265585950089,0.44201880000135785,0.00014398566949396738,0.0022112013564498656,-0.1438084964214755,29.32854679795065,0.5921310461529646,0.0003815674998967048,0.01227307122078658,0.08777839406040758,52.64972993021525,0.4596016390505325,0.00016753430677970006,0.012372544294314504,-0.8456471372021275,31.710012604400557,0.539791521193054,0.00029427087797284635,-0.026658182481361647,0.4264151544967037,43.750079313604644
0.6286625068282167,1.0869877353821493e-05,0.016556552955346526,-0.10656543499153297,59.284101735456346,0.6296844173540552,0.0006862972165357865,0.024244522106195654,0.0023050792037487998,59.577628104041246,0.62873620603589,5.6157706158842566e-05,0.026853213353341343,-0.1429043075058603,59.30475001527842,0.4574351434111405,0.0012037092404415758,-0.19034557807517427,-0.4501964240013428,31.56638924096138,0.3968263252647448,0.00702039052424269,-0.060876079023869274,1.8376477544227108,24.66670805158032,0.4701457511257079,0.0006596432629144613,0.03549416055318905,-0.4984511790400233,33.253840941407674,0.5892802584945271,0.0025433723837723393,0.17204993000473667,-0.23796511854376434,52.466645942888576,0.6126355707476472,0.0007573073891503298,-0.12994237718443652,-2.3951892676124213,56.4111901827777,0.57902923338601,0.003069366784911427,0.15654192537246214,0.7851044160907676,50.74856361829038
0.6284971630720283,2.982503063374451e-08,-0.00035181409364970495,-0.040677738408243125,59.25130704236771,0.6285140911998021,5.073176380925438e-07,-0.0009349182158168157,1.4874136797963464,59.254570015835064,0.6284601583400022,5.537038395529423e-09,-1.1121535756219991e-05,0.0203440959960466,59.244326418129816,0.3705626145648774,5.72748578115279e-06,-0.001298842518992538,-0.4844926707236978,20.598351092355067,0.5514351898910259,9.901687496917023e-06,0.003212782300844541,0.018851286218417296,45.6135906489598,0.4419309198780049,8.869573216090075e-06,-0.002647301757833287,-0.5908382104883629,29.29676225804213,0.5921774813476097,2.6552775124034405e-06,-0.0017319677615968974,-0.12754029109785764,52.601521048629124,0.4596150421846386,7.123204421402968e-06,-0.003800010690418354,-0.09431709326895148,31.687959407816855,0.5396265479852717,1.110523167183835e-05,0.0037302023792264993,0.1566778932875716,43.68117637309422
0.628710162711963,0.0001843559342907686,0.041098550250582185,0.02223731274218687,59.31893933880478,0.6284973972744246,5.625411385287184e-06,0.010706339712595379,0.026083983603381017,59.25218494340528,0.6285641655044738,1.756357944010729e-05,0.0254559510678668,0.5220758896826558,59.2665534967869,0.5395558320372029,0.002832709046419325,-0.07994190059220524,-0.1723403981640647,44.09014803072022,0.4840676553841374,0.020479848277175475,-0.030001106067549962,-0.3025806052161306,38.19972164166353,0.4268684055934997,0.009950423682829909,0.02743825893056001,0.1074785927621316,28.815108482832144,0.4529343650397135,0.013014821150074966,0.18469580690586615,0.31711542435516143,32.71163920645043,0.5356760998342575,0.025992538033439986,0.3902388525929705,-0.03254384430340845,46.91522075702876,0.4339728555078807,0.028611339101471525,-0.0017959209811965191,0.1174205040156204,32.51295542376883
0.6285993056613279,9.972008409086761e-05,-1.2554629347460988e-05,0.11553434072019067,59.28542135421507,0.6285069429175828,4.4734525997079545e-06,0.0021837978253234076,-2.0082244357241144,59.25381313877822,0.6284999386904898,3.328402023436068e-07,0.0008656339930818158,-0.4671552659688762,59.251875533282565,0.5007984573347873,0.0027724016837883283,-0.2669408868364955,-0.6213587924709726,38.0329520812199,0.4607044761794968,0.0027213645732793203,0.021651690750424057,0.3257565883147823,32.2427754771923,0.4481304567429013,0.00737183074347375,-0.048572160635323824,-0.5767621091845084,31.2215387198678,0.5185157013779853,0.00493861681376073,-0.13882466474696942,0.05269282307102687,41.064633791575936,0.5731485329503287,0.004134304373849263,0.1814678687497569,0.050595714279461815,49.89089747517063,0.508172743643834,0.005174481369983439,0.2752052193323196,-0.15008450666491366,39.50692833150282
0.6285143709691364,1.256242164689016e-06,-0.006514438456308946,2.79285533423594,59.254734357291916,0.627648956296072,0.0008465477119277475,0.0469721831568708,-0.07859754469320858,59.21761746000951,0.6285381648199302,1.783632455870953e-06,-0.007537564675014097,2.8645692458732332,59.25929945651679,0.5685898944175394,0.0007709178201208219,0.04986602882371305,0.5665395443999752,48.609036960260276,0.4150073014209909,0.0013701407929588964,0.01702063198418613,1.7351780097658192,26.03881001306085,0.6168245303328067,0.0006412872864222463,0.0761669487533172,-0.8393642129488784,57.16642698872003,0.4934466114897314,0.0018792843923445253,-0.015973728926484798,0.15752906898666627,36.80344713306402,0.5325789023438885,0.002063105197839314,-0.09884754311932054,0.2110901552567964,42.85344575775122,0.5614434522754124,0.004307451098831435,-0.09872343743210754,0.7199952072104695,47.924622729165876
0.6285260190781657,1.9130393356844518e-05,-0.003198634641773945,0.6743986920509051,59.259593927347176,0.6285154718414878,0.00010431529613431646,0.04333049022015623,0.21078443069104927,59.270297730743216,0.6284526972846474,5.0818787886188526e-06,-0.0011596010588710293,0.4380626660641359,59.24367610859179,0.4454527244247416,0.004303277693260747,-0.0796347628565513,-0.2966177538956945,30.40540783090957,0.4646779547257421,0.0038886815637439115,-0.07441599159382778,-0.7024483600880038,32.96825379421264,0.5272997265312278,0.005017475937251778,0.07307911653472976,-0.04772261858525799,42.454354154636675,0.4474713400361405,0.010857325143682222,0.021109879776046225,0.024264214002740897,31.65233146946955,0.5233028771101453,0.007912500682230275,0.22301351275493814,0.03815700065940829,42.25584778041572,0.4788433888548282,0.002558330339599256,-0.06656140619228977,0.05577865771245881,34.77483987809673
0.6285526540609517,7.492083670825409e-06,-0.0006023294798289669,-0.4835361274490387,59.26288215952694,0.6284823690775406,0.0002784845239592698,-0.0006534580734397499,0.37279268535012666,59.290007430267636,0.6284616350417122,8.242082442174542e-07,0.00041424044848270564,-0.4787224262384157,59.244726814923716,0.5384321481163331,0.002807705456994357,0.011089168020747886,0.12027853120015305,43.904724831867505,0.4838468060968137,0.00263442049516589,0.05099756458328125,-0.14272952119595114,35.50868841929286,0.4295573489366941,0.0013867577182489976,-0.03467728149561533,0.06489262623638344,27.884554303847214,0.449987447294608,0.0007536255534490141,0.0016512400732272006,-0.18291842570863748,30.485595615871553,0.5377986930331167,0.00018784775190244384,-0.01269754017086755,0.21113940843491447,43.41210444925274,0.4344710917574491,0.00034950840270273683,0.011044275148119398,0.024501482900845903,28.36684618793917
0.6284557129259892,6.3295347527971325e-06,-0.009096401762876629,-0.1433281266578081,59.244430567075185,0.6278279646093973,0.00038554224060303966,-0.054802735369946835,-0.7324839402033871,59.182638765686654,0.6283936415908435,6.407018220324352e-06,-0.004444015663633616,-0.6946538820327399,59.232739964485084,0.39846719178655177,0.0016583380141629164,0.06227855129279925,0.9664697595167456,24.063507803649372,0.6077630181063188,0.0019504973463117976,0.176620893830141,-1.3354338003724917,55.69700703125572,0.4117475425453643,0.0017224815371153551,-0.2473568494337613,-0.7608735051060359,25.687055567852177,0.4989030943217298,0.0011660797605297945,0.11167253600244426,0.043108048751073234,37.50939051288846,0.4250239045160416,0.0020496569735752234,0.1784195862132925,0.4823731054434317,27.40219680057189,0.4835929873732922,0.003266888465862873,0.22151604203683173,0.6436123604227006,35.566092996907344
0.6285317180944107,2.167716248578324e-07,-0.00026145805646160536,-0.2445705147035079,59.25785039657885,0.6283191930672305,2.2232635363449055e-05,0.0041279167896637325,0.16966123678788853,59.22106391916753,0.6284993367440418,1.899544336028745e-07,-0.0003256715493711315,0.19615618781123426,59.251740746365684,0.5012887986879911,0.005436616188656457,0.031691988917665836,-0.1871629694506988,38.50362476561722,0.4571474319288296,0.0029260031189877176,0.06976549459214981,-0.08329850973293032,31.78354064259776,0.4505438063029593,0.0014673261543377788,-0.009590219934280051,0.02801940184965106,30.66708980669013,0.5181350026888466,0.0037656319163486295,0.03354570618485148,0.014144920755288332,40.83066130724161,0.5726475007533535,0.0012414881621304204,-0.04103547715403855,0.5449756360128619,49.37375575401672,0.5068099750457697,0.0093128203166509,-0.1240236410605981,0.17128053680447453,39.91606284806504
0.6285242465550548,1.990208096712727e-06,-0.004422945780335419,0.07502526374025381,59.25670581714633,0.6284198021236055,0.001753339128849012,0.00771731901869488,-0.29603686513780586,59.49796468535925,0.6285004646724393,6.780367992250715e-07,-0.0012247355458898654,-0.13902505825592193,59.25202614150389,0.5000200056695493,0.004091060687572679,-0.054200182010181286,-0.5205553490691824,38.11256895291475,0.4586102415439104,0.0016774755084113114,0.05779997936654635,-0.08446400010571202,31.798446898097854,0.44940897075284414,0.0012030170539801509,-0.025728679771913118,0.13038713695817924,30.47451299001266,0.5177603602231768,0.002959018827831803,-0.03014116459079292,0.3054684935554629,40.652262398112015,0.5738657359219432,0.0016666911653773658,0.07733349543722945,-0.002141505570982341,49.646619413426244,0.5075652327031479,0.004155661421983143,-0.08883281853853975,0.11145966347342176,39.262563369225596
0.628589265911975,5.226355159540327e-06,-0.0006493235108644412,-1.1324282342703245,59.26944850988214,0.6295892156249382,3.3301246501092045e-05,-0.001215302112693828,-0.07072974926827871,59.46234895041238,0.6285688637081218,1.0972981614851172e-05,-0.0017383912733578422,-0.7665011153755474,59.26645743775854,0.4581395044958978,0.0012588601084080036,0.10096398954021928,-0.6034268775253123,31.6713409931148,0.3969705218677413,0.003500095696200364,0.1954353609102807,0.1218891780526547,24.159353543525892,0.4704786163739846,0.002048678124919496,-0.0422154419116032,0.4362358094479755,33.50777231038985,0.5893664075111784,0.0019175084043104472,-0.04463642793948719,0.13408466529315494,52.38862309763712,0.6134818520481989,0.000829432641815189,-0.07318333279222833,-0.26353356241757525,56.57758288250372,0.57705120072733,0.002111591047775061,0.05413495751903508,-1.260775676606546,50.26284030524648
0.6285163356581622,0.008019971374693395,-0.14425334920962107,-1.8974135656472932,60.44989336320384,0.62849728442229,0.008012377269975925,-0.1409310773873842,-1.8999159012989848,60.44516969215533,0.6284309524374546,0.008015295543779307,-0.14393566339369854,-1.8976780321910858,60.43309833324005,0.5386156837365629,0.0042847813536603645,0.013001151524454913,-0.4742029343200944,44.15446063674618,0.484006109216606,0.00015133752340071958,0.00819286914550632,0.27150590180008977,35.16183635483629,0.4294762733364133,0.003449211814797787,-1.9049109232449624e-05,-0.3216765038361218,28.181412964244906,0.45001247332925376,0.00018824174523758328,-0.002906498026568949,-0.6308864926239296,30.40473194282724,0.5376727379580419,0.0005648025004355054,0.0006564446411654322,-0.9697038129308764,43.44795154405948,0.4345428563429392,0.00023069162764140238,0.001125535734911309,-1.5947238245817967,28.35849715232061
0.6279065581026824,0.00011956137862820171,0.065871625525727,-1.2608885344047294,59.15781150166921,0.6284095920030851,6.024667602204597e-05,0.02482236289164741,2.119152997737972,59.24376905294986,0.6282251070214401,0.00042294412802837503,0.05490096776610942,2.1285493558393367,59.26303643889122,0.5007870554793579,0.003415634073420787,0.0601146576774298,-0.2464373537185841,38.12708071729251,0.4582185982229195,0.001908594056752237,0.024516189226769625,-0.6153064136117408,31.77902307806268,0.4502606880281602,0.007946282053539692,0.0499040267138266,0.4798498824359956,31.59419910351625,0.5172417838516492,0.004733966212550349,-0.0968441382891419,0.042951843708055125,40.83622040997544,0.5726673468564062,0.016057235606144384,-0.1526188852232263,0.1404096046927787,51.584711628648826,0.5076747951931956,0.008176128658576344,-0.031203130241267307,0.3795730043220857,39.87829782129586
0.6286208867053279,6.673487368348908e-06,-0.0027226195557336075,-0.2085657578444112,59.275627229946785,0.6299738561179828,0.00038022117438894857,0.09181468280058336,0.2980013081695119,59.5867118638081,0.6286060376136767,6.239123957861982e-05,0.004323782323495506,-0.4960865678579632,59.28112887335229,0.4573968273583143,0.0001564480596979021,-0.009115507605870266,0.33140381970929633,31.405089412512737,0.395997038491693,0.002826523414250649,-0.030034190733090826,-0.19357178732606592,23.943200162852047,0.4706337134297316,0.0021613161091895267,0.102835341091913,0.4209546450526244,33.54644993276804,0.5898357079516641,0.001431802758545282,-0.12488445929589707,-0.8108838785304036,52.39926296724936,0.6149425955629018,0.0025689124200582425,0.0669417760086446,-0.7152846719781223,57.105927326234465,0.5785513691442042,0.005231402737572097,0.01814966932313622,0.5733983741837825,50.987732018693244
0.6284400923456059,1.2112096433271905e-06,0.0010121740373352226,-0.32642180769825946,59.24072292033993,0.6287957076882171,0.00030602103051927853,0.017341559371872428,-0.25547881421274266,59.35320343461622,0.6284514976762319,1.2696075295465158e-06,0.0012866855326700846,0.4713819705829034,59.24288191124674,0.5687565073133609,0.0006724298617245665,0.0077602407657030295,-1.1459339140108469,48.62278674109096,0.415287246710877,0.0005884153942780443,0.023294254429667816,0.27467940020949544,25.95719848585255,0.6163923975971203,0.0005154880795289245,-0.02257226059150064,0.29059325194505825,57.06774589617879,0.4914593169139117,0.0027904787328740612,0.06989927580611083,-0.8528471343878954,36.64562035842154,0.5300858151810055,0.0011995631132901859,0.006606226499641266,-0.956669424562216,42.32738062229691,0.5606253166872486,0.001044342754399263,0.01887725405977636,0.5136145861942513,47.30071892700715
0.6285617978943138,3.0133549020717275e-06,0.00239291227308136,0.6604034291376482,59.26393905570023,0.6295549913895034,4.544707122612275e-06,0.005963448439863517,0.27994354447227626,59.451600238876935,0.6285431705779854,6.5498430992955325e-06,0.0004478504891194391,0.6832878583852221,59.26095351865576,0.4582957322923283,0.0010390366028324794,0.013229398995321662,0.1732033922550852,31.660063189426264,0.3950468410666333,0.0026725092644362776,0.2715468772373645,0.21848379334776044,23.807504875909878,0.4705146897048756,0.002159238632340812,-0.13195994714422332,-0.2818233001252837,33.52933754043008,0.589790933658104,0.0016294196653979154,0.0026274740957992204,0.29842527162382115,52.420785343939,0.6147895516103743,0.0013052923372443332,-0.011614354538749372,-0.3059996277752741,56.889417473642176,0.577430471365489,0.0025911630855761287,-0.03802082532141182,-0.2148456233779455,50.39997568895646
0.6285531190393485,7.303034601727799e-07,0.0002762172835976129,-0.035273947655698516,59.26196233332959,0.6285106210765835,8.073666923981355e-08,0.0003534784914437372,-0.1215410041823786,59.25385215067463,0.628471903827768,5.027234543834901e-07,0.0002683150828470815,-0.041984625184426264,59.246614990929615,0.5382700064072831,0.0025692037467449787,-0.1207713750560524,0.0017418990627565427,43.84300132791947,0.4841290519182527,0.0028054645801390736,0.14224445677392195,0.0016538355187724145,35.575155059130665,0.42914295210686815,0.0006003771605983286,-0.012903830135811143,0.012352152262552023,27.714007198378813,0.4498155195732931,0.0003349454421529079,0.017212303280981226,0.021487869389044657,30.400007118229546,0.5378224776353406,9.618523170612934e-05,0.019059733055449057,0.012585496416623751,43.402284216996705,0.43424714740214265,0.00046304530151136317,-0.032187471490834896,0.007246559985299289,28.354581503959924
0.6285654716180386,2.7491560844698298e-05,0.005186616312115143,-0.35055346016245176,59.26827905912697,0.6279085019673255,0.001828117252992204,-0.0484814135592736,0.1790217906396027,59.41275249712345,0.6285668518614564,1.838973338423932e-05,0.004720835230567655,-0.23122403070294115,59.267183159127576,0.4989293789953837,0.008822768416967317,0.08633215457056402,0.0007153489301498822,38.65417127783602,0.4586045048055102,0.0033928174917234504,-0.02036735621591762,0.03365420590175495,32.05324358045287,0.4494640838684288,0.0013937456544666925,-0.05463874026382748,0.20377921239327404,30.51036250566844,0.5154741463602416,0.005745399615039443,-0.02575715964188724,0.09867318608928499,40.71310387751383,0.5718344882564903,0.0016728004061706595,-0.11739087602846544,0.2824441374579602,49.298449554453754,0.5077867275703227,0.009650897190782728,-0.2737962099604948,-0.06666561678450479,40.115087785913204
0.6285117352321389,7.48035509748888e-05,0.0038365653883307696,-0.0738692836737176,59.26519592777241,0.6286131336992112,8.04455443389541e-06,0.0016102866901764876,1.5986618240045098,59.27436941748202,0.6284398233890021,6.511677997847736e-06,0.002334098008306085,1.6634580579589382,59.24146198320166,0.4452340407189588,0.002511780925115471,-0.007542517946566519,0.8368619278986601,30.109258010081927,0.464974277718364,0.0009519737809611467,0.03067023829762588,0.3119189487313751,32.57200593432036,0.5279260159698566,0.006889318152856097,0.026911868559019392,-1.1776889451147288,42.832390155446326,0.4482094407546376,0.004247573920497025,0.11190547377682357,0.17820366883739885,30.766643931391823,0.52245810349092,0.008284148213208466,0.016287782615751308,-0.3711360959653971,42.1787085692674,0.4789010415483291,0.0013893728753599116,-0.010806662794194344,-0.20390227250598092,34.60894769783979
0.6285567223994213,2.561335075743211e-06,-0.00023917528882200226,-1.3757906854123103,59.262914629951744,0.6285186131515981,3.5644496918557863e-06,-0.00339341868549925,-0.13458188348325803,59.255878164705294,0.6284765503171239,5.8608188846165995e-06,-0.0003346970344523248,1.7317236423414004,59.248289406790676,0.5384681193629612,0.0006158524678851834,-0.033809511414923166,-0.035718126493190776,43.583949353257545,0.4841013728128902,0.0004153096595338384,0.030767085908676824,0.12061802671975462,35.215002013169276,0.4292808663978552,0.0003424507053335426,-0.01980095040098168,-0.103556959883342,27.693334493388683,0.4500360477041471,0.0001225208573073446,-0.02450148714797024,0.006319252360975382,30.3981222427142,0.5378165894197116,4.2640423155575485e-05,-0.007734184959279799,-0.049423828553554185,43.39335600130775,0.4345804197353342,0.00010806778696563744,-0.020827998911799817,-0.02813119216665889,28.34512328285876
0.6285410469018565,3.1562355987610474e-06,0.0022324634264753174,0.1615645587524596,59.26004742517648,0.6285188005796992,0.00022581084940549902,-0.000374167005867565,-1.9190084522364543,59.28902821888298,0.6284658642628885,5.186044979068733e-07,-0.0012817927043088373,-0.006676588378819175,59.245478653625106,0.5387895081242199,0.0036371025083891118,0.035662533348262526,-0.07833073168683295,44.08604838346079,0.4840633214278178,0.0034898273608247763,-0.012747638552936423,0.05151882519233457,35.66757914952254,0.4294665083068574,0.0013412655156434619,0.01360055766365248,0.03808799433589352,27.866070825423485,0.4500105603747219,0.0005170349969665813,0.03496317078210859,0.020308378518580816,30.453463881863694,0.5376011785706815,0.000164653367360277,0.023726690348348626,0.19782869397009356,43.37678743182454,0.4344051630031761,0.00013697752114291334,-0.002306255465083729,-0.07784720124931485,28.326586497222692
0.6285190126543472,4.4700435735828594e-06,0.002335481391199545,0.7217483851398963,59.25608842669178,0.6286222390628673,0.0015582028445405053,0.029643102527404763,0.3032599675788149,59.50706014049844,0.6284908602607991,7.823824251337497e-07,0.0018327209721258344,0.07449616334527974,59.250230789685276,0.5033254333120805,0.006997528516271121,-0.10239257400556306,-0.5150910888981483,39.04310552174343,0.4593561440972514,0.0015393178192458284,0.02250165725149067,-0.18861784014018487,31.880568423051834,0.4493893500259265,0.0015403980236108961,-0.04761341828092497,-0.01259253281998332,30.52213749302673,0.517394723067084,0.006683046578373107,0.13110015199739056,-0.07474772614869883,41.150368858827264,0.5721825860302469,0.0017386245270897107,0.12386401262124867,-0.20554658910164975,49.36799181797552,0.5077518475582805,0.006037517299958735,0.2949789173225635,0.1709393007209362,39.57138088252097
0.6285331392009639,2.6912955577441544e-07,0.000695607366997808,-0.61482023398145,59.258126161376545,0.6285198136631998,1.572609258851696e-06,0.0012422261515155908,0.19186763991247355,59.25580774386305,0.6285014628561815,2.613932859663959e-07,-0.0006269131210601131,-0.2795108806920422,59.252152269453624,0.5010027012861434,0.002517845180202253,-0.07554899622638482,-0.4572974737217587,38.02571493625203,0.4586926471693503,0.0011138514175078084,-0.04829063122651045,-0.2523732784702561,31.725805546292573,0.4492475563236358,0.00455009261502193,0.016585275565230928,-0.4601017107287133,30.95146882905201,0.5159788475157157,0.00510317662150473,-0.006439097493304513,-0.3020549282290231,40.69549897915111,0.5735053652996194,0.006983758683501249,0.07087187307984982,0.36192695280427856,50.376840647959156,0.5084518233182639,0.004804008731736441,0.0676795771374441,0.9194874502970304,39.49428579637879
0.628484411515891,2.0139615723063157e-05,-0.002108181006997389,-0.0010026639259954004,59.25189913051412,0.6285556170013671,2.0657328793979485e-05,-0.00030277262309763575,-0.3311118592219105,59.265402491585675,0.6284771465368945,5.510632174701647e-06,-0.0013001159705017251,1.8981910076869812,59.24834964206757,0.5385431844359087,7.483086194716951e-05,-0.005930791887831299,-0.1244213544313562,43.5154640237855,0.4838913299681836,0.0026583691955787557,-0.04903402305230459,0.3954005523892444,35.518719892897856,0.4293609855930777,0.0011261018101108215,0.038354302412677184,-0.4170454069768499,27.820417562125375,0.4499522019089475,5.6670776994974354e-05,-0.013720042864672431,0.07881289065951874,30.376991546178804,0.5380201087243688,0.0001643317725345538,0.003814630582705813,0.3181180024071518,43.44433104287491,0.43430142803387184,6.810158928888839e-05,-0.00684722013383221,0.5857040354609451,28.302806695643106
0.6285475858025612,9.026632265805971e-07,-0.003016221755577253,0.006108945709619943,59.26094463955496,0.6285088916763099,2.129832682471046e-06,-0.001720589038648579,-1.3231235185042465,59.253831382497204,0.6284669556046999,7.243604184988876e-07,-0.002477490210282096,0.005845026818754616,59.245715072758344,0.5381300328713299,0.002886078493086205,0.02538531859308624,-0.006043949397420388,43.86761553718464,0.48434900138639,0.00216908255762517,-0.003643849278225475,-0.046255540023260634,35.51228657268515,0.4292986327061181,0.0006241515682757206,0.07793039891932829,-0.004357983093871574,27.73759599017445,0.44998169134419225,0.0004280617619375138,0.02805236447976206,0.033196546652215594,30.43630958427568,0.537758021043359,0.0001254122698299832,-0.017124958374559632,0.002083170670568332,43.39623980767513,0.4344701328794976,0.0004513465302701417,0.03115968827216675,-0.01790404856830331,28.381895087659483
0.6285241451988955,1.2329175716196294e-06,-0.001553879522748991,0.06513557461556048,59.256573869418524,0.6285080331942837,7.983059153630179e-08,-0.0003011348373189726,-0.2778353428263772,59.25336406322019,0.6285003063034461,8.819831363286986e-07,0.0016950668873094712,0.06498969916352047,59.252026669016104,0.5383365687725782,0.0006184161615752807,-0.06742202128731478,0.5347044019119638,43.56308319974965,0.4833172089275168,0.007583429388529826,0.12072125377784515,0.030900412181134887,36.16925964571367,0.4297379039591664,0.006408141982768776,0.034369207534202466,-0.6904432557949604,28.6560130703152,0.4510634847755034,0.013536959141115098,-0.257481802060366,-0.17399513973212966,32.535747006699275,0.5398131780706139,0.01518174023490251,-0.14247194397183874,0.15859959829310838,45.97181937780493,0.4357844244890472,0.010347946687546012,-0.055180259107189766,0.13256203167258807,30.028053750531868
0.6285013333256425,1.7910636677814825e-07,0.00023041771827492233,0.11254352742356444,59.252115585665216,0.6285084481132479,4.531409285201149e-09,5.466363978690048e-06,-0.014143438246307032,59.253431077638524,0.6284599184189134,2.5430468853152883e-08,-0.0002674748205190314,0.1479449202678718,59.244284148005924,0.3705825836143561,5.1347552288259115e-06,-0.0010310782460653534,-0.1436251586132294,20.600482770272784,0.5515014686730004,1.1269575763640813e-05,-0.008777662074435644,0.1839190401683232,45.62475965906025,0.4420047958879547,2.3969900714137106e-05,-0.017191345278343928,-0.2206960377921241,29.308807453399282,0.5923352002943033,1.71234615684463e-05,0.0003702521639893375,0.2241734180848744,52.63169982192757,0.4598857823954563,5.552583760802459e-05,0.013612251122682271,0.7080266505794486,31.73251327722573,0.5395036022913601,3.200879787891474e-05,-0.0012982505577185945,-0.8168057380119964,43.66438984368707
0.6292305625446718,0.0010850120328237008,-0.09201719974166478,0.2073665728698048,59.551331918933364,0.6286088804826248,3.513595724614598e-06,-0.0010182671576064448,-0.5550776505109064,59.2728922190058,0.6284577799207873,1.776324665650924e-06,-0.0012174119519956506,-1.2703398055471895,59.24414184381988,0.4451392189553329,0.0017710307703184128,0.012588279958316071,-0.04766501531666864,29.986222222602024,0.465004468590563,0.001346722481138892,-0.05236659016751072,0.3587357996583915,32.63503502106847,0.5276402487027498,0.005558540868496852,-0.13045000086984926,0.9606166049132744,42.588857397070974,0.4480329621398433,0.003093757339168512,-0.02149716163528081,0.008438029839735529,30.57100011810645,0.5221831695539512,0.0030581503705374995,0.05431112586079312,0.9689895693019696,41.35695379002165,0.4798444003729846,0.0018142710650749976,-0.02655228511784236,0.0063692754838569005,34.80792367409254
0.6285744718082182,1.65367899144704e-05,-0.0009176795988362627,-0.7800228031834432,59.268343973044345,0.6295708868895027,0.00017119086866652689,0.002825047097823941,-0.3233859512946052,59.47943268225657,0.6285712039228281,6.576250019164559e-05,-0.00033884029636521706,0.5132181720132043,59.2750623726776,0.457554629423409,0.000956903628973427,-0.018886064068202424,0.4602855646258694,31.546014476736012,0.3954137291039652,0.004455509171950561,-0.0396614384681333,0.9379657089815586,24.11667344120623,0.4698068696649015,0.0030540356454750377,0.024126467410376832,0.3781267443837099,33.56282552882585,0.5893833075431559,0.002327332469788364,0.008783164488671558,-0.9943437262387986,52.45267501957503,0.6143443151792823,0.00332804446906476,0.023920626188675853,-1.5671138758337944,57.10871926485585,0.5788143707652719,0.004936364663254961,-0.01206124990282309,0.19184339125959685,50.98942970548461
0.6285051427316334,4.1371300514118955e-05,-0.014140877574542075,0.3131737200843227,59.25897148979322,0.6285493263876791,3.228705644148224e-06,-0.0004649052000689213,-0.1803328223855777,59.261619432501796,0.6284630480408868,8.733481220937794e-08,-8.818093687534834e-05,0.17881460491122567,59.244883425813335,0.4438708030491494,0.004690730208844645,0.308106814519294,-0.6304948146191733,30.25211227104236,0.4648439587762384,0.0038742930688446843,-0.13053242919323954,-0.4719929238737742,32.98925556887264,0.5301499567523571,0.005886300489222416,-0.4579463632013408,1.4476185288658046,43.03590526957308,0.4472938695758404,0.015523147850835127,-0.15510247576194294,0.5073285076131333,32.323719893793765,0.5209091137417045,0.00512223766156739,-0.1423176846138392,0.3547994300142403,41.46515912844875,0.4786144204974727,0.0019953399659326334,-0.08241667074785057,-0.22946428420728995,34.658070181143685
0.6285652161063157,6.169470486864095e-05,-0.0013127887137331928,0.8336338743165286,59.273327145842345,0.6290229565050303,0.0009382590415842123,-0.001918003768237253,0.37825646181819855,59.490282568745435,0.6284795983688001,7.414528074592528e-05,-0.008925264847517433,0.43438035925808,59.259038481702355,0.457749822219372,0.002241131872266456,0.09956717847095098,-0.539977176481554,31.764163610247703,0.3946071292954836,0.006424239111019161,0.09780148737297717,0.9356870870399516,24.314429601165234,0.4695065553091468,0.002247660098879675,-0.03175012829632884,-0.3894039283465803,33.400362176472214,0.5884307869956517,0.0043579117773171775,-0.0022979243336359034,-1.0943086686099135,52.586947517468545,0.6132153430268602,0.0039059639128554494,0.03352050961344799,-2.190208024976193,56.98694716154794,0.5769533891907497,0.004191358910956426,-0.08166884606923364,0.4491247714225661,50.555794472536405
0.6284475462526372,1.190152315526968e-05,-0.002127769086808229,0.2473087649575905,59.243721085594224,0.6285738716595068,0.0003243755251083817,-0.018580829082652132,-0.09541744443793254,59.31409877319446,0.6284702570255333,6.2505898301268776e-06,-0.0013519944454610802,-0.2737074226969893,59.247160932745636,0.4453418851434655,0.0029395467698829537,-0.040923138120897096,-0.37247796046146464,30.187401668182893,0.4650271838548524,0.0028553521938809025,0.04477479682165003,-0.03151672567660292,32.86298973548447,0.5276106945493145,0.002546558601966379,-0.01637641309658555,0.5106554470490743,42.13539398211449,0.4478701634748772,0.008802027432462459,-0.04788383109502109,-0.03094556119476055,31.39965458708888,0.5224951805477741,0.0040157116878840726,0.006705834165987301,-0.2415947952011645,41.5485230958424,0.4789233451331037,0.0014378041040445167,0.01367106164407078,-0.232083096429008,34.619368388524904
0.6281028979768111,0.0009231614973716117,-0.02777128411916374,0.6429761014309041,59.314538630138635,0.6285747021188643,0.0001617643671787248,0.007772053466662431,1.9067686209876382,59.29002631228249,0.6284608130837851,1.1381489171588429e-06,-0.00033143925195811,1.4709880736120928,59.2446186214785,0.4446381347028629,0.0026234273340735807,0.0690721469026902,0.5073228858090538,30.046351297583165,0.4647386825100762,0.0016872184684869633,0.05092733139733602,0.2026490900990799,32.648702004984735,0.5271666437285601,0.002197192539446089,0.1294447797478192,-0.5632120991110098,42.013082227382654,0.44915614311288427,0.005341502430407236,0.1126558406846392,0.04469621473533368,31.057069996536953,0.5224055004848951,0.0015103978515572016,-0.0017515724659638574,0.1435480428981844,41.16117532041308,0.478268495693293,0.0011900984156872536,-0.016876784644927534,0.05616874318989562,34.488437759846214
0.6286188658273073,3.174485680236262e-05,0.007326816920016466,-1.9558228022510664,59.27898175476511,0.6298455875230252,0.00015784248859317712,0.04434727562099439,-0.3703254736002444,59.529338149134105,0.6285951912940029,6.307585709998509e-05,0.005731074036330774,0.5566338987490256,59.279185480399505,0.4576717282253568,0.0006765102206868522,-0.06309036502261534,0.20800221852257167,31.520311645400074,0.3961269996125175,0.004250747877332357,0.055953615124452405,1.1250959532504343,24.170851407024827,0.4697713483713304,0.0033067407932682274,0.008163899448240086,0.3997714862849048,33.59547234078965,0.5891822586302276,0.00369329288390584,-0.012335500012605749,-0.3793599374664716,52.620660722394426,0.6141826201862502,0.003194996360108137,0.035413265062675614,-1.6479305703982616,57.059098098483254,0.5785957958118938,0.004698008689121659,0.10569046418807447,0.22262367608902212,50.91596753435895
0.6285305947610121,4.011297327972794e-06,0.001488103783026995,0.04094190116888626,59.25820396589661,0.6284902297042869,1.3107416960612486e-06,-0.0011451228443460915,0.2836601222632962,59.250190625574824,0.6284479177311076,4.0563773266246164e-06,0.002029805702641218,0.07592657968901947,59.242622195306424,0.5386524403733847,0.0041890024737115394,-0.06173239616943482,-0.04731101663885203,44.146129096613436,0.4838309788929233,0.002254044163825325,-0.026188485941353926,-0.3176225399284692,35.449715000882634,0.4292773211473239,0.0016267893816954055,-0.07599586208262593,-0.18550501851233386,27.884244385586015,0.4498035415250745,0.001539224610991322,-0.08564210420104595,0.034869641382116345,30.577828362312626,0.5377454223713869,0.0004558400375200863,0.037202617376624565,0.15520185358884,43.4434410577977,0.434497696074544,0.0009043787841361494,-0.06640866436331673,-0.1943002768553725,28.452989622949296
0.6287405933794847,0.001993005257119281,0.025477939046816837,0.050456984834148975,59.594167847788746,0.6286512249021793,0.0004465124445302251,0.007523801446544187,-1.8048088030267664,59.34688473988657,0.6284619058730245,7.903080873415561e-06,0.002764631385835603,0.5879984414104217,59.24583262908328,0.4446067151133046,0.002487249531489239,0.0616658119672826,0.00128623028987499,30.02186984876837,0.4654763796425654,0.0007691406572651543,-0.002328811640166017,0.2237768230947626,32.61484095870498,0.5276909857548715,0.002645021763715036,-0.07911696826976355,0.04303521577052186,42.16277470983576,0.4485776166879009,0.0018956281056983005,-0.1005649428108782,0.2376010526987099,30.46573031675864,0.5210054001644593,0.0019365413910891953,0.01800858809545269,0.4623943335989805,41.005538717351534,0.4778154094677996,0.0017180854947661391,0.07015248129169173,-0.2641631176920343,34.50212956745231
0.6285210919398929,7.429278690751778e-07,2.378484779963497e-05,0.14662076519259268,59.2559251482498,0.6284643171723823,4.707262457120803e-05,-0.002959747712168448,0.5769269416402552,59.252123514903424,0.6284982540328462,4.2694278774566077e-07,-0.0011747213786496016,-0.09657459138088256,59.25157191282575,0.49996818490225897,0.009907730372384849,0.17718472887749426,-0.4643801226555134,38.97147971265426,0.4582248663571562,0.003981075987490463,-0.07933539902789766,-0.049024716127904086,32.08868454434113,0.4494226023797923,0.0016032992010617984,0.12071002152183165,0.17197496437669846,30.535992910431933,0.517326447936288,0.004857949951679296,0.035833417600654505,-0.13499058551576798,40.86783260295676,0.5734826969091976,0.001862632694489681,-0.07331003776520263,0.5060928996960754,49.60989281961596,0.5083829796875711,0.008483393251032572,-0.02222715763480532,0.07954417055287512,40.032013699805816
0.6285094721749473,3.0876293585536303e-06,0.008197133034043125,-0.5231328017764327,59.254083548819075,0.6284736157791727,1.0149578695255594e-05,0.00025495977655409785,-0.3078442365525093,59.24837514680768,0.6284545946938538,1.251293859935165e-07,0.00027834635636303506,0.1723540791157817,59.24329528305093,0.3983757600503287,0.0020580789331417298,0.04163528520202964,-0.23562613716001035,24.11214069038969,0.6072749421112782,0.002600250271038877,-0.005355732783307143,0.11878775763317,55.704865587823235,0.4137082403863551,0.0007169669032101554,0.059517488966969075,0.1946642548924598,25.78000429311444,0.4997101833858577,0.003339281003242593,-0.0012201474208196061,-0.1676676275517342,37.954092976412284,0.4233036803174523,0.0012149449593687415,0.1163098286705972,-0.0910831586993587,27.058927664490923,0.4838499139371836,0.002850865036001373,0.2340379069747684,-0.026623653663863708,35.541389772917206
0.6284542506964277,6.089987290109213e-05,-0.0006098699230088211,-0.11185132555361713,59.25228586382353,0.6285893637042185,0.0005480198328093906,0.005138417590081934,1.2071016695308336,59.35034317939972,0.6284610061203353,2.1863103284215412e-07,0.00024878485134527395,0.7227931097961954,59.2445180080915,0.44475296900311423,0.005576022592180335,0.08291973798257822,-0.25925748911838703,30.501607881797643,0.4645613493309382,0.005623563666597688,-0.04399428429509633,-0.08358968728423534,33.21049808015036,0.5274558546886134,0.006705900660693814,0.12155420176025344,-0.3179755735841262,42.73063099523775,0.4471390820085636,0.017405307256039827,-0.13052035232347053,-0.049852791575878436,32.58339458006907,0.5234987191963525,0.011895265462255864,-0.006246425565541891,0.20454926957442326,42.88003090390936,0.4793933404110037,0.004069627954048165,-0.0056898272090808435,-0.024100876314705102,35.07907078971625
0.6284358602758505,1.3259415748409251e-06,0.0011180225981969327,0.03894613022815547,59.23994213739189,0.6287002458734576,0.0011819973351063454,-0.014252720227691085,-0.0026082648181872657,59.46571747713278,0.6284435278406761,1.221467104060459e-06,0.0011807255571558706,0.3977765577182691,59.24137215132371,0.5687788803472418,0.0018190096173501464,0.001331050362967212,-0.015200899282311144,48.797444642344466,0.4151247259302449,0.0006504164848983316,-0.013383276271213551,-0.40753659926239466,25.946192768048988,0.6168929135713741,0.0011259640602701805,0.016366130448115412,0.2286181365441756,57.25129866716709,0.4924352449208412,0.007511397055561467,0.00015735591853938138,-0.04163182727564039,37.493068727316015,0.5309614855042274,0.001987365666013707,-0.012716734628020364,0.4111950125465309,42.58413234756443,0.5613401786576985,0.0020475333828492864,-0.012155554897014142,0.11937564740764516,47.57050190036306
0.6281066509528802,0.004705575542699889,-0.1461328683164761,0.04899769769413345,59.87882550154879,0.6280467372716434,0.0009061896402960568,0.05179129286389261,-0.2004473624320022,59.301427886037615,0.6283512744831853,0.004117494344144311,-0.05469231317496615,-0.2767189052349133,59.83730527897399,0.3962428740990941,0.00336668109577517,-0.028417815853015813,-0.0923026549951208,24.05289777441709,0.6057830604772545,0.0012412686760174625,0.013601316456414379,-0.28733509951051384,55.230916486904924,0.41413950250905024,0.0017231087922838415,0.0002536292837150289,0.2594085732739833,25.983472340816842,0.4994018506839839,0.008570220618188348,-0.03985956156590365,0.27472896163294064,38.68729414209828,0.42304348581911205,0.011310039810227041,0.06106034199374799,0.018276245602004,28.53006456582161,0.4847036374404088,0.005074837515397478,0.0066809960718871575,-0.2013447647193476,35.99679321198871
0.6285888456919635,2.444416930101597e-05,-0.00019779571942746266,-0.24119525894747176,59.27223272047911,0.6295694962054877,0.00015127230170841884,0.0024180715255661678,0.17813486851895752,59.4762021558193,0.6285607533667045,1.6540334681983747e-05,-0.0007892145191149558,-0.7899847926715642,59.26575761080547,0.4577678029951867,0.0020107466261942803,0.0006654103097090137,0.0274610650968223,31.732305466158962,0.39545970554821896,0.0034484209610683037,0.010532283653915895,0.4357906824473488,23.97207153004179,0.4699993368964309,0.001171045134679836,-0.008003390694655721,-0.06726929262889889,33.30939222753,0.5895073593731172,0.0023272619566573533,0.008127505316160799,-0.2347188835728709,52.47460104480177,0.6138879349642595,0.0012598700274273793,-0.014094278498397615,-0.9074199155891204,56.71648013828911,0.5785516278002225,0.0025528068496282704,-0.021681791551714902,-0.4365975719197479,50.58866612513769
0.6286117513415707,2.5836671021597744e-06,0.0022625474468043194,0.11226685216533623,59.27329505510571,0.6295645385905029,2.3282692585591983e-06,0.0020432265542278394,0.8375310084237837,59.45307314972045,0.6285769268602313,4.285647038431614e-06,0.004585397257091285,-0.220691191208254,59.2669815085666,0.4579425710549605,0.0019803925422687287,-0.0867977233067383,0.18562996428771986,31.75178824646216,0.39537233224498,0.004753643064080346,-0.08903317704846507,1.02199036845381,24.156184982273196,0.4698990809160914,0.003794054400043543,0.028297165553818063,-0.09535545293051473,33.686086042474585,0.5890940944832078,0.0018097128143770946,-0.002082084984468602,-0.1922292825322728,52.32442503259078,0.6143035593701878,0.0019636608056984367,0.023521121717805186,-0.5416690233845413,56.89791491828132,0.5792495213410809,0.002292314822362611,-0.06061166961777331,-0.12781976963791092,50.671056104612724
0.6285382291055966,0.0005461694642204677,0.007238606949698467,0.6262497234770663,59.34042506724877,0.6293732954895733,0.0004920857091463209,0.05461073837098762,0.8308505780550371,59.48993253197368,0.6285611969242518,2.184155678742713e-05,0.0014607522956027186,-0.17097558319594475,59.266631133788565,0.4576271399906474,0.00281557802712465,0.00017486256274273915,-0.33770032898974256,31.83291101444448,0.3957119131163684,0.00673847243757166,0.0011999927582327374,0.9732140804019396,24.492220120530614,0.4698994446228834,0.002410771551139992,-0.0031460942708824713,-0.1873726284530259,33.48002816965402,0.589480297401558,0.004109597008921886,-0.00029733218716843085,-0.8930246425281009,52.735383108023775,0.6139210502191863,0.0032693145187229623,-0.009204526593323823,-0.08456965122670634,57.02198624862401,0.5784227837152228,0.004441433066193143,0.0017541318392334526,0.08869550379401027,50.8477110349929
0.6285584596103313,9.78623147554684e-06,-0.005833219513085908,-1.4099363937140568,59.26431872064673,0.6285494468001076,1.873200404108119e-05,-0.00015798441645975547,0.4546292858735468,59.26395212951033,0.6285619873322599,8.936599899763944e-06,-0.006573317440908277,-0.9605539446503102,59.264857341247065,0.5011809441707239,0.007507859391602496,-0.012372426359168435,-0.1852272636576897,38.79602186932752,0.4586044461124909,0.005103937441433773,0.02907198444214598,-0.019842488464923827,32.30819237789531,0.44958438743111495,0.00559601654876143,-0.03207450173054455,-0.34088759871988294,31.15272467903709,0.5172968483991169,0.0045024482169598755,-0.008733944100473345,-0.1769807033315521,40.81026918887589,0.5730669718253936,0.004863436643346998,0.007237217423315291,-0.14482020271739884,49.98551518942769,0.5077954483208006,0.008830155908110919,-0.005034247389569702,-0.2750013964649085,39.994125830606954
0.6286317598261524,0.0004652204674369495,-0.001759104222286867,-0.4957617654657222,59.34600126896692,0.6286159828235073,0.0001674000914818683,-0.01947983769632133,0.5609588747288298,59.298650692805396,0.6284571909996741,0.0003120932600741809,0.00023771743936917836,1.6055221566052356,59.29026803363118,0.4449080583083772,0.0039396853990990716,-0.10087736281816073,-0.14072232264082649,30.27849017662532,0.466254401780169,0.004444148699248483,-0.0351904399633593,0.055115613371832135,33.27115323309552,0.5269075162949416,0.0030623204125273524,-0.03780261706888477,-0.07686095101714117,42.10101535068221,0.4507709346911941,0.011784745340608612,-0.18749494941687686,0.15471293700624955,32.2350923901066,0.5212576433403381,0.006292440670879424,0.05472454535316795,-0.29345093926920285,41.694003271069505,0.4793732654151848,0.0024315100665128373,0.06412531871354643,-0.3901025542361373,34.832104139132994
0.6281801656336935,0.00164524843930246,0.025969108175163624,0.14162968718851685,59.43669009179225,0.6283979374632418,0.0002121777130795544,0.03031280608350817,-1.8944106466783168,59.264209650457296,0.6285961868034391,4.546502604937381e-06,0.007677960971168463,5.405277414018223,59.27065233846176,0.4454129286735803,0.008240759604654839,-0.052888686238300064,-0.2366122489862649,30.986774735529966,0.4654974369908537,0.006673530597529501,0.008474403085874882,-0.005130222561567468,33.497535635789966,0.5279277704798174,0.007595693076421765,0.1921731672421137,-0.2570503486640194,42.937917894955454,0.4479727302653201,0.007865997779026284,0.033888214830789964,-0.27294748116164624,31.273968728279687,0.5239909886806373,0.012284952285579702,-0.028739640497152774,-0.12117547119847667,43.015441323328155,0.4795707437264236,0.010727901879014129,0.05681623233183197,-0.11514986251402826,36.09667211572037
0.6285577408831583,7.185054370051904e-07,4.2148246938822354e-05,-0.00022339839524519874,59.262832100931085,0.6285146572654577,2.421232290550703e-06,0.001915231996419964,0.6643893849518546,59.254961923238675,0.6284712935978845,5.568262037375349e-07,-5.874016050555486e-05,0.021188546099285086,59.246507998594105,0.5387094591938739,0.002306905720295166,-0.07295521588182774,-0.0012782169105623805,43.87491116606742,0.483822505901313,0.0018087507106778376,0.07426784093422195,-0.09627358080859824,35.382136438384904,0.4292717074294943,0.0005212300771468026,-0.010048966750038024,-0.04821175052308067,27.71879310140988,0.4498726584040882,0.00032529986002497965,0.029477479608478237,0.013673976568450591,30.406280996077943,0.5378646299023283,9.754427481539348e-05,-0.007882964497885947,-0.007292722473082048,43.40928811194278,0.4342852022342742,0.0003229615713963377,0.02367529893372755,0.01934349314708791,28.33866680608772
0.6294789192369367,0.0015685072669646232,-0.05219759818580383,-0.3416176927078637,59.67026404733299,0.6290329035395369,0.0008681167347278769,-0.03608072444863708,-0.059207672285604813,59.48170845378149,0.6295039681093825,0.001519355085144019,-0.09157316203367394,-0.3374275973425349,59.66767078750525,0.3968988086928551,0.004535473146251167,0.013713435525061657,-0.17860731890850576,24.30508515006257,0.6060082029891773,0.001520008146253386,-0.0577471668597167,-0.1913517036117151,55.31337252731757,0.4137917845391029,0.0020789761406539565,0.053584179152152855,0.5635157235437968,25.993313587765734,0.4981519322685281,0.004528652369449459,0.0157772609197821,0.4129834252755347,37.898071346478204,0.42134091142380997,0.011379621964723207,-0.2519877620309248,0.030855734163535608,28.324788218660803,0.4832905010140078,0.004082918694410145,-0.09649187259980864,0.3756901537664155,35.643811141022724
0.6285201738283249,2.886768886798862e-06,-0.01717658221010987,-1.7054108388307423,59.25607146494234,0.6285807960492643,4.4049074129906475e-06,0.0024657518849381392,0.42365988010652017,59.26772890549356,0.6283998750296806,2.7622309359082274e-06,-0.014739611818624043,-0.784843327526075,59.233372013007184,0.5381787153335579,0.002044510760313884,0.002964923276826181,-0.04688258860770405,43.75008154899857,0.4837238397224658,0.0012181105961157322,0.02315738905584092,-0.2740164039807961,35.27981144619811,0.4292887641595037,0.00040465889942230715,0.049336408134306516,-0.3795940627890225,27.703620631053035,0.44981556606081824,0.0002873393710586268,0.06822049165852295,0.1598179454380826,30.392920086879887,0.5382945400629808,0.00024275531982474976,-0.009941968155923629,0.1887978357649369,43.50032232189631,0.4339100357213972,0.0003718113588180625,0.01706772355277691,-0.3327166073241668,28.297087757425533
0.6285564145336101,4.784518980855733e-05,0.0001932631225824988,1.2876948133458723,59.2696038709836,0.6285094171703742,6.48416138032426e-06,-0.0016461708543217268,-0.6306034699253207,59.25457926082221,0.6284597871068359,1.3165839682090182e-06,0.0006312067672320508,1.1376424400309613,59.24445177256671,0.5385409252449311,0.0008529828669509036,-0.009376569439268791,-0.27871489438790376,43.63104367172567,0.484385627547905,0.0054468576296009,-0.011184589275425094,-0.5395614071287855,36.00599721305719,0.4295121479432095,0.005781783425551851,0.033162410579907264,-0.5226310002730152,28.533588515025638,0.4493929041798719,0.008290360237083337,0.02771514281011173,-0.4966752917183224,31.528361024408344,0.5376057584344565,0.008591658011270539,-0.004406639566720828,-0.16369689268911902,44.63314976896239,0.4345500450924376,0.009647814583196529,0.18561797659653528,0.4344389650216109,29.762585626372218
0.6286247508730366,5.357337937328505e-06,0.00097900713438015,0.6501185474227827,59.27615985488078,0.6295987581957596,3.0317778458345163e-06,0.0006384665237986197,-0.03796395131593616,59.459641183145415,0.628604963921938,5.973003332648643e-06,0.001398934092813775,0.045759027394354855,59.272520077591714,0.4581146997383741,0.0012779531562603925,0.010422854917261859,0.1522038900688518,31.67077673773989,0.3954361939216435,0.0030015711058046517,0.012552241218459326,0.2802276287565575,23.90270161425024,0.4697834634027129,0.0044830977043958465,0.014663553755788485,-0.3780870723015011,33.77245693095219,0.5894467623522623,0.002103221559118625,0.01077965593528496,-0.5421989675198751,52.43050285944335,0.6137009590484003,0.001345458421578307,0.04507842429856479,-0.5967210989384921,56.69480337535414,0.5783200645458102,0.0019326086567646192,-0.022091324361646847,-0.2700739015055214,50.45607324829842
0.6284701878969788,5.410685602283823e-05,-0.0025877205958879657,-1.4525759409920709,59.254278482837,0.628383284922485,0.0002828161000275622,0.00550033204873257,0.8222126782789103,59.271972514400034,0.6284389747865674,5.921036933401396e-06,-0.0021391638878628387,-1.1572892341093997,59.24121398912186,0.3965611563553977,7.004146652069999e-05,-0.0017535013631906904,-0.6031594778824648,23.599548788001105,0.6058542087980121,7.924156483529408e-05,-0.003647062367663212,-0.4932917001202102,55.07070534090022,0.4140305033589997,0.0001180854715519126,0.0019000451097553888,0.08388431538580632,25.73078339201724,0.4993471914764005,0.0003519029809891775,0.0014238289209663744,0.2255559186752255,37.454576189472725,0.42375822000506586,0.00020506318395921598,-0.002475281631177606,-0.2087207266127098,26.966208767689185,0.4843190484507406,0.00014969651772319716,0.008532791826079522,-0.029137506526693637,35.20704588497538
0.6284997947812504,7.128821690552479e-08,-0.00035534532291647825,0.021690809969623387,59.2518094279554,0.6285122704178441,2.524059287965805e-07,-0.00020090644005255062,-0.6751045785178145,59.25418871835237,0.6284606448592328,1.1797811768380112e-08,1.587253396917454e-05,-0.08148415028517354,59.24441907840636,0.3705928591847634,6.212848318185223e-06,0.003394705032682355,-0.1323394504723251,20.601785806210092,0.5514823880404212,8.741862327272788e-06,-0.003368299573749289,-0.15336633909659358,45.62122618530163,0.44198635700792027,1.4370874399981125e-05,0.009305797633044066,-0.3305821409827757,29.304932227455517,0.5921741383310956,9.43960088917878e-07,-0.0005814743629454223,-0.28075713379868866,52.60067216627957,0.4597321489720635,1.1956712602593941e-05,0.016489716061951043,0.6839144534019466,31.70482886994852,0.5394748189029722,4.231369740355511e-05,-0.013610867191136578,-0.04590888294503771,43.66126677547233
0.6286298072298542,0.0001677819321225611,0.01578499638684461,0.4865170103331384,59.30131468856278,0.6285107906944486,1.7591270021468792e-05,-0.0007230149832697652,0.4025762171380541,59.25649320213735,0.6284923022463199,6.737880186392458e-06,0.0021023342060987327,1.5827830856669602,59.251390041579725,0.3967746312071935,0.002441441820822445,0.052728985984918035,0.5006714090573136,23.97829102674321,0.6059543235591328,0.001640100562764646,0.012351532699307666,0.6890643820552705,55.321471319852854,0.4138803569584552,0.0005450596901745648,-0.032394723140498634,0.35512263252519943,25.77575637524475,0.4994051442812128,0.0014498896051153211,0.008476794581028513,0.2714962259435104,37.626858271343,0.4236333324912537,0.0016628721265194019,-0.00960738289533053,0.06306518958657617,27.167548006498148,0.484398684144698,0.0017376604198854097,-0.03775387125540325,-0.11204916186779093,35.455224182730156
0.6279751341495554,0.001067899931146798,0.041495454939538434,0.19362780150408385,59.31203245626367,0.6285877995649819,2.0190465310089417e-06,0.0012373851816724901,-0.016922140191035166,59.268694102225005,0.6284483002912621,1.0848681602128776e-05,3.109867924788734e-05,1.3179798987377658,59.24370637440517,0.44505425151336186,0.0011513029801329194,-0.01791743385107053,0.4528124161184143,29.88253716255761,0.4654399532027087,0.0009241388899701508,-0.01732484459946026,0.06261010211420308,32.6328492002065,0.527688650246342,0.003647602341391104,0.18881117598990613,1.1858977883133248,42.31178948868823,0.4484379530023302,0.002755355235834477,-0.004813444750849383,-0.2031130961016137,30.575037584077357,0.5239320249858288,0.002405081809702665,-0.0347924042135368,0.7341371682486878,41.53407221050836,0.4802624176189277,0.0015363837005848654,0.03497899411264649,-0.2079180664905415,34.82671963796375
0.6284523166134138,5.4936301794504454e-08,-2.751702728553962e-05,-0.519890180571024,59.24285532402397,0.6284924228832247,0.00015111792238707526,-0.007511267107577323,0.1483794778013653,59.2729254136796,0.6284582257009446,4.964056166318512e-08,0.0002168601534063841,0.5151484398968954,59.243968614120604,0.5691697426906633,0.006188847629674678,-0.011875168657658364,-2.013280210160353,49.515267696004926,0.4151627949370585,0.0010861129990011873,-0.008442750674134247,0.19861370451451105,26.01585278184368,0.6169852107162411,0.0012438200201660007,0.005345061092247527,-0.07095585426932317,57.2859417193894,0.4932593447074341,0.00865986596865427,-0.02709185043684703,0.4974863686203974,37.78603720051058,0.5319303864960907,0.007982050169526305,0.017114111636748364,-1.350093354862368,43.631815886941475,0.5618715698418585,0.0072920459777794325,0.00853979812090383,-0.10730465389497326,48.4414640001723
0.6285533278971895,2.163364220207261e-05,0.002226796536186959,0.1954550114069673,59.265116314282885,0.6284839174901692,1.1775014458305267e-05,0.004114383303052249,-0.0921407973120352,59.25055965872274,0.6284862217022338,2.1144086243082435e-05,0.0031635950100769032,0.44275911279433694,59.25239009928261,0.538641905789357,0.00702212664851072,-0.0859924797277144,-0.06705449999862724,44.56656227148665,0.4838079249396994,0.0014512474186689618,0.012604629815949564,0.5016871486774758,35.32675210055035,0.4294458662296787,0.0058405116364079815,-0.038533890518172464,-0.15541651098570394,28.533799037088666,0.4497159349448973,0.0007635728671876363,-0.07772122610625197,-0.4391103535513762,30.45043567871542,0.5379606345086158,0.0013383132976362824,-0.029905052063365363,-0.2174275799094456,43.60965532348466,0.4345469150722319,0.0004910274349111072,-0.0028704629473980114,-0.6974196876118305,28.397816297620796
0.6282817185877322,9.245592558497516e-05,-0.004769070356785199,-0.4812166882328707,59.22446361964532,0.6286597628906889,0.0016670142469807155,-0.08229684610222532,-0.14962537020124794,59.53034974446671,0.6285913301009409,1.662086172643985e-05,0.004550416698550053,-0.6168272964051986,59.27153555010775,0.5025370198880947,0.0074161889344044685,0.1210798655178208,-0.7182862581612957,38.98653060492737,0.4594738100133073,0.002964797676032845,0.01448541427927308,-0.10530347664312016,32.109182166950625,0.4491484524500775,0.001218570749641737,0.05055608508023246,-0.0009222472751692183,30.44171689244156,0.517540262645002,0.002274569202799565,0.015691815979095414,-0.3164005874312777,40.51609933001578,0.5732153465921657,0.0022051084313105,0.035049623650044937,-0.0369671574737544,49.61493619158175,0.5093006190099035,0.007115081998512459,0.19398341829567067,-0.4171067424344869,39.96821529635899
0.6285611698303644,1.9857187024457112e-05,-0.0018054966285731,-1.0983564188331212,59.266330353644065,0.6285285649886797,6.67224974496035e-05,0.0002461571280351072,-0.30860256551106474,59.26716520312934,0.6284693079249033,4.250181112714479e-06,0.0006717669878908428,-0.6399448239029735,59.246683927526824,0.5388683545767708,0.002823312650328009,-0.06203196086960039,-0.07749967061612924,43.97753911954032,0.4839470310793494,0.0041137510810240465,0.028365253306194105,-0.1063952024702172,35.74365824465009,0.42916365013522056,0.0016359147474492,-0.04321783695191828,0.07222123136059075,27.870967086977835,0.4500911811207631,0.0007759691584226383,-0.0466918766297828,0.038283521492291486,30.50293010300752,0.5377495862010458,0.00017114750594978358,0.01279860640491748,-0.015559261043006424,43.4016935972959,0.4345282092803687,0.00011709640207455256,-0.01803947450337157,0.25117402827390073,28.33966206296969
0.6285099654443552,1.1740839597215055e-05,-0.0011046979508034793,-1.2405142155428783,48.984516429465636,0.6284490100863238,0.0003194182445051344,-0.001311495058076928,0.3251286187009115,49.01286007060569,0.6284501091084685,9.166843758920656e-06,-0.001715730498238477,-0.8606350731374854,48.97487043694967,0.3966400617413287,0.0035499034081264546,-0.005097033742975321,-0.4615531600829386,19.944732102892026,0.6059078488959587,0.002381070690107841,-0.0012857841530385938,-0.8913644774522701,45.81628754274554,0.41400892859152055,0.0021392468821135025,-0.0040961803271287725,0.5101925468091221,21.51714809273381,0.4993650751476018,0.0016194691999798848,0.0042951290149616525,0.9089672857054883,31.1205140179666,0.42372368008608624,0.004045088608871648,-0.0005323736449986405,-0.20016109163014525,22.760723775037512,0.4842722454258835,0.004186812474694493,-0.00033602544107638743,0.4733171358084256,29.59540928792599
0.6285502558470575,7.495375623367855e-07,0.0008625125635504105,0.19889982480849008,59.261425299906996,0.6284232791057665,2.5514257252170944e-06,3.300516514348484e-05,-0.8313784961817772,59.23775282073966,0.6284617964560884,3.645476702190135e-07,0.0002049044533847244,0.20129155947789554,59.244688758324926,0.5384875885178365,0.001539528679339232,-0.02074194208880681,0.00033108345970582595,43.72472222138475,0.4839815001439128,0.0012456553564637262,0.013497468763406463,0.040455504324905495,35.321316520345924,0.4294222445291417,0.0005334079534925373,-0.01477809869390251,-0.012001280609100265,27.739997399537287,0.4499104161889087,0.00023739915618991631,0.0014831196224129872,0.03635735338630927,30.398279863563854,0.5377421628046732,0.00012038606246732977,0.021534044137625163,0.007320555425809914,43.392932571984794,0.4344208920510611,0.00015866476219824978,0.02364372920997515,0.06663496416994252,28.331867767133488
0.6285177471223062,1.461563756363765e-06,-0.00031284485413463065,0.03036985454827943,59.255401540154566,0.6284632495497233,4.0227872349715264e-05,-0.00041082489604182815,-0.2854915340729855,59.250902358169775,0.6284708266509538,8.227717153921812e-07,-0.0008608600664961052,0.01715981651925509,59.2464595856856,0.3967930675925726,0.0030461343689226483,-0.07769969090622153,0.23216003525125056,24.07058479439805,0.6062739210704648,0.002641485031513602,-0.11935362607615695,-0.09539183728995354,55.52879137521897,0.4141024225729384,0.0010552958891555519,0.1360079346474598,-0.10306174505383923,25.87936154460065,0.5003629890889196,0.0010828743775641923,-0.09097036374519753,0.32026239721854066,37.715816409756776,0.4249528526465137,0.0020335307862170324,-0.16593052471845798,0.1336951293692454,27.3907351330078,0.4847672102181834,0.001803835942483364,0.08697640051233757,-0.00957124266462229,35.51865877083806
0.6285028361516851,3.994838259327058e-07,-0.0018534359748461073,0.6501246623923849,59.25243178069685,0.6285088350038356,2.1185581458039985e-09,-4.028566163438718e-06,0.21522781978307493,59.25350366734696,0.6284618075088086,2.1887057401914497e-08,-8.473482416349043e-05,-0.11227259757772537,59.24463978575736,0.3705457859623375,5.024613576759183e-06,0.0005007140018819524,-0.2212154027628911,20.596375591589894,0.5514421819448878,9.884912637476376e-06,0.00269206146680645,-0.08510286283361969,45.614744856203785,0.4419758930900727,1.2310132036553309e-05,-0.003130528243929453,-0.05511861422752111,29.303237720588555,0.5921927556609158,8.44329445479482e-07,6.789655923589155e-05,0.2562294360675449,52.60396478367774,0.4595996139572819,1.7380599460132682e-06,0.000181734368645492,-0.36734419464526336,31.68502974338435,0.5395739754365456,2.671386501817267e-06,-0.0013793785325261212,0.4761304800358346,43.67140928184846
0.6284536067564208,1.0393451201098332e-07,0.00015835242575246156,0.1689224775881744,59.24310586301539,0.628700529277616,0.0003728406560779788,0.0036853788784037,-0.2676912984280119,59.34520658484878,0.6284559245689034,5.320007418322448e-08,-0.0001196319547196456,-0.1634224562437899,59.243535295674356,0.5690661770689531,0.0007972643123786656,-0.001897178539362443,-0.4220793147153383,48.69423946512539,0.4154651419878901,0.0007069865181066932,-0.0069327227131144595,0.2899477258189085,25.997033622250537,0.6163819296549974,0.0007762781983871442,0.06168194308769004,0.09241937664808654,57.10466793234241,0.4917583799856559,0.0069398892255657565,0.146837882804211,-0.13956655505446608,37.30798913752681,0.5315220783399204,0.003944753249510673,0.11212041737678567,-0.2668039885747104,42.965126198595364,0.5613762916831423,0.0015566442073077392,-0.007764902198183599,0.08719166038963592,47.50344111647632
0.6284055879996009,0.0015654787272787554,0.041172817941443667,-0.2548097365716853,59.46729378473317,0.6285229223082939,0.0006156038848010763,0.033051741997177864,0.5716628668778116,59.347884558879,0.6284721823822952,1.2274751593382935e-05,0.003727492847305225,-0.6887005913521689,59.248421542242134,0.446152383062056,0.004098940546527582,-0.058479412026169734,-0.2429074974356541,30.468534478225337,0.4661589164511647,0.0028399104529131802,0.025868972749469143,-0.154064684986274,33.018766965522644,0.5276797523630796,0.002301634653742531,-0.038138514099346654,-0.5167192496154411,42.10983172150181,0.4487473106116956,0.004668882159078304,-0.17871071605343353,-0.16953043365945547,30.901785758887108,0.52196904052415,0.00353440528873422,0.04635761791794829,-0.9361270601404488,41.39437827787666,0.4790405772517515,0.004815461466602511,0.1117085840054815,-0.002720520696712141,35.13948495657745
0.6284478239865412,0.0005492646081050544,0.014932323442879312,-0.11257199053261352,59.32384054762045,0.6286090240181506,0.00021148228923195908,0.0287624799318964,0.4308746017344657,59.30390662265333,0.6284580441317366,6.283682982429951e-08,0.0004493845998503332,0.13733681790676328,59.24393634777081,0.4453462267852183,0.006294270482437096,0.20051227919082204,-0.1927074174655764,30.68783555865779,0.4642473156905703,0.0017890508517994488,0.08934883134674383,-0.13131094115621025,32.595404095803126,0.5283539419385678,0.0027762958164977225,-0.052607786571792665,0.23042194112021736,42.28735127096167,0.4484326239586592,0.002678173849281176,0.10936106070735152,0.19631269946663185,30.562820638110146,0.5205349493499702,0.005250691433650543,-0.10004184160262253,0.7357204664678773,41.42584804783033,0.4771756325873105,0.006255510343396597,-0.10773212873558173,0.10256366256925636,35.08655869143107
0.6284939391036592,4.7603441487623326e-08,-1.2702632505079414e-05,-0.41154053601653134,59.250701816417894,0.6285089234782996,7.363979634041659e-08,-0.00025430313085728073,0.09685027066065977,59.25353100610731,0.6284595971959692,4.8799920112910365e-09,0.00014375934894983458,0.3811295296470305,59.24422052327679,0.3705177657132328,4.344133857872721e-06,0.003442976754866989,0.019598092528644032,20.593159482313734,0.5514452232374796,9.315879254100373e-06,0.0043880327447966,0.008569897626809028,45.615163200723906,0.4419744290500959,1.2106904996877355e-05,0.0006802092889268696,0.14988234237281087,29.30301331896826,0.5921785173189227,4.3298632871000825e-07,-0.00014628435930941208,0.38006656311949605,52.60137397106861,0.4596263887508894,4.453326055543364e-05,0.0026374211500253537,-0.3695384904419603,31.69509804125033,0.5396266467926201,1.010740597330225e-05,-0.0008617232655219188,0.28913562179127833,43.68104369278711
0.6284640590177124,4.2552171059125866e-06,-0.005820584980787524,-0.17804483064859328,59.245695048901574,0.6288602628944521,0.0003448171866083515,-0.01689986445042313,-0.6139578985483944,59.371162297956545,0.6284017037214146,4.58849830862887e-06,-0.006265862119571808,0.17032515309582671,59.23398887224446,0.3965481448123232,0.0008781297340565952,0.003444431997738695,-1.2418062873736402,23.718406003488713,0.605724638507564,0.006705976330117061,0.009838840302345386,-2.5858778059779888,56.0345411274553,0.4141999254336274,0.005209500365668983,-0.007994012161659403,2.12733222151672,26.510452288868052,0.4992076784787336,0.0032362152986873485,-0.0055680803002104975,-1.2703486319305786,37.863442017323415,0.42389798454307104,0.005627435741008854,-0.011664159423375509,0.6210120028676485,27.791913120361976,0.4844875322067776,0.008599982590095239,-0.012617296092734376,-0.421675398600882,36.4906227354962
0.6284927481840371,8.804227683947544e-07,-0.002452225670865671,0.40841417587789214,59.25060136098101,0.6285216457204211,1.7472937436207847e-05,-0.003013177454704752,0.586991876208504,59.258522338544005,0.6284885780384812,3.810572649456065e-07,-1.0720295895549905e-05,-0.11507130825999398,59.2497406862573,0.5022336275735586,0.010009604433175712,0.04786383659855942,-0.6131769918213881,39.32722356039756,0.459373528679644,0.0032508983300645663,-0.013582507968712076,0.15470652120103726,32.13798967891778,0.4490962305025189,0.0022259932602162152,-0.007013917007493875,0.1352244010431655,30.584786633507942,0.5168314116575963,0.005978495080137523,0.0409052694987706,0.10530659510296886,40.95800197833805,0.5725690510465069,0.0017323100743736454,0.017221747308955704,0.4664260956421842,49.433411933526294,0.5058382689706912,0.0093729623636755,0.11425234511277947,-0.030019141563597838,39.77742454547744
0.6285686214689855,4.665867139827766e-05,-0.008780031889930151,0.2611121705873513,59.271728926351436,0.6286607509721374,0.00165496308678262,0.03520484760220588,-0.3100171553858671,59.528740471858356,0.6284672718645917,1.5598597534842046e-06,-0.0015240557819147238,0.14984982037175032,59.24589918984167,0.5701312587507348,0.0020563328405030666,0.041998135615681,-0.5376421678853033,49.06384142393954,0.4154000259518378,0.0006872114471862393,0.016212704462319042,1.3794322165737696,25.98597173974888,0.6172559590610928,0.0010252396006980916,-0.0026822564782837954,-0.4191863584061086,57.30349854996843,0.4928565004200163,0.003293724244524653,-0.0021049764843254493,0.16551266097613376,36.926894413374,0.5302901806593913,0.0039581170720694335,-0.005395216543603865,0.023206597345596856,42.77091079930384,0.5599217687345686,0.004371672600315648,0.08215033479615197,0.02046128474489442,47.678237282874186
0.6285613549817096,0.0001178898921684457,0.02379726019318873,-0.08843075111340891,59.280972140399506,0.6285246404450268,6.639866927956391e-06,-0.001007164187493026,0.41341987318114004,59.25747288715479,0.6285073440419906,1.3555250400148395e-07,-0.00011007352101877199,0.15083487243289168,59.25324242453069,0.5007531145072197,0.0046954476410089275,-0.03578820902970459,-0.5914531056426425,38.31267395181244,0.4590542957902728,0.0032823659404369924,-0.026844651322956936,0.37436469625714697,32.09869949765061,0.4486340044925044,0.0064818106003279655,0.04694485393101056,0.062444044089692737,31.156660277495927,0.5172059398529073,0.002609092981587801,0.020067432297950827,0.6617506467500645,40.51405248712595,0.5730218689846875,0.003971427584879351,0.0824517844657578,0.08520705752571447,49.844852060352686,0.507888118035817,0.004897461290171102,0.11108098242059766,-0.0036122144479360492,39.422272798530095
0.6285415762964404,7.812578982672895e-07,-0.0005608124301192953,-0.17212387746071367,59.25979337740893,0.6285123299999793,6.188033273381134e-07,-0.00018799924684420602,-0.3419536771850104,59.254254545996226,0.6284594786418785,8.512263936365758e-07,-0.001088869938264847,0.22922960136836595,59.24432427695591,0.5386332541696465,0.002425913131814985,0.10945501198068576,-0.10194615859088033,43.88032843124786,0.4841020738960888,0.0014321176192802342,-0.07580595675908902,0.011789901106714814,35.36660821784689,0.4296296506227171,0.0006403544751364968,0.027080141854901096,-0.08502230223116514,27.78265832092503,0.450205338495439,0.0005575472358424299,0.011681619547918356,0.1938883219933208,30.485801559609428,0.5377067347706876,0.00021504270706771737,-0.024630070393190984,-0.07455254874455608,43.401321256016274,0.4346090217842118,0.00048304905832770664,0.03935727182686788,-0.15571665138704402,28.404724582125247
0.6287125876017851,0.0007679543784144115,-0.02186156244449677,0.5713463427841129,59.40635287372358,0.6286054852586433,0.00013272012607669362,0.006544686405170253,-1.7908903972183896,59.291503713373615,0.6284680742790392,7.711649109851096e-06,-0.0015454112348723956,1.6858416584037441,59.24696709391793,0.4449302550309253,0.0019420682232424555,-0.02607158592856823,-0.1999336801184374,29.98380794154575,0.4646908927235906,0.0018918065239054555,0.03325337840269044,0.16614045054317106,32.67252303909903,0.5277179453545547,0.0018610376684912,-0.0012707756034247009,0.07430757091475464,42.05022908999012,0.4482127421144626,0.0012612111722779536,0.028373316316557092,-0.04306370310570437,30.322119793734288,0.5216981352051844,0.005523029684825004,0.022345961800625203,0.04881009880961571,41.648273064523934,0.4783299954419246,0.007677888586094999,-0.04126919105790389,0.033326715481409586,35.463943080248896
0.6285978756120952,4.406939286764656e-05,0.0039518250941614754,0.3371038267961474,59.27685972314316,0.6295365530179771,0.00045424775248504256,-0.03189033827591792,-0.05213949399117075,59.5151236529837,0.62855140880935,7.509481909266026e-05,-0.0001906077721763877,0.3964542163603678,59.27272015547759,0.4573643930626333,0.0004629890328006289,-0.020482667638547947,-0.21707678375216846,31.446313572119934,0.39597356785364857,0.0028885951302678233,-0.043976370569268286,-0.6487037803938344,23.949660640222117,0.4697544576176089,0.002902267023078205,0.01806058795182236,0.15608100961544927,33.53282535418073,0.5895388170603365,0.002947223080404859,-0.030441964782543462,-0.2539611897762993,52.57253876211546,0.614263332744294,0.003558006190307117,0.011460042631971869,-1.048620199814385,57.128059215474856,0.5786869546264661,0.00397460344147101,-0.01066581286226087,0.23884295741707895,50.82400463100722
0.6285197617453925,4.760463442433566e-06,0.00058364967808755,-0.21220784988296573,59.256272944725644,0.6283742110650388,0.00015970334728014355,0.028808519287171538,-0.004986805808957892,59.25191816848624,0.6284300147001153,2.533237811679886e-06,0.002885422971268148,-0.08106618197242932,59.239019958832,0.5386588146414439,0.002244083428924302,0.044193734736564405,0.01761060546347754,43.85736621954855,0.4836513296691789,0.0020864189689823445,-0.02143730661017945,-0.10567731781790422,35.39866772999307,0.4292612523655739,0.0007091259732398702,0.02063981035279511,-0.15758469529154062,27.745443187381873,0.4500347981269065,0.0005681867319249455,0.021671173489794138,0.11175898108955244,30.46435775182564,0.5378889311364264,0.0001191080971231611,0.010367876583011859,0.1005521017684579,43.416422442334444,0.4341886754279434,0.0006455926608605137,-0.008835870235414323,0.04452150911056433,28.374164186949024
