cap1_mean,cap1_std,cap1_freq,cap1_skew,cap1_power,cap2_mean,cap2_std,cap2_freq,cap2_skew,cap2_power,cap3_mean,cap3_std,cap3_freq,cap3_skew,cap3_power,accX_mean,accX_std,accX_freq,accX_skew,accX_power,accY_mean,accY_std,accY_freq,accY_skew,accY_power,accZ_mean,accZ_std,accZ_freq,accZ_skew,accZ_power,gyroX_mean,gyroX_std,gyroX_freq,gyroX_skew,gyroX_power,gyroY_mean,gyroY_std,gyroY_freq,gyroY_skew,gyroY_power,gyroZ_mean,gyroZ_std,gyroZ_freq,gyroZ_skew,gyroZ_power,label
0.628595600481,0.0161322694122,-0.136539291796,-1.35835681681,30.8287201073,0.629601624648,0.0162103755192,-0.135683344377,-1.36066736494,30.9294332203,0.628557644217,0.0161294303638,-0.136484210817,-1.35932490871,30.8249312547,0.458338451621,0.0057327295602,0.0751714932525,0.832884125278,16.179782205,0.39705947961,0.00521738694427,-0.0308294395465,2.37291994848,12.21030391,0.470533680599,0.00200386901931,0.00517915402264,-1.54717818625,16.7534321508,0.589561326655,0.00108926371362,-0.00306771642927,-0.815609900571,26.1492973564,0.61282842044,0.00252852044149,-0.0153917992017,1.00759965953,28.3540109801,0.577538218276,0.00266650362115,0.0380912196478,-0.244789188656,25.2136007857,4
0.627336486586,0.00521841482372,-0.367033265408,0.770854711564,29.9024927521,0.628322509489,0.00527294499766,-0.369824274603,0.771130462266,29.9993861246,0.627309177114,0.00521565785275,-0.366520836764,0.765487028322,29.899718958,0.457597215048,0.00350951390429,0.148803433329,0.411100221232,15.9643448704,0.395920755025,0.00530855429304,0.0527488847174,2.34019712394,12.1493263372,0.469841038935,0.00203628266076,0.065186006753,-1.51911681201,16.706980057,0.589258338149,0.00112767223985,-0.0214727047181,-0.753436457202,26.1253519266,0.614351703515,0.00257099929045,-0.00226491441384,0.900986724568,28.4973551184,0.578895894386,0.00269639795079,0.00374196363614,-0.315680249504,25.3335676886,4
0.632958041892,0.00118723591904,0.0287840492341,1.90486318072,30.1355466677,0.633963567737,0.00120603880549,0.0289196734353,1.88817941399,30.2324822629,0.632918388723,0.00118597878377,0.0286909493417,1.91046157412,30.1316889388,0.455960431807,0.00269067988562,-0.0201713815311,0.831279891979,15.7916039646,0.395129390473,0.00529979903792,-0.000948070281003,2.37940459089,12.10172777,0.469573739229,0.00202538550195,-0.0153599897252,-1.51076924954,16.6873407702,0.589476911476,0.00112961423514,0.00289551862752,-0.771358760922,26.1448186406,0.613842071967,0.00257585004556,0.00318215164424,0.929008390751,28.4507696021,0.578259774987,0.00270676017022,0.00213504842731,-0.277313629859,25.2791278052,4
0.625839718006,0.000334335399243,0.0544870713041,-1.95630029808,29.4003922671,0.626836193512,0.000344271455754,0.0534667312247,-1.9087972682,29.4947471,0.625805344139,0.000333083538746,0.0547226985633,-1.96377713265,29.3970728383,0.45870601179,0.00252176588432,-0.0426905574807,0.820871107738,15.9674510694,0.395882514152,0.00531552562215,-0.0328511321554,2.33673544437,12.1475712719,0.470604256857,0.00204054586345,0.0220158750259,-1.55907115476,16.7611278868,0.589613729809,0.00113124466746,0.00662042249995,-0.782014238928,26.1570383839,0.613980912856,0.00258135722157,-0.016273126157,0.917212510461,28.4639625358,0.579029115315,0.00271530100983,0.0142669219156,-0.320583938499,25.3465360035,4
0.629779055164,8.35202627178e-05,-0.0270252033126,2.04201377472,29.7528048737,0.630831483929,9.50359111883e-05,-0.0301314820771,1.5609544227,29.8531597411,0.629738106866,8.28626652533e-05,-0.0271828553486,2.05209950138,29.7488880802,0.457202710105,0.00250499225052,-0.0164967723384,0.910407029675,15.8629432861,0.395807127223,0.00536558578193,0.00925167983145,2.30708038804,12.1467994949,0.469933547358,0.00206430261396,0.00738582071674,-1.49475022819,16.7155738134,0.589739545871,0.00116196957906,0.0219737216937,-0.753567294373,26.1704406462,0.613931925707,0.00259992830771,-0.00516999081421,0.909282062164,28.4608254,0.578978574035,0.00282847041804,0.0266676839652,-0.306996197286,25.3505210003,4
0.628087174992,2.11816363457e-05,0.0155094665682,-1.98195650587,29.5885798953,0.628923748354,4.03343242611e-05,0.0169144576372,-0.905051453196,29.6688658333,0.628049312794,2.07806173398e-05,0.0154910875551,-2.01512808731,29.5849832133,0.457897402776,0.00251829999079,0.00500288879713,0.858881755829,15.9116065595,0.395695911756,0.00540777135777,0.00688230378605,2.28298063665,12.143319174,0.470442025032,0.00211440612528,0.0310419540613,-1.46740961216,16.755143472,0.589728079572,0.0012102850624,-0.00837514038416,-0.709508685771,26.1730016823,0.614558406367,0.00261792532051,-0.00820827357818,0.865311681256,28.5198790864,0.57811926946,0.00286183220073,0.00461129853488,-0.258642072518,25.278417312,4
0.628776432165,6.18686800175e-06,-0.0114897985738,1.35703569199,29.6524429517,0.629747471467,2.82222026201e-05,-0.0175982645779,-0.387280720358,29.7457292794,0.628752498131,5.88423833256e-06,-0.0105389805223,1.51325527184,29.6501632266,0.457785407733,0.00256205850121,-0.0448148939895,0.834685737001,15.9071532941,0.395686353019,0.00562932547887,0.0658475311758,2.15453211443,12.1591468328,0.4686366848,0.00230283413291,-0.0262271231111,-1.28983332142,16.6419354014,0.589746210564,0.00145957737585,0.113896680428,-0.236093774666,26.1930531914,0.613269586904,0.00267627655772,0.0293097890482,0.905689780685,28.4055134319,0.577355443453,0.00303907064865,-0.0754741296434,-0.254346541635,25.2253393344,4
0.628547550252,2.39439894474e-06,0.00469688518558,-0.376440215507,29.6305789051,0.629545253967,2.34280803619e-05,0.00693066127745,-0.511211557393,29.7262756874,0.628511810416,2.3859198501e-06,0.00447561380458,-0.135089928106,29.6272087455,0.458713633334,0.00319950521817,0.0561942086639,0.642673957792,16.0181281916,0.39843997456,0.00714009410233,0.132410163521,1.49544288497,12.4349479632,0.468227237928,0.00335575378401,-0.0746423489272,-0.695694815369,16.6910817553,0.58899103141,0.00158140071702,0.00316930347269,-0.170072042339,26.1353062842,0.614837851063,0.00273679546088,0.0705340847885,0.798413488177,28.5544415966,0.577956396111,0.0032906355481,0.0459006790339,-0.265992928225,25.296026716,4
0.628580855406,1.3956445586e-06,-0.00477976329201,0.233611332018,29.6336451614,0.629604828298,2.04803469108e-05,-0.00867494385868,-0.518138449257,29.7316835318,0.628553630747,1.34983844702e-06,-0.0049536605373,0.939016282568,29.6310748924,0.456688891288,0.00351642628533,0.0130981746187,0.725272136304,15.902571302,0.394351573016,0.0073782518624,0.0342164545782,1.51577591271,12.2094778734,0.471145724775,0.00338980521603,-0.0206032800988,-0.779324597604,16.899217634,0.589312716405,0.00159982580678,-0.0660068442912,-0.185276863268,26.1650979384,0.612186209838,0.00283638053969,-0.0241056245002,0.837868550589,28.3177888236,0.578555222127,0.0033154350406,-0.041535925633,-0.291508055252,25.3498030718,4
0.628649201581,6.19657074794e-07,-0.00239441223704,0.741789574896,29.6400322533,0.629618483105,1.81369290747e-05,0.00372786098977,-0.69967887875,29.7327997028,0.628570967896,6.92213713099e-07,-8.87359251953e-05,0.228471292801,29.63266085,0.459956956945,0.00258265527058,-0.0892806789049,1.58696220802,16.0581466582,0.393612643506,0.00444351103609,-0.22248360665,0.208034536124,11.9486383012,0.468626227243,0.00264843267014,0.219801803932,-0.803782333262,16.6667745821,0.588396615904,0.00136751954998,-0.00579635013735,-0.429438029934,26.0669897673,0.616163914281,0.00255245305719,0.192635502206,0.955800551191,28.6632292209,0.582445142007,0.00238824435551,0.0461164593595,0.610053821891,25.6199058409,4
0.628589890262,4.64234066425e-07,0.000798014694596,0.291403033364,29.6344281138,0.62974356778,2.00147478256e-05,0.0192868165818,-0.308100868324,29.7447531784,0.628540530267,6.13723716954e-07,0.00260864581302,0.159278241835,29.6297852797,0.457972545284,0.0013875746132,-0.0246458583988,0.690197257576,15.8330944389,0.397726069149,0.0029551958522,-0.146967448623,0.311611071295,12.0826364491,0.469997489105,0.0017918034082,-0.020774407271,-0.093299423592,16.6999164346,0.588523784665,0.000607326623164,0.019282070911,1.23567587915,26.0219605539,0.611273176637,0.000699998751857,0.0288660477951,-1.08478193726,28.0759171433,0.576194644585,0.00126082768419,0.132271217783,-1.76156477769,24.9933213823,4
0.628585820661,4.44348713019e-07,0.000672166823422,0.310005017769,29.634042927,0.629463601423,2.12780665349e-05,0.00266893133197,-0.214115009754,29.7184064907,0.628534815463,5.70858375726e-07,0.00103471667845,0.40289702048,29.6292433122,0.456129310187,0.00171957792027,-0.12059035916,0.137873144235,15.731294837,0.39578061504,0.00264100391497,-0.0444417096144,0.158635172621,11.9436064328,0.469036682034,0.00182371078483,0.0709762388374,-0.0942752887343,16.6346102801,0.589013826813,0.000642384269697,-0.0906741248297,0.949355565831,26.0678330492,0.615737406113,0.000522183999679,0.0205746174899,-0.425103026588,28.4735831125,0.580335864952,0.00102250392984,0.0799587540546,-0.0837050962733,25.334894002,4
0.628602474084,4.17274773859e-07,-0.000708011953894,0.367195263479,29.6356111602,0.629623265307,2.16012119216e-05,-0.00396545450665,-0.289519606206,29.7335077059,0.628553081592,5.85250987709e-07,-0.00075370527968,0.454246799795,29.630966537,0.460189943571,0.00214147916319,-0.0107207616615,0.197251512978,16.0415782704,0.394996686838,0.00266225075066,0.0429096550846,0.202836780241,11.8986852515,0.469894411911,0.00184558272481,-0.0186387521286,-0.0831795921194,16.6966299976,0.59080694988,0.000718957812704,0.0633508563981,0.886706816383,26.2321667801,0.613787839915,0.000528730933679,0.00589543456301,-0.324171863927,28.2942895211,0.576207921031,0.00132537092693,-0.0223154787261,-0.154902271482,24.999245068,4
0.628696456813,1.41926246664e-06,0.000975373543991,4.6470813103,29.6445476361,0.629776635673,2.46866115594e-05,0.00875951547167,-0.0828389678658,29.7482226222,0.628644343017,5.04948601354e-06,0.0137430358812,1.22445814159,29.6399019125,0.456840599687,0.00252124267464,0.0541337141667,0.0868794036753,15.8393219721,0.394407000453,0.00303940933043,-0.132116500747,0.00856789751141,11.8916824409,0.472702213952,0.00296766959807,0.12247401626,0.723485131515,16.9781612809,0.587900322557,0.00105109181787,0.0436004177184,0.222014781615,25.9997899892,0.61348731703,0.00103159240158,-0.121364050686,0.427262036084,28.3038394494,0.578950487644,0.00169712553671,-0.0809823437209,0.0306567601741,25.2643623254,4
0.628653805791,4.38760654618e-06,0.00224974162932,-1.6281279263,29.6407452481,0.629637989029,2.67494357978e-05,0.0117197478846,-0.129867260224,29.7352792504,0.62848431229,5.75510403226e-06,-0.00306451188171,1.1087928558,29.6248656873,0.459854708863,0.00262696199823,-0.00263297795761,-0.0487268230137,16.0543716826,0.395833528564,0.00442689672465,-0.14873247462,0.403025142943,12.0789040328,0.472374455521,0.00475853881276,0.0394364632562,0.122293399664,17.0874538393,0.590320618495,0.00117054247597,-0.0269220436028,0.168238345097,26.2225025898,0.614891673733,0.00304305391107,-0.139776428416,0.630503481596,28.5820687714,0.578574128405,0.00247293672979,0.0662493836519,-0.599773734548,25.2890989724,4
0.628536822741,4.72866163599e-06,-0.000221406373979,-1.42860564897,29.6297402366,0.629338311772,2.22047473468e-05,0.00392343337901,-0.287970967985,29.7066464511,0.628582237825,5.91239606919e-06,-0.000796445344047,0.979179229785,29.6341097455,0.457612929021,0.00281890127785,0.0125443518206,-0.0306940683466,15.9143181551,0.396020827413,0.00446364477865,0.0635574290515,0.391863208772,12.0927468945,0.468530214346,0.00509586995579,0.0197881921482,0.191335380966,16.8411365083,0.58898191973,0.001173507378,0.0399152027488,0.250507348448,26.1043171786,0.613658562938,0.00328642103185,0.0273343657219,0.556178836172,28.4864575464,0.577841628007,0.00240354625857,0.00608977870523,-0.586349654744,25.2204334525,4
0.628629374113,4.80945191653e-06,0.000347877181599,-1.49532004183,29.6384726493,0.629473528015,1.73690332194e-05,-0.0176308680355,0.437976796542,29.7190544939,0.628568650746,5.9188282501e-06,0.00121154650926,0.991718253275,29.6328291458,0.457343710457,0.00287056436646,-0.0527805780195,-0.00622083344227,15.8996669752,0.39562293374,0.00440641718665,0.00296755902765,0.420529281478,12.0648877994,0.469822104391,0.00514278709521,-0.0168404574593,0.143317798698,16.9355269781,0.589830519169,0.00113644272464,0.0204837850076,0.187271739852,26.1765998624,0.613990132948,0.00336607624306,-0.0182493601893,0.534629865853,28.5228808938,0.578789252667,0.00236712237884,0.0131198737279,-0.654454963038,25.2999419812,4
0.628567434697,4.99777268838e-06,9.27869473102e-05,-1.35195500889,29.6326463323,0.629687095765,1.74621584889e-05,-0.00421529905057,0.453558539582,29.7392300927,0.628629899752,7.32791250194e-06,0.00732093986877,0.926627928006,29.6387085802,0.460282573764,0.00267311061271,-0.00166428590067,-0.0427837057142,16.0873137636,0.395778467097,0.00430338729275,0.00779758729772,0.424649236911,12.066495286,0.470391989636,0.00501409548831,-0.0515360361429,0.153568286399,16.9661898596,0.588161625507,0.000901172883356,0.00319683005799,-0.312967201338,26.0117441223,0.613549691815,0.00340978645646,0.0205879579914,0.548351040884,28.4855660223,0.579233839806,0.0023201389811,-0.0318370643399,-0.62033320674,25.3350783728,4
0.628576853643,5.30592863894e-06,-0.00070681589244,-1.21283214535,29.6335572089,0.629475881808,2.08819318416e-05,-0.000251299190569,0.154580194052,29.7195366963,0.628394925364,1.10129805094e-05,0.000970296323708,0.2167489058,29.6168286273,0.455210677833,0.00215620936406,0.0989189375318,-0.32423981382,15.7008165839,0.394183863894,0.00293607663846,0.0839724438329,0.548116175872,11.8708385628,0.473166736474,0.00403271099015,-0.0442885681472,0.143498740331,17.0899276512,0.589183052371,0.00109021590354,-0.144491887322,-0.397719878689,26.1159261669,0.611664791819,0.00377132130215,-0.0649157703037,0.441517400723,28.3391140927,0.577939393218,0.00216568801558,-0.0117027386681,-0.562261893318,25.2113065807,4
0.628623111584,5.47599836604e-06,0.000160585780414,-1.20736635513,29.6379314552,0.629673660187,2.11465691668e-05,6.64900410532e-05,0.0344131182159,29.7382337211,0.628634799078,1.25467613096e-05,-0.00272942387976,0.153799017211,29.6395567562,0.45405975704,0.00378505738955,-0.154871746729,-0.755333838718,15.7428639691,0.395625874762,0.00296371670322,-0.0860342930088,0.605706678112,11.9583024946,0.467802844692,0.00417275791369,-0.0153737144803,0.294521124487,16.7217466982,0.589551862067,0.00128797175702,0.0080378988492,-0.371220175483,26.163164765,0.614335534047,0.00398691177392,0.120231176132,0.523734161175,28.6006426007,0.579632886306,0.00249181931383,-0.0959471352551,-0.560006199059,25.3824658458,4
0.628592904212,5.55660085685e-06,-0.000154797946677,-1.15115578779,29.6350891304,0.629513675974,2.39799952438e-05,0.00817764966137,0.0655655197312,29.7233346375,0.628548532184,1.30967119093e-05,0.00115087003707,0.162705267299,29.631463455,0.459056347612,0.00464155820534,0.0125173949497,-0.391884721301,16.1484300784,0.395542373965,0.00826451855114,-0.158714799441,1.63202122548,12.3456070929,0.471346459574,0.00654831923061,0.102791825366,0.0743591412372,17.1471369945,0.588511096867,0.00155122565164,-0.00516992509463,-0.271758895899,26.0906890334,0.614288064263,0.00430180922531,-0.0899993638999,0.452764516347,28.6195708248,0.581113747218,0.00411915729261,0.0195318511578,-0.619755117287,25.6318066801,4
0.628587545555,5.55223699912e-06,0.000670468615993,-1.14585288772,29.6345835475,0.629493649607,2.24586213455e-05,-0.000689878388086,-0.252552071452,29.7213310551,0.628551413307,1.31122344718e-05,-0.000133286910205,0.160264864767,29.6317362431,0.456971352045,0.00470837756809,-0.0490202734198,-0.319001417668,16.0101311842,0.396824470032,0.00854552837335,0.0326736201707,1.51655143829,12.4425936008,0.467612419645,0.00683450033079,0.000775346100516,0.162402533811,16.90535615,0.589663784714,0.00157990549227,-0.00828574151136,-0.335981375677,26.1946664317,0.614446428627,0.00456474059222,0.0540936618808,0.376875505515,28.6536218278,0.578193685345,0.00445969686197,0.0299669340577,-0.53121392258,25.4031129007,4
0.628583186395,5.53679098825e-06,0.000528418280159,-1.14538062877,29.6341713889,0.629541059297,2.35606189046e-05,-0.00138466163944,-0.154282696389,29.7258893863,0.628543824864,1.30200630169e-05,0.000403923699717,0.16793942124,29.6310139678,0.460020327876,0.00427956087653,-0.0638676306965,-0.388288924648,16.1880901593,0.396087685503,0.00833729604612,0.0143894276247,1.60532577576,12.383369003,0.470030682266,0.00678300899601,-0.0541556188357,0.0863812131254,17.0716058361,0.589862801518,0.00152236432811,0.000681813815101,-0.317089375575,26.2080143064,0.61299253834,0.00454278245859,0.00409929070844,0.436437817747,28.5181548064,0.576706230217,0.00431500038749,0.0332696596192,-0.552421849597,25.2635657265,4
0.628601269794,5.52024940948e-06,0.000448714998275,-1.17379527054,29.6358752275,0.629576359391,2.3939203638e-05,-0.00395122533721,-0.185203852213,29.7292509238,0.628544570841,1.30009221564e-05,-0.00244318420804,0.167191442294,29.6310828833,0.45672682713,0.00384116249295,0.11073452151,-0.426566228406,15.929200621,0.395613754253,0.0082872357317,-0.0242547695051,1.63322567301,12.3515236357,0.468828041027,0.00677876859621,0.0508622638651,0.129685961635,16.9866087801,0.587870085412,0.00138929413544,0.0680291771922,-0.336229396963,26.0221505652,0.614850119028,0.0045253788803,0.0284929455614,0.358342895746,28.6879282023,0.580426289256,0.00404234527483,-0.0277747909404,-0.714486835374,25.5662343448,4
0.628694585374,2.27766085968e-06,-0.00298881383556,0.542318223842,29.6444346728,0.629579658728,2.05925332508e-05,0.00451643370531,-0.268823596239,29.7293148487,0.628496481947,8.51284799869e-06,-0.00505266462288,-0.242047904109,29.6262170372,0.459737970836,0.00364090399455,0.0653947054582,-0.451961951994,16.1213520327,0.399642970568,0.00824922756269,-0.277544891574,1.6582585994,12.589030634,0.47163078883,0.00477563193722,-0.0155939485843,0.297321454047,17.0360668363,0.587990445231,0.00113278329113,-0.0346024173631,-0.367238509932,26.0137832398,0.612797734676,0.00296591806216,-0.152200342321,0.321371344076,28.3835577084,0.578607598344,0.00413789123424,0.27782052429,-0.519216759408,25.415210416,4
0.628581514398,1.29948917767e-06,0.00363674301275,-0.166223463386,29.6337001804,0.629664007935,2.14426834302e-05,0.00463872746989,-0.254611957757,29.7373439753,0.628661953134,7.75166295124e-06,-0.00111622293651,-0.418722093353,29.6417624719,0.456948089846,0.00387276020831,0.128470601236,-0.43440889175,15.9467010164,0.396593422585,0.00744837635943,-0.00749481816406,1.75762288269,12.3476555634,0.467809140855,0.00382991306097,0.0801196479909,0.0159782813934,16.6968179866,0.587665264228,0.00161049338981,-0.0415175093758,-0.219799808178,26.0204612194,0.61582733129,0.00219798312703,0.0339514631775,0.0905178930098,28.6058983987,0.579524477142,0.0042382099876,0.0907784640349,-0.371475925886,25.5022740096,4
0.628591839184,1.53856504277e-06,-0.00300580317326,0.754609373995,29.6346913755,0.629551961038,2.51266717747e-05,-0.0107208727161,-0.291296423037,29.7270347472,0.628551454717,8.48310607243e-06,-0.000752629357608,-0.152169841504,29.6313975919,0.45784728513,0.00399231268627,-0.0765138183864,-0.404228711874,16.0172413763,0.397396866499,0.00779606655772,0.151615003488,1.67091587254,12.421229138,0.470127674657,0.00378080221208,-0.0970171838539,-0.0168717334179,16.8562816496,0.589778701366,0.00216223647173,-0.115254389157,-0.10836814312,26.2479242428,0.611172517632,0.00213006801924,-0.0221478525621,0.274516575348,28.1725135066,0.576965091531,0.00465156601623,0.0715971954043,-0.27558068683,25.3108696486,4
0.628617100452,4.13842895977e-06,0.00701452787217,-0.335693814389,29.6372656673,0.629830053688,2.98623816452e-05,0.00365223068616,-0.260918632045,29.7536520559,0.628672980197,1.34694279531e-05,0.00773747148778,0.167700616629,29.6432254399,0.459683612188,0.00480808756002,0.177096334017,-0.178386055176,16.203975228,0.39658340605,0.00960127565974,0.171837552414,1.19911956494,12.5063742454,0.470364087674,0.00421054871465,-0.00299690783734,0.0200308524533,16.9047587279,0.590233326694,0.00265244380206,0.0489771845071,-0.343563386854,26.3244343369,0.615048330121,0.00281936201291,-0.0325220020473,0.489257775957,28.5799664178,0.577131331202,0.00714821478602,0.102635014969,-0.531898435498,25.5100109033,4
0.628457016714,5.44605646412e-06,-0.00369319796278,-0.101152696084,29.6222696475,0.629372803045,3.13691162324e-05,-0.000970497273911,-0.28374559197,29.7105807056,0.628180662391,1.45429038902e-05,0.00510465903284,0.10430175006,29.59689702,0.455507861691,0.00536464244489,0.015472840239,0.02727141519,15.9585394456,0.395668162244,0.00985552321555,-0.0169740645298,1.2262876017,12.470805814,0.470877471708,0.00457073556231,-0.0683512604342,-0.101424237367,16.9676539338,0.588762337636,0.00289005515877,-0.103459885376,-0.232693890852,26.2119458482,0.612061627182,0.00285284190075,-0.0407767221475,0.581095533156,28.3075679608,0.577282473021,0.00714688536155,0.0167853741865,-0.521417813396,25.5229985411,4
0.62869805264,5.66551970007e-06,-0.00117394073438,-0.294289193893,29.645012353,0.629628788861,2.91471648667e-05,-0.00175192577149,-0.234529011741,29.7345877724,0.628692283917,1.24664424536e-05,-0.00747217457395,0.253729343411,29.644971606,0.456252139474,0.00494001129112,-0.100547873356,-0.112313426977,15.9780119437,0.396453395938,0.00958816928154,-0.0958684705903,1.25831913597,12.4976716631,0.469484287323,0.00430074027677,0.0454094783763,-0.0728943692631,16.8494169837,0.591461099173,0.00255292053367,-0.0785502493685,-0.321436427417,26.4258835071,0.615585383366,0.00253376621335,0.031767619099,0.736039805262,28.6084010158,0.579882498594,0.00708205083729,-0.065273341222,-0.619596567818,25.7438501751,4
0.628577686865,5.60741797945e-06,-0.000483627513707,-0.159143740518,29.6336580807,0.629608533226,2.80208087471e-05,0.00292638824892,-0.187845266721,29.7325914231,0.628558157916,1.13547824731e-05,0.00105434470331,0.339698528063,29.6322420951,0.457830877427,0.00300365268504,0.0371336032857,0.518255052798,15.9429537231,0.399814802848,0.00816333794624,-0.483651050909,1.99845070664,12.5929777512,0.46747870055,0.00339547440919,0.237739904477,-0.632265020876,16.6414902664,0.587578965881,0.00231115655133,0.0582202692679,-0.266665101873,26.0647036707,0.612837223567,0.00210431033224,-0.0741404562007,0.570720510502,28.3234286588,0.582208807455,0.00588529780431,-0.0815061190921,-0.504404271722,25.8580441984,4
0.628572816657,5.89690250296e-06,-0.00213990615456,-0.141910477104,29.6332203088,0.629522292988,2.69634271257e-05,-0.0070685906984,-0.170961977016,29.7243690963,0.62851594,1.20418125851e-05,-0.00214872455764,0.299297026296,29.6283126066,0.458081718702,0.00272300520319,0.0916768415637,0.363252463686,15.9394169607,0.398022948702,0.00419968201267,0.125264782125,0.207204481744,12.1924465459,0.468466438845,0.00178535571959,-0.0436824450453,-0.222152848665,16.5916766476,0.590256509615,0.00217380438029,-0.0422402752204,-0.358240056292,26.2910675598,0.614546483454,0.00171501896444,0.0170020105058,0.945224053853,28.4519649278,0.576449828659,0.00500923661201,0.13237690113,-0.647934941707,25.2927638813,4
0.628526698193,6.13002237614e-06,-0.000730409434464,-0.101024131414,29.6288893973,0.629626616301,2.56734493512e-05,0.00117104670987,-0.21330694986,29.7341255318,0.628473176819,1.26072012153e-05,-6.10603168961e-05,0.329758061757,29.6243229814,0.45505082977,0.00318629800393,-0.0151167551735,0.208178853788,15.7661303778,0.394223164819,0.00429578921238,0.0734675898233,0.237552275273,11.9737811777,0.471980405848,0.00197668945376,-0.0472731772138,0.219160540634,16.8536877824,0.588964559186,0.00222359068501,-0.0537421732172,-0.303589777325,26.180489609,0.613255643464,0.00192743527161,-0.0885742744357,0.847128005083,28.3488165281,0.57783741801,0.0048994970113,-0.0818383968118,-0.666313001416,25.4047689028,4
0.628612067643,6.44586109426e-06,-0.00196042489099,-0.158376435259,29.6369618627,0.629571775589,2.47105395472e-05,-0.00178693683908,-0.290544720181,29.7288751263,0.628583517096,1.31306858653e-05,-0.00212276768301,0.241637098845,29.6347645181,0.458212155119,0.00398260265027,-0.0355462135367,0.296280280336,16.0415910285,0.396060747593,0.00448324704456,-0.0473070489902,0.177243995357,12.0965689651,0.467989703259,0.00218608781771,0.0143944542567,0.168606196911,16.5878476752,0.590916600839,0.00296847868052,0.187252098411,0.256434010027,26.4083496084,0.613402398589,0.00204550270759,0.0687734791429,0.765436918122,28.3710548949,0.577819560479,0.00555275607034,-0.103977687164,-0.528772539492,25.4515622846,4
0.628590978641,6.56792762206e-06,0.00041845380786,-0.134157232795,29.6349824088,0.629586936868,2.52350623613e-05,0.00609515286991,-0.307462611002,29.7303457253,0.628567518411,1.33860194756e-05,0.00102774532196,0.243400197966,29.6332749556,0.45806064809,0.00455618121455,0.100934985302,0.197176200194,16.0736242095,0.397160143675,0.00466364213162,0.0977908756039,0.156523849558,12.175322997,0.47091018494,0.00289043610583,-0.0446152264247,0.633379743755,16.8456224428,0.587839029904,0.00357874224358,-0.0128179137779,0.212026415634,26.1814313069,0.613669065134,0.00244425718655,-0.103244638299,0.693411028696,28.4251041445,0.57885563385,0.00557010457017,0.10632125091,-0.566345152452,25.5427261012,4
0.628604060583,6.54490857015e-06,-0.000273618052415,-0.149093847097,29.6362141969,0.629839808621,2.75838522192e-05,0.0113990864565,-0.172354220514,29.7544050444,0.628573013177,1.33612698416e-05,-0.000879331288006,0.239772689206,29.6337912011,0.455845451643,0.0049395440137,0.120031268051,0.297386668816,15.9501569408,0.395638841339,0.00430958980697,-0.0136864261537,0.0866402981806,12.0586666039,0.469734465568,0.00320446416416,-0.0279117053115,0.345291246977,16.7859154588,0.588546818166,0.00336071795148,-0.0635293365547,0.169128590523,26.2277449164,0.613180807744,0.00219770665714,-0.00175680012074,0.820193819807,28.3619330166,0.576652388867,0.00500637672279,0.0890567389102,-0.686744367685,25.3100701965,4
0.628587048891,6.50266630187e-06,0.00268430146416,-0.127104016314,29.6346070498,0.629371161109,4.21646502003e-05,-0.00186561598114,-0.223305846914,29.7112245668,0.628569799256,1.32821347482e-05,0.00298332187103,0.248143361873,29.6334823182,0.456856626735,0.00440596826059,-0.0377294936786,0.379698671408,15.9798899557,0.396925560224,0.00429683395314,-0.0079462250999,0.0316809036378,12.1342082395,0.469222624553,0.00307051999883,-0.0724057080008,0.370668538671,16.7399588343,0.589718302249,0.00289810133272,-0.0993432925275,0.203760285457,26.2970351992,0.613423941605,0.00217458654185,0.028506504236,0.821417343847,28.3825893142,0.578253029752,0.00451416450008,0.0896800594631,-0.802707692726,25.4122906543,4
0.628566289374,5.89083134068e-06,0.00591673938056,-0.21752788244,29.6326044319,0.629834137832,3.75555131857e-05,-0.00546505226628,-0.223055101188,29.7546071963,0.628600236109,1.20644798675e-05,0.0103066087042,0.216695538323,29.6362620342,0.458586507302,0.00424302793074,0.103940115115,0.350408122764,16.0866029178,0.393188528768,0.00388735181653,0.15457855244,0.0372743001943,11.882455471,0.472011112934,0.00276886161209,-0.00416468726016,0.356903300568,16.9144825643,0.591998323673,0.00211192823373,-0.0240286475243,0.619840794313,26.4409338317,0.614486210839,0.00194488001778,-0.175342116868,0.791113285626,28.4634188697,0.575092177337,0.00340570183675,-0.129253519665,-1.62805806503,25.0568478685,4
0.62842980018,2.60040043339e-06,0.00200149095852,-0.640141782244,29.6194934612,0.629241195544,3.92736045344e-05,0.0138985159306,-0.337211352797,29.6987424094,0.628353364426,6.33597938298e-06,0.00551841155529,-0.684071166064,29.6125651564,0.455400251595,0.00319896694594,0.0237847003302,0.125410063886,15.7909277405,0.393678258249,0.00180111534983,0.0499635123803,-0.237009532154,11.7569753623,0.470097738545,0.00219130610056,-0.0677616280682,0.739275241794,16.7365479353,0.587391116127,0.00183582121212,0.0228011759099,0.883392374557,26.0129750176,0.612686666291,0.00126319359254,0.0668301046804,0.302064586975,28.2473476547,0.578491763002,0.00150618383876,-0.0108291626725,0.0765860936593,25.2104115937,4
0.628676618803,1.53241253169e-06,-0.00290131057139,0.264905790359,29.6426852258,0.629630049762,3.7947438672e-05,-0.00973023781994,-0.326877016462,29.7353580777,0.628630072555,3.32799569134e-06,-0.00533035164348,0.202551940875,29.6384288808,0.458651793067,0.00288207062025,-0.0276108660793,0.11205667341,15.9903832722,0.396249505563,0.00169242344808,-0.0198591244544,-0.383749049399,11.9012646346,0.470579491593,0.00201971399431,0.000925671391292,0.779970657186,16.7578381787,0.590245100749,0.00165645535984,-0.0259816388991,0.955996687711,26.2517736185,0.614739504913,0.00112030264031,-0.041775461911,0.382815611646,28.4257518129,0.57877955809,0.00148005342419,-0.0117117111437,0.0644724816377,25.2334572181,4
0.628564788193,1.20619859883e-06,0.0013507022454,0.0194300117966,29.6321162304,0.629580556265,3.76469222888e-05,0.00345102340507,-0.325476609394,29.7306616342,0.628555043478,2.38983938644e-06,0.00266157802724,-0.263933869329,29.6312850493,0.457557063491,0.00281966863321,0.0396808458745,0.162514502775,15.9105404551,0.39567680907,0.00167477371736,0.0179721014222,-0.351147546955,11.8659435478,0.469284156329,0.00199694404624,0.00207627443126,0.875118401905,16.6648453131,0.588990887277,0.00162297734483,0.016015426875,1.07035271764,26.1383702207,0.613750169486,0.00106305908334,0.0124202517836,0.460590020974,28.3303616629,0.578628867377,0.00147198638521,0.00614431917705,0.0750367492972,25.2197794547,4
0.628588267471,1.16928514901e-06,-0.00275733402768,0.0406001891024,29.6343272772,0.629536650189,3.73870032474e-05,-1.790480866e-05,-0.318932969344,29.726496183,0.628551901193,2.22699895798e-06,-0.00346437714413,-0.205678150639,29.6309767349,0.458075622348,0.00283035491315,0.0154460085742,0.134278413771,15.9469419478,0.396167084045,0.00175223455063,0.0295050060616,-0.326401850269,11.9007922428,0.469420787068,0.00201939162571,-0.0783901155106,0.85091605066,16.6761256302,0.589688962466,0.00164108527242,-0.0369740321113,1.00754913206,26.2014207442,0.613686200753,0.00105936668253,0.0146513665213,0.470647138777,28.3241996091,0.57801273617,0.0014966971099,0.0355630799719,0.12259773451,25.1681598242,4
0.628593392939,8.46589122553e-07,-0.000987582033027,-0.0421539291435,29.6347866711,0.629661599757,3.55720632578e-05,0.00277147699215,-0.393103679193,29.7381620983,0.628531187559,1.24103731468e-06,0.00164570129197,0.144313691182,29.6289508668,0.454882493923,0.00284067759488,0.100401810869,0.199512490495,15.7290663879,0.394056139171,0.00152853097941,-0.0239084210777,-0.424514117055,11.7591293538,0.471688962749,0.00192689595607,0.0136265114958,0.808937672593,16.8293761192,0.589045638843,0.00167431591153,-0.0132424900487,1.00316827641,26.1470067255,0.613184291839,0.00104729869071,-0.10988489429,0.405716700138,28.277123285,0.57752155737,0.00137710665218,-0.0835297134931,0.0857691509247,25.1167420843,4
0.628622436042,6.75056444103e-07,-0.00218286581872,0.618237440415,29.6375124863,0.629472355852,3.52257598068e-05,-0.000116952347434,-0.305702437714,29.7202652148,0.628564185623,7.7449861298e-07,-0.00227700308284,0.33555239544,29.6320274715,0.456931882346,0.00213365118304,-0.149259593084,0.150328002626,15.8168960704,0.39575878371,0.00140478060443,-0.152601613104,-0.0189076779981,11.850829881,0.468107488154,0.00159197271272,0.0513601578314,0.682759341997,16.5521525157,0.589029206487,0.0016094369969,0.0550531966662,1.10315192571,26.1407537949,0.615863970076,0.000753279548511,0.0422306961812,0.598325327602,28.5023749094,0.580926949132,0.00131239371426,-0.102299571348,0.111468014541,25.407826152,4
0.628610998554,3.34097581643e-07,0.000241801403291,-0.0748155304347,29.636408786,0.629553842106,3.49160282453e-05,0.00416995464984,-0.353462577418,29.7279367944,0.628574763983,3.27979872851e-07,0.000536201479455,0.494014571074,29.6329918142,0.459887113392,0.00143257647281,-0.081832176292,0.390526463088,15.9682224388,0.396126952101,0.00127846315157,0.0742748933112,-0.319490574457,11.8633484368,0.472650079133,0.00132938895674,-0.170772244406,1.01080148431,16.8532320806,0.586555357931,0.000803464527621,0.0436104275246,-1.31185845378,25.8629954688,0.61163430631,0.000480542659277,-0.0932567600807,-0.408139502072,28.0927995059,0.578829620648,0.000696152930032,-0.0170879067995,0.0154641829119,25.1797950473,4
0.628588053414,2.90753231081e-07,-0.00155187804564,-0.464900959505,29.6342420828,0.629559657476,3.59151635442e-05,-0.00868636903568,-0.332048243078,29.7285598962,0.62854940006,1.75853094388e-07,-0.00060792445801,0.118058101785,29.6305891368,0.45478420077,0.000867853167219,0.0633096799135,-0.747186056202,15.5763713297,0.391387745898,0.00116858924268,0.0612507209029,-0.721266380141,11.5753031769,0.472079074403,0.000496287709487,0.0506376664812,0.387881080235,16.7511242272,0.590504393937,0.000433661078829,-0.00612619738271,0.85480176956,26.1842488642,0.615985916163,0.000396482222004,0.027043779259,0.406337644869,28.4872383528,0.57709740468,0.000809712007857,-0.09850652546,-0.0165751418599,25.0380247752,4
0.628621139318,4.18464509038e-07,0.000738611732595,0.080734138419,29.6373712262,0.629779993591,3.4200653134e-05,0.0156632767613,-0.263263648672,29.7492438729,0.628567052271,3.01217534282e-07,-0.000312217777627,0.268116056173,29.6322627301,0.458288035795,0.000658022422514,-0.065713698448,0.0606852666761,15.8007879407,0.394397330716,0.00220829469641,-0.230279617733,0.376349284211,11.8296078933,0.467823448162,0.000825656455364,-0.0827744174358,-0.729799767857,16.4755069765,0.58899439893,0.000684384238394,-0.0365024589138,-0.192730748898,26.0692245814,0.613725762458,0.000555001036042,0.0436009935792,-0.315273127464,28.2905184395,0.581044325904,0.00122689137534,0.0411740699328,-0.322248593838,25.4117281117,4
0.62863520891,8.43664477662e-07,-0.000274125147393,-0.696765528892,29.6387293723,0.629429505444,2.47903250107e-05,-0.000388257782918,-0.618453645944,29.7154471583,0.628596410313,5.71978351879e-07,-0.000227606752725,0.318337899553,29.6350508558,0.456903581894,0.000824195926043,0.0120832972022,0.0220817286649,15.7180567346,0.396214334688,0.00331374260295,0.124841681088,-0.402016886626,12.0191518785,0.469433826602,0.00206960397597,0.038149095702,0.968641868637,16.6807595111,0.589743199344,0.000705172701571,0.00879135236038,-0.241451871,26.1369608678,0.61416016053,0.000698455927119,0.0129798514287,-0.271000780871,28.3411384473,0.57575692912,0.00161805646904,-0.0488242135408,-0.323465128885,24.981939286,4
0.62857981798,9.13311658184e-07,-0.00019408533639,-0.58744667556,29.6335116529,0.629540066312,2.4576003077e-05,-0.00142423417522,-0.698165378161,29.7258707561,0.628545016915,6.4130061417e-07,0.000314798173921,0.194598723984,29.6302103279,0.457820055668,0.000837568750218,-0.0142341812832,-0.0541903520309,15.7819203404,0.39486252231,0.00342622836004,-0.0524995653832,-0.322169282913,11.947271763,0.469955562192,0.00210060559572,-0.017204048238,0.922229026992,16.7198120968,0.589355161444,0.000711955049228,0.0027881699444,-0.199517246907,26.1031476477,0.613998982851,0.000702197965275,0.00492304890795,-0.251149457666,28.3265689701,0.579738330346,0.00174974382213,-0.0198854788544,-0.447331218885,25.3367209183,4
0.62859914451,9.11019733436e-07,-0.00149669949956,-0.647814041333,29.6353337514,0.629457746351,1.77803924164e-05,-0.00379234465934,-0.470376100204,29.7175948322,0.628568573755,6.40486272896e-07,-0.000810821592771,0.117566016302,29.6324312894,0.457628481902,0.000838777855494,0.0058726626663,-0.0345063819963,15.7688566199,0.396110139883,0.0034547733571,1.07135157328e-05,-0.380451049108,12.0233964473,0.469848707745,0.00210651135377,-0.0013970102903,0.924993323696,16.7127174529,0.589472013881,0.000712554277054,-0.00159076826673,-0.212637648106,26.1135231527,0.613969779036,0.000702858933878,-0.00116568722067,-0.247544130034,28.3239282788,0.577929868972,0.00178305300505,0.0134876813559,-0.317743004585,25.1821659311,4
0.628614296805,8.93377067056e-07,0.00105874695981,-0.664601230095,29.636761171,0.629662802993,1.65332488041e-05,-0.000667003033119,-0.63228071852,29.7368668709,0.628578412615,6.48607924741e-07,0.000988890853443,0.089606158429,29.6333595574,0.457836373584,0.000841360793242,-0.00899976662086,-0.0555683773167,15.783321572,0.395496480815,0.00346603568535,0.0201074353937,-0.346921484564,11.987796616,0.469738147732,0.002108474983,-0.0122989687381,0.931028230189,16.7050717064,0.589209295322,0.000712400046415,-0.00358759401747,-0.182581630516,26.0902871305,0.613982118268,0.000705974103805,0.00836482750549,-0.246925524801,28.3252952001,0.578806477638,0.00179941244687,-0.0144256535972,-0.374243408359,25.2594269128,4
0.628622913959,2.13652119994e-06,0.00269419896701,-0.8430146897,29.6376656992,0.629511797322,1.99918049608e-05,-0.00880861624382,-0.435124002911,29.7228621161,0.628455501682,1.52597035131e-06,-0.00114975877318,-2.16278611326,29.6218367414,0.458654141899,0.000859809699718,0.0471986513896,-0.097962996603,15.8408975589,0.396426498869,0.0035510854214,0.0688089163668,-0.379184185421,12.0493279966,0.469069082338,0.0021141270487,-0.021770113106,0.965492590764,16.658380702,0.588762127097,0.000768000970687,-0.00815211700321,-0.164804363163,26.0548952447,0.613309618332,0.000796170374293,0.00775043483829,-0.322788430115,28.2700682031,0.578022725673,0.00199128911976,0.0925177928159,-0.280309470603,25.2056257495,4
0.628544165486,3.50659606213e-06,-0.00504279163677,-0.413511821318,29.6303420856,0.629780247219,2.57460471098e-05,-0.00269376216419,-0.224041547443,29.7486421916,0.628411949536,9.65145958595e-06,-0.0132608236593,-1.42574966729,29.618332582,0.455974840611,0.000853058824811,0.0371397186917,0.0525332545125,15.6566054983,0.394297209752,0.00353321285074,0.024689364463,-0.300632023691,11.9217294723,0.469859765884,0.00209849407008,-0.0255661715364,0.925661478007,16.7129035309,0.59043377474,0.000849675754468,-0.0621363150572,-0.0273900768968,26.2087791823,0.61453413945,0.000844666165018,-0.0163380981471,-0.285037840079,28.3864209374,0.577104549725,0.00217567261696,-0.0366433501409,-0.117647334851,25.1397243721,4
0.62868381009,4.3186739933e-06,0.00268299385916,-0.433775358755,29.6435695621,0.629418709795,2.96847289057e-05,0.00633536139779,-0.261439357772,29.7147900879,0.628751151768,1.4415333998e-05,0.00521286807263,-0.554223967599,29.6506675485,0.457616734886,0.00062327291456,-0.0432141201772,0.367671345751,15.7521028993,0.396123868272,0.00365795867631,-0.0898650292184,-0.355793866481,12.0392478681,0.469585172359,0.0022699298801,-0.006057297372,0.863846553019,16.7062423686,0.590795998309,0.00127840901143,0.0368528226662,0.490197950561,26.2725956382,0.61476982608,0.00108039631778,0.0336952803904,-0.441105979086,28.4255947569,0.579452361982,0.00220049731115,0.0500845352656,-0.236433853532,25.3452147865,4
0.628557097917,4.54110331421e-06,-0.000588820127113,-0.279795800854,29.6316379423,0.62955006748,3.3088333035e-05,-0.011201597354,-0.278201250519,29.7274450965,0.628441880961,1.60405977091e-05,-0.000838987954803,-0.38806376373,29.6216268352,0.457297551134,0.000772054926901,0.0550692849295,0.151008281116,15.7412108351,0.39623024293,0.00359901322158,0.01238976866,-0.414797055096,12.0412073843,0.469675018858,0.00229930655087,0.0103503808599,0.855756757385,16.7147454352,0.589010918773,0.00145842996641,-0.0200601467123,0.361761799939,26.1279635,0.613978153775,0.00104489205313,0.0303174739108,-0.417557458188,28.3500100104,0.577494732676,0.00216120381515,0.0252255723348,-0.193030982097,25.1724415525,4
0.628616114076,5.71582410115e-06,-0.00737268985254,-0.505779232402,29.6372893867,0.629721678938,3.48642178397e-05,0.00804136279134,-0.275870048715,29.7437844214,0.628610968286,1.78161925764e-05,-0.00725534547748,-0.470451698877,29.637699607,0.457165087688,0.00148009501439,0.0694139698249,-0.553628404254,15.7845208361,0.395982240236,0.00454735377628,-0.00107403071362,0.0401222583544,12.0966492731,0.469011396568,0.00326724161969,-0.0435471979976,0.376544400309,16.7396526381,0.591388879699,0.00178072759026,0.0152097443561,0.48926619968,26.3623343691,0.614913425919,0.00112405395701,-0.0194666283967,-0.544222474348,28.442069096,0.578659575511,0.00220142966306,-0.00815443628743,-0.262235992869,25.2764236199,4
0.628690953979,9.21846789515e-06,-0.003252278498,-0.997785478571,29.6446058378,0.630041675225,3.20734268266e-05,-0.00917481778861,0.0684247913883,29.7738118726,0.628607186053,2.0863114928e-05,-0.000589261047098,-0.614018304073,29.6375684473,0.458404447728,0.00158335252107,-0.029456665285,-0.61564572448,15.8772659138,0.393912592277,0.00377997990402,-0.00443928125251,-0.429381430928,11.9172532895,0.470382914374,0.00331972347439,0.0410234329758,0.486250189979,16.8401659973,0.587683791855,0.00177853970696,0.0950054233325,0.623315169092,26.034529879,0.614143852079,0.000926118531014,0.0265557222886,-0.432233010632,28.3564830997,0.580254481666,0.00186141628506,-0.051475506209,0.0101847233524,25.3898895671,4
0.62861240292,9.68693659557e-06,0.00142667711564,-0.919905358904,29.6372333162,0.629877953221,4.74686265235e-05,0.0235130129047,0.100910236806,29.7594803749,0.628580803361,2.12206880933e-05,0.000184744891669,-0.593236362262,29.6351073074,0.456868460138,0.00142527793671,-0.0232626837378,-0.772880256206,15.7601298075,0.394297452931,0.00291286472593,0.195437797009,-0.152319734672,11.8758380938,0.467238157198,0.0023234780031,0.166308756366,-0.243670986643,16.5452995379,0.589494095909,0.00152819900782,0.000452772666518,0.831809116039,26.1758334099,0.613632358374,0.000769386700855,0.0657483202464,-0.685876419747,28.2977849591,0.577412718165,0.00156180784358,-0.0596138324718,-0.183367496597,25.1209823129,4
0.628602329027,9.63140317152e-06,-0.000783085334301,-0.918054967296,29.6362793282,0.629546420376,5.12488626108e-05,-0.00103344278642,0.0452129752841,29.7284445715,0.62856290941,2.11041239748e-05,-0.000547772495324,-0.587450491734,29.6334115366,0.457675436607,0.00129431015112,-0.0159879843454,-0.763409056617,15.8057893467,0.394740153538,0.00196903839538,-0.0199406929126,1.05509557225,11.8321930024,0.470222092272,0.00195240243321,-0.0515541040244,-0.0168499969235,16.7276389846,0.589317738459,0.00152171468126,-0.00204995186665,0.852028237587,26.1597616511,0.613929751407,0.000703319679289,-0.0160004712349,-0.672963759371,28.320276131,0.579702505669,0.00114137102032,-0.0481505684554,0.226749570575,25.2885860864,4
0.628583059348,9.65158857689e-06,5.1911866394e-05,-0.896921358107,29.634463905,0.629559419983,5.13971694446e-05,0.000817253939658,0.0415552661726,29.7296831372,0.628555479141,2.11079110942e-05,0.000100098628926,-0.582367486262,29.6327112623,0.457784245648,0.00128860218673,0.00538673072512,-0.778803514096,15.8128377291,0.396574259745,0.0018739954764,-0.0314301742137,1.04485616696,11.9340114272,0.470062810946,0.00192274428938,0.0209052545737,-0.0146448162622,16.714211545,0.589472791175,0.00152470147953,-0.00738384520406,0.837878869568,26.1736907746,0.614161801388,0.000703234604786,0.00148125536434,-0.699198960865,28.341643232,0.578202952566,0.00099910642913,0.0321298698955,0.198546035895,25.1478329524,4
0.628569899793,9.71624878294e-06,-2.39741946941e-05,-0.876865407754,29.6332279218,0.629564866513,5.1265656201e-05,0.000454366054135,0.0415028338349,29.7301877446,0.628559166356,2.11397661395e-05,-0.000504625538767,-0.583728548353,29.6330612634,0.458864511293,0.0013979360347,0.0638686901595,-0.655926933162,15.8951952459,0.396323069707,0.00197701575841,0.00384575112181,1.01117889502,11.9266973348,0.46951894532,0.00195726401268,0.0160429087,0.0179094191682,16.678440538,0.589137407603,0.00154602099625,-0.00660831835561,0.846798675106,26.1456219315,0.613280733655,0.000719208553796,-0.00449258610205,-0.593501223383,28.2617158034,0.579228903167,0.00102891121381,0.000805725358023,0.143802935092,25.2390985997,4
0.628535880303,9.65257954261e-06,0.00477980771772,-0.857486484877,29.630015753,0.629508670278,5.10889276187e-05,0.00658037990051,0.0635914207211,29.7248680273,0.628513375743,2.1088201586e-05,0.00471607694497,-0.556551774777,29.6287402885,0.45734450592,0.00181506354257,0.0648255747096,-0.751704097057,15.8216144843,0.396064989663,0.00213889565814,0.0284971319327,0.925325237624,11.9233389815,0.469690689971,0.00198675038563,-0.0270884432654,0.00994698671568,16.6927203469,0.588375439002,0.0018030846056,-0.12027540484,0.617743303663,26.0973525524,0.612611123566,0.000935094149069,-0.0306635189417,-0.280329270483,28.2161261207,0.578110113951,0.00106380485326,0.0449522012712,0.253437010756,25.1445693481,4
0.628587066882,8.28765320107e-06,-0.00304958246434,-1.02404594169,29.6347408352,0.629760801638,4.55432053688e-05,-0.00511228453106,0.0540600606271,29.7482702432,0.628457916737,1.88303487044e-05,-0.0094790405653,-0.703065613562,29.623344929,0.458044086668,0.00184793455317,-0.00846658912641,-0.752375673444,15.8720760568,0.395738531864,0.00221585081906,0.0912704846023,0.947092930661,11.9096468808,0.469753161013,0.00198324037252,-0.0421017104589,0.00272324970799,16.6968622087,0.592416428865,0.00213341473952,-0.0320020923491,0.516770166266,26.4796645799,0.614502249212,0.000848928880901,-0.0599671062579,-0.389179155422,28.3837968087,0.576041402601,0.000869171724098,0.00293804455757,-0.00843803160878,24.9510960209,4
0.628699429983,6.75482306229e-06,-0.00245871976025,-1.44447412729,29.6452228514,0.629444922878,4.10653792173e-05,0.00515717398908,0.0238717728014,29.7181071584,0.628839286498,1.10876103002e-05,-0.00377248819042,-0.302172911006,29.6587341014,0.457966541692,0.00189022807661,-0.0304184928137,-0.73711301919,15.8698783759,0.395243036265,0.00238220860883,0.0730205545371,0.82859192793,11.8925627658,0.468223978197,0.00190217561219,-0.0531541706767,-0.0133180219958,16.5832880272,0.591138267421,0.00273451477423,0.148107895627,0.073109269308,26.410687934,0.6137083219,0.000733419801088,0.0811342271438,-0.301652071272,28.302115893,0.578075559582,0.000831787188819,-0.0605336604962,-0.0375605663898,25.1244036959,4
0.628540070331,6.14018702819e-06,0.00274960802177,-1.56957051206,29.6301508747,0.629472659435,3.61768195183e-05,0.00445112724392,0.138812522781,29.7203642578,0.628443030039,7.45511359314e-06,0.00897410016868,-1.53361208913,29.6210998287,0.457070614992,0.00180977325885,0.0314948423691,-0.78639589704,15.8024392528,0.393238092695,0.00290360901061,0.187838923338,0.473393176499,11.8125818828,0.470587863765,0.00184672654384,0.0181913272553,-0.0799126885621,16.7456280785,0.589778762155,0.00245945348255,0.163668220334,0.00746830248865,26.2699236794,0.614645139629,0.000572317581477,-0.00955300206934,0.0332093180272,28.3765000763,0.575681764618,0.00204654036402,-0.296927414596,-2.48603193442,25.0071560455,4
0.628611590213,6.01623939372e-06,-0.00160526088582,-1.68422996593,29.636885053,0.629656303553,3.39173203061e-05,-0.00556478094329,0.114143101692,29.737539427,0.628583449167,5.89765832979e-06,-0.00217984709029,-1.85828779255,29.6342228692,0.456210152905,0.00168471154846,-0.0849657020589,-0.859980935618,15.7342464256,0.394408353289,0.00372312584159,0.0673499142559,0.599059034343,11.9423574981,0.469143404584,0.00189279004743,-0.116982094469,-0.280253995431,16.6472315184,0.590848223713,0.00248306644292,0.0533746254318,0.0577513653092,26.3663686767,0.613572037126,0.000650172964579,0.0737618158456,-0.00291566287754,28.2834111551,0.579959391357,0.00235326950963,0.020486681305,-1.94269283685,25.4006091155,4
0.628717263276,2.66617511709e-06,-0.0061702944151,1.15460767566,29.6466020826,0.629575225525,3.18894756192e-05,0.00667454998884,0.107327186815,29.7297321658,0.628680866511,2.20007397025e-06,-0.00531458052606,0.946514489488,29.6431351992,0.457976010107,0.00106434778812,0.0518309986731,-0.647953584576,15.8094136738,0.396316973412,0.00279973062699,0.0503010992954,0.148527636919,11.9872158225,0.470664897016,0.000802539896114,-0.090826467548,-0.119204843748,16.6737963486,0.588250791386,0.00223478054335,0.0788200265683,-0.0624188259901,26.1182982777,0.613099672572,0.000484377420387,0.0157083126199,0.301615947703,28.2276845672,0.5767248035,0.00235028108686,0.0616013833772,-1.84450129345,25.1197832233,4
0.628605540394,7.2551099992e-07,0.00255664808591,0.110958364942,29.6359230939,0.629737412255,2.11323060925e-05,0.010746238655,0.988349355789,29.7442544202,0.628561250197,9.12775013649e-07,0.00254016351068,0.29969222872,29.631760939,0.457264341896,0.000983538273437,-0.00358688001574,-0.575274166618,15.75458271,0.394762005319,0.00266363164002,-0.00991192773047,0.248462031421,11.8848868046,0.470197275003,0.000574628002075,0.0150891899032,-0.89441197291,16.6239332787,0.589328111699,0.00213416528747,-0.0381813317231,-0.091518073722,26.2059999741,0.614229624811,0.000471105831983,-0.0121809261839,0.185794006382,28.3307142313,0.579185189575,0.00226445383714,-0.04696401103,-2.06627013855,25.3267308707,4
0.628566776286,3.32216098038e-07,-0.000577410179125,-0.222907326005,29.6322390028,0.629543991995,5.4638604692e-06,0.000789197014083,-0.588976846345,29.7248271649,0.628541622637,6.18143045287e-07,-0.000956608806332,0.758181565228,29.6298885966,0.458018767256,0.000985132691777,-0.0121782256265,-0.643545246101,15.8064891561,0.396159005196,0.0026493599209,0.00427603710447,0.172472707428,11.966699439,0.469440168965,0.000541285822879,0.00127284948313,-0.90135374791,16.5681105687,0.589625563444,0.00212342340409,0.00344631299598,-0.112710768129,26.2315062119,0.613875414343,0.000469610554163,0.00698287971221,0.235984475058,28.2979780062,0.578391994398,0.00224299635226,0.0216497734983,-2.05196492869,25.2562791688,4
0.6285914645,2.76957239431e-07,0.000681636099976,-0.217133566432,29.634562688,0.62967122327,6.87398083703e-06,0.00770881194815,1.19708352183,29.7369473807,0.628570255155,1.58036583156e-06,0.00801497346892,2.13934026095,29.632659372,0.45786491191,0.00100136275087,0.000743859129631,-0.61231987545,15.7971216604,0.395882878315,0.00272595817308,0.013696675607,0.186179813278,11.9559649056,0.469824836116,0.00059039603885,-0.0318448083186,-0.878032089944,16.5988425542,0.589358573926,0.00213029379019,0.00193776332028,-0.0956959105636,26.20840639,0.613456697824,0.000477142281528,-0.00839253745308,0.273875199552,28.2599925367,0.578321225634,0.00229466237043,0.0218932410216,-1.98835069774,25.2539630168,4
0.62854334974,4.74316117549e-07,-0.00237956367519,0.104542732039,29.6300407871,0.629467537974,2.32202169545e-05,-0.00501076515747,-1.23859465394,29.7189218983,0.628434687571,4.15555373811e-06,-0.00131793400421,0.873973109372,29.6200692516,0.457143082578,0.00104613048205,0.00477066733314,-0.558185501656,15.7508985018,0.395467405549,0.00275109201385,-0.0605171417508,0.19850974139,11.9331659729,0.471169913361,0.000850475408914,0.0626063755315,0.175698344736,16.7130167245,0.589545562573,0.00213638486941,-0.0251078563158,-0.108435745531,26.2253902565,0.613967369284,0.000641640949897,-0.0425618156971,0.232935820727,28.3191762212,0.578810935596,0.00233201301099,0.0227193706147,-1.96524998489,25.2992264002,4
0.628623500822,5.23657082051e-07,-0.000976055759447,0.44248464426,29.6376016845,0.629481009931,3.24498601147e-05,-0.00677505959079,-0.872484545476,29.7208769294,0.628642884236,4.80372706142e-06,-0.000732123579386,0.680067828339,29.6397461683,0.456710268572,0.00104678057954,0.0741136168167,-0.558153808686,15.7212819693,0.396329567192,0.00312795975248,0.0783559458408,0.135381815736,12.012253459,0.469982684199,0.00102141978224,0.0245265920014,0.0144800959061,16.6418643224,0.588604893721,0.00225681378155,-0.0347049180014,-0.10733904434,26.1511832883,0.613216718764,0.000609329858048,-0.0214672020651,-0.131931250983,28.2476962223,0.578628844335,0.00260923386409,-0.0441673114785,-1.53002293139,25.3039337682,4
0.628592220542,6.29360089986e-07,-0.00188311852868,0.504353308102,29.634660052,0.629729821557,3.94579087188e-05,-0.00686983316582,-0.504332383877,29.7448934971,0.628547490438,5.29286851785e-06,0.000348076567593,0.653356707509,29.6307877524,0.455259254205,0.00155186065406,0.10007537055,-0.214988560638,15.6594118289,0.39516716939,0.00316854283171,-0.0209478920921,0.137981890292,11.9462540518,0.471566946419,0.00125943889818,0.128289101982,0.607450575137,16.7713523501,0.590817989009,0.00233833669594,-0.0830171896184,0.0921392424782,26.3529791257,0.614631646253,0.00054350592246,-0.0494521687997,0.113297165567,28.3731239814,0.577959334652,0.00260489761885,0.0177550647121,-1.51283818618,25.2455368621,4
0.628572904083,2.511602501e-06,-0.00439419724033,1.18737208717,29.6329780397,0.629735898824,4.54980088778e-05,0.00352802065126,-0.494786433424,29.7459145227,0.628516891499,7.55691940022e-06,-0.00518487031743,0.658736862436,29.6280704295,0.457986052699,0.00268059974699,-0.0368996534199,1.11227295143,15.9297062163,0.393378520613,0.00649803193875,-0.0809329089332,1.33737606989,12.0868538994,0.471192938151,0.00443608903129,0.116688580995,-1.79131888241,16.9799794605,0.59069353599,0.00184579708275,0.149861022769,0.374081134801,26.3055029936,0.615597580641,0.0011194242704,-0.0180923964221,0.512392324465,28.5048659929,0.579806094294,0.00276650962151,-0.0399965933687,-1.36954322201,25.4178547356,4
0.62864558599,2.88961797026e-06,0.00180112347181,0.872970564536,29.6398592906,0.629532936162,4.66272601442e-05,0.00420444504086,-0.403877488104,29.7268292457,0.628605463714,8.15014301223e-06,0.00354836780711,0.505433527502,29.6364652864,0.45749882232,0.00275709209775,0.0399601007036,1.06055275002,15.9019127471,0.39587985268,0.00637447051605,0.0414681527026,1.30062082356,12.22577515,0.469074698828,0.00460358749976,-0.0211938326555,-1.62562735916,16.842995956,0.588525506444,0.00142070559772,0.0425627365218,0.720465689759,26.0823025944,0.613942721033,0.00130543156014,0.0163322600111,0.308171855511,28.3660267887,0.577790560424,0.00287300707773,0.0116893202308,-1.26972209964,25.2507474024,4
0.628572752834,2.98571739068e-06,-0.00181608810242,0.923361100909,29.6329988635,0.62958473088,4.61388244316e-05,-0.00243485382483,-0.430047591381,29.7316842748,0.62851159984,8.01009017727e-06,-0.000854682629043,0.592107484674,29.6276050817,0.45620094778,0.00264456994943,0.0408123833482,1.15830865437,15.8046460329,0.392150309841,0.00521448152716,0.0353732313769,1.75278022107,11.9195115462,0.469808948398,0.00457964604568,0.0988372754981,-1.67610653961,16.892927407,0.59036198189,0.00120772069247,-0.109057933961,0.74243618102,26.2289165558,0.614534263844,0.00121054194024,0.0114469503479,0.294965624093,28.4135072115,0.580430039307,0.00159171966302,-0.0788187608931,0.567930367464,25.3852145448,4
0.628621853376,2.96729489519e-06,0.000281394208953,0.846555549324,29.6376271705,0.629626796798,4.60656224066e-05,-0.000806492152616,-0.449395442193,29.7356515995,0.628574989027,7.98251865237e-06,-5.9868519685e-05,0.531547745924,29.6335794686,0.458292521671,0.00257017429155,-0.0262577322147,1.10561162684,15.942595554,0.396944852174,0.00481583211329,-0.0464421489371,1.88755112527,12.1737627515,0.469786052877,0.00435178543651,-0.00463263275635,-1.75819474534,16.8744522831,0.589331701939,0.000941562805527,0.0611115899668,0.593167605037,26.1180647659,0.613822036017,0.00118599727051,0.012380771292,0.355433531836,28.3460756906,0.578641285419,0.00116733735735,0.0512175366181,0.515876488499,25.1983132538,4
0.628593179683,3.02226955269e-06,0.00111631722167,0.872304720175,29.6349275637,0.629574266098,4.63179295871e-05,-0.000405297759562,-0.423497902293,29.7307092667,0.628568100829,8.05461508762e-06,0.00134320142935,0.531950464925,29.632935345,0.457034535544,0.00256985980969,-0.00583760337074,1.17678165139,15.8562121269,0.394295180693,0.00479272736753,-0.0230154821805,1.99964467796,12.014813539,0.470716497767,0.00436804696419,0.0085758669945,-1.78914140014,16.9412870706,0.588759020439,0.000863102282698,-0.00244461263531,0.805094496812,26.0616583801,0.613609072515,0.00119394711497,-0.0323732271912,0.364500014668,28.3270591269,0.578200461104,0.00112096055295,-0.0385775004198,0.607108589736,25.1566340725,4
0.628641510425,4.12319708247e-06,0.00358335140049,0.238280864715,29.6395662637,0.629435823137,5.17463411449e-05,-0.0121593567933,-0.324508004562,29.7180383878,0.628590531889,8.9030587056e-06,0.00276499998772,0.37203445483,29.6351130849,0.459335203266,0.00262767230238,0.0253412432506,1.01757791092,16.0186099223,0.395555563647,0.00489221759445,-0.0372988323971,1.90388367286,12.0968393969,0.469942956505,0.00448130582325,0.0421281544879,-1.68864583141,16.8950953085,0.590600353056,0.00105268817663,0.0389450715101,0.515103799258,26.2385572023,0.614411485983,0.00121144006531,0.00993334501187,0.296071956091,28.4022571229,0.579777864479,0.00116200005762,0.012316214131,0.469543063616,25.2966659148,4
0.628665556589,6.52648179205e-06,-0.00293347186693,0.748036134594,29.6420116127,0.629784596051,5.83796062699e-05,0.00254161280859,-0.30266098517,29.7514678976,0.628629285622,1.10909160027e-05,-0.00330489239244,0.507237991371,29.6389291334,0.458519802747,0.00317823186676,0.0370128616066,0.665988417687,16.0032198715,0.396038575974,0.00498346469736,0.0371495216171,1.83942862308,12.1322679121,0.468646973832,0.00479209496878,-0.00105498928483,-1.52381626255,16.8268639838,0.588578604921,0.00130128059699,0.0394598668913,0.124122969775,26.078152827,0.614491502138,0.00135608853398,0.0829825236513,0.344138979564,28.4203360165,0.57814126232,0.00134463911567,0.0950934235079,0.492131987425,25.1680522344,4
0.628610313948,8.35431933686e-06,0.00394611343099,0.405020313133,29.6369377297,0.629204103399,5.64903757935e-05,0.0270577016063,-0.337866542504,29.6965155679,0.628440675113,1.05746803061e-05,0.0081687753275,0.19739383515,29.6211086866,0.456682466327,0.00331629317601,-0.0474193813899,0.695012326133,15.8873213238,0.396523784054,0.00504469928575,0.0197416981643,1.80024402643,12.1656410962,0.470582889489,0.00492293766163,-0.0153840352091,-1.52271433336,16.9729165779,0.590033526344,0.00141227104095,-0.0599973756115,0.00500045463991,26.2149752228,0.612359380037,0.00146696718182,-0.0685146056814,0.373701355559,28.2323563454,0.576082839589,0.00154432820302,0.00956918159354,0.339921975525,25.0046381422,4
0.628576555929,8.76679352093e-06,-0.00446508553831,0.374442481971,29.6337852425,0.629730070814,4.37098058504e-05,-0.0135288467376,-0.0376237055207,29.7452316821,0.628554578431,9.26724942946e-06,-0.0070247990859,0.353662950023,29.6317501314,0.458048425928,0.00337189718377,-0.00949595679705,0.641106850479,15.9851474287,0.395196736907,0.00507297031797,-0.111415552127,1.8350758088,12.0889343682,0.469851310711,0.00471722703946,0.134399476157,-1.61844523163,16.9060938642,0.589093750427,0.00161882008401,-0.014354216454,-0.0224148952376,26.1471511956,0.61608292948,0.00135932801804,-0.024550641631,0.188618436574,28.5674534731,0.581059265977,0.00168237706101,-0.00885855887091,0.151871648,25.4467361958,4
0.628639497638,8.95978688542e-06,0.00109462807685,0.320005398573,29.6397343735,0.629758647781,4.20689559321e-05,-0.00304487941542,-0.00870353071179,29.7478096868,0.628581489285,8.81447324186e-06,0.00347605732017,0.323982797333,29.6342539214,0.455637844195,0.00348158346325,0.0553279128002,0.68139171335,15.828075556,0.396158030996,0.00618658689192,-0.132322225506,1.56708128588,12.2283963442,0.470009086598,0.00520432845675,0.0785493362857,-1.55144592137,16.9532609172,0.589358373802,0.0016999985544,-0.162728130038,0.36203127636,26.1765468508,0.615219241846,0.00161805710952,0.0207937439075,0.388539724288,28.5068398915,0.580790874374,0.00261883860307,0.111061892462,-0.179055344764,25.4926470384,4
0.628625347323,8.65677332871e-06,-0.00748557810157,0.4068193988,29.6383776485,0.629622443274,3.52440954138e-05,-0.0014560640787,-0.0372917637212,29.7344396437,0.628575625919,8.39663914509e-06,-0.00822494273904,0.373946715954,29.6336701637,0.455045356327,0.0016828116722,0.0211199386321,-0.466814169307,15.6544987874,0.397874317783,0.00571133871338,-0.362742869086,1.91612332435,12.2954370211,0.469059089498,0.00372407312097,0.302621135908,-2.00906111647,16.776813619,0.590199852469,0.00156722718955,-0.0141345612151,0.204775229575,26.2411647511,0.615244108884,0.00142387594604,-0.062769230629,0.78683919739,28.4947653337,0.578543516284,0.00271876000825,-0.0216876574894,-0.118128308634,25.3046332582,4
0.628682040075,7.00022766334e-06,-0.000767550204793,0.208314326352,29.6436010803,0.629569726452,3.29414679686e-05,0.0077802103631,-0.118255506218,29.7292907035,0.628656487057,6.0271804643e-06,-0.00141578036613,0.227512275998,29.6411194153,0.459067403658,0.00138134939945,-0.0389579702516,-0.513256884351,15.9079359382,0.39692219047,0.00290445848047,-0.0112635202178,0.695308261568,12.0309718241,0.468106860365,0.00175891628197,0.0161125901889,-0.819191937664,16.564462259,0.589319250715,0.00149566090729,0.00748944424714,0.202194238791,26.1579673519,0.614570318764,0.000924542644622,0.040506044517,0.494013670208,28.3956669086,0.57949227871,0.00241680506739,0.0577073326151,-0.281481060484,25.3646911563,4
0.628542358586,6.72955097278e-06,0.0018830638826,0.360182278345,29.6304102271,0.629446165458,3.22284156993e-05,-0.00385682375729,-0.0514231785195,29.7175705435,0.628507475545,5.59862123681e-06,0.002165438378,0.378070653527,29.6270378092,0.457125968424,0.00131315897071,0.0098958133218,-0.436515355768,15.7694850894,0.395082962571,0.00272495804357,0.0635115772921,0.785422752588,11.9084379437,0.470562565496,0.00157029749193,-0.0450304658913,-0.977223725605,16.7233866178,0.589630023181,0.00151058463058,0.0140843887262,0.175938574772,26.1865505804,0.613680046387,0.000845414512289,-0.0141863072896,0.693897479593,28.3078006239,0.57764507069,0.00231773285291,0.00802363934304,-0.182577660255,25.197049308,4
0.628587684062,6.77838155138e-06,-0.00229255596117,0.306621804113,29.6346873418,0.629533279201,3.55113448442e-05,-0.00104262808833,-0.116289429633,29.7260390611,0.628468599049,6.04281739075e-06,-0.00608627573471,0.252873415663,29.6234056678,0.458462308885,0.00131274986676,0.00403273766426,-0.541866050206,15.8612201403,0.396427605641,0.00272200129218,0.00633237950215,0.718290335903,11.9880415842,0.469456497354,0.00153006601486,0.000445887717139,-0.956384899427,16.6424301032,0.588967101283,0.0015934321044,0.0248714161403,0.176613126746,26.1340824552,0.613789094501,0.000829791913818,-0.00424254331312,0.704691415533,28.3166835412,0.578030222558,0.00232979327572,-0.00673617230964,-0.20541477924,25.2313250667,4
0.628595520633,6.739997778e-06,0.00102045491645,0.299091838637,29.6354234019,0.629619885448,4.18091399195e-05,-0.00839663852798,-0.179253964412,29.7346838877,0.628474117625,1.21603377108e-05,-0.00816825982588,0.891166705925,29.6243786043,0.456312343786,0.00139909165658,-0.0339368164051,-0.393172907269,15.7201044145,0.395727074641,0.00335776189157,0.101913538453,0.470851117832,11.9934682003,0.470646551159,0.00165269974395,0.0586234634556,-0.915217737918,16.7354129899,0.589418841708,0.00166567609863,-0.0333332524294,0.144843211336,26.1793528533,0.614395767275,0.00096545589512,-0.0552868763401,0.681443293219,28.3826056496,0.577310464451,0.00278466416328,0.00246865045486,-0.0682113796614,25.2026180754,4
0.628564534147,6.61208723463e-06,0.00679007578532,0.335080731604,29.6324923135,0.629567349676,4.15824150121e-05,-0.0106983511444,-0.153017950597,29.7297056821,0.628627427778,1.34737317382e-05,0.00759693865114,0.726197394132,29.6389302778,0.458952005546,0.00155095399573,-0.0354769933944,-0.335444136026,15.9125413503,0.396045111921,0.00374558546092,-0.0635170919858,0.252027379832,12.0410531249,0.468972353586,0.00174168045486,-0.00895108922542,-0.802171439222,16.6240144858,0.589461500745,0.00185154484946,0.104947078756,0.128667569546,26.1968788834,0.613670982194,0.00106785190926,0.0334205908952,0.517618159012,28.3234266203,0.578371289208,0.0030529524769,-0.0294870882026,-0.11724401462,25.3144195968,4
0.628532450366,5.56889814224e-06,0.00351702715896,0.627743308929,29.6293901857,0.62977392625,3.4821304022e-05,-0.0106012935272,-0.237900994282,29.7487166403,0.628456613335,1.29712494591e-05,0.00281982936075,0.936792616152,29.6227884858,0.459881296362,0.0016990232239,0.14268246485,0.0404135290892,15.9875382243,0.395968045975,0.00373139768816,0.0623065452904,0.249384390245,12.0354254364,0.471101984297,0.00227997785852,0.0604487439412,0.615850653965,16.8139993322,0.588301711935,0.00172739247751,0.0448415917967,0.156868665379,26.0852448632,0.614139443212,0.00120910146836,-0.0364262067885,0.440770033399,28.3770176868,0.577239859748,0.00306914730878,-0.0105991476677,-0.062560378923,25.217556077,4
0.62847254382,6.59872908886e-06,0.00713667385265,-2.82746875376,29.6238186811,0.629603576935,3.01245896874e-05,0.0159338375538,-0.390274524598,29.7322790263,0.628495117987,1.35120153453e-05,0.00727248813052,0.149265815713,29.6264583891,0.45741285783,0.00162399344593,-0.0430828475217,0.252417532958,15.8121647031,0.397020562327,0.00531756019248,0.104252795505,0.167568474588,12.2153989725,0.467713206188,0.00331726791701,-0.00392728630641,-0.403573824129,16.6521510691,0.590079206823,0.00168961660491,0.0345476629138,0.155139776369,26.2395419031,0.611999242552,0.00113256440023,0.080812957354,0.384277318954,28.174540232,0.576943686467,0.00313608081964,0.0315312105248,0.0144310684946,25.1968712822,4
0.628486585936,8.47563042848e-06,-0.00632466183904,-1.39431481374,29.6252813493,0.62950942786,3.11368470617e-05,0.00583398726192,-0.26703333752,29.723463109,0.628450438787,1.45844249809e-05,-0.00569484517438,0.288418925701,29.6223257983,0.459365410841,0.0016256402922,0.021923416104,0.0865683650552,15.9465409324,0.394551918117,0.00532025712589,0.0850986569169,0.232751786262,12.0690402341,0.470971812651,0.00343628483626,-0.0403577404972,-0.481722282401,16.8903687012,0.590387938733,0.00149542535965,-0.0183767608607,0.334674160341,26.2525053417,0.614226139572,0.00108585592892,-0.0592406666264,0.418695980427,28.3758846288,0.578208185287,0.00278225501159,-0.0555989365229,-0.0166777114681,25.2802397858,4
0.628690643611,8.58150393691e-06,0.00113858307375,-1.517754818,29.6445294336,0.629582672422,3.00971482653e-05,0.00742292191862,-0.30780218542,29.730302795,0.628644063033,1.46308460748e-05,0.00154160406089,0.157588898012,29.6405845316,0.457609267679,0.00148891260065,-0.0489743200897,0.10772684595,15.8156476724,0.397788771926,0.00517669699827,-0.104029526481,0.128693448094,12.2507686082,0.468671388832,0.0033347414606,-0.0125672496112,-0.418404207591,16.7207361713,0.589896678644,0.00137406432997,0.0231118651195,0.355172224163,26.200037621,0.614406297018,0.00101951209894,0.0566139106721,0.520589161288,28.3875762315,0.579533556891,0.00235183699909,0.138165431178,0.361374424696,25.3634717052,4
0.628535174316,8.40509353141e-06,0.00067938635471,-1.4362041553,29.6298568783,0.629346600912,2.6502188575e-05,0.00915485784478,-0.111415817777,29.7077469679,0.62851644379,1.46022722603e-05,-0.000107364862202,0.255500936387,29.6285495767,0.458602825809,0.00123379247278,-0.0190206811678,0.160505291424,15.865042031,0.397236040862,0.00339349348683,0.0116135748277,-0.170894445409,12.08585393,0.469486866138,0.00269117729473,-0.0329016573823,-0.246608973242,16.7304909305,0.588338894904,0.000974879892302,0.0498280109344,-0.552512384194,26.0328402563,0.61288406074,0.00076884587452,0.0157955231154,0.146960600913,28.2289099879,0.576375252093,0.00143332773936,0.0703081666111,0.250735278519,25.0216985946,4
0.628625354941,8.34315886861e-06,-0.000603637628126,-1.54216007289,29.6383551593,0.629710590148,2.50636549698e-05,-0.00150357014855,-0.240816718617,29.7420117613,0.628574881743,1.45841737153e-05,-0.000500995697557,0.209619398431,29.6340578757,0.457472450922,0.00120166613301,0.0152805196968,0.25039287684,15.7850015453,0.394386527619,0.00324932914618,0.0108292885879,-0.0723955971841,11.9060053444,0.470126491896,0.00265792986012,-0.0127122279964,-0.287839605841,16.7731056883,0.589463610234,0.000812048997763,-0.0298924902076,-0.578596899955,26.12014271,0.614722320791,0.000718057183841,-0.0319610193952,0.0403572854983,28.3944011075,0.579005265783,0.00123555090716,-0.0313856473868,0.392830156258,25.2349631025,4
0.628600766169,8.30584371056e-06,0.00112373273354,-1.52775083503,29.6360338746,0.629568785846,2.57849202854e-05,0.00341321890777,-0.196808349458,29.7286722925,0.628569326535,1.45988336802e-05,0.00145328893613,0.213946029828,29.6335351832,0.457324191897,0.00124556950873,0.0229320985424,0.223242350389,15.7780783807,0.39594136963,0.00321270463628,0.0157732094299,-0.14796770855,11.9954577569,0.469742472469,0.00273937416383,-0.0617440911314,-0.272318791525,16.7520629712,0.589229344389,0.00076323641046,-0.00425296703001,-0.624414792515,26.0958210161,0.613227417082,0.000700353377661,-0.0055805008939,0.182661403592,28.2554160295,0.578308310323,0.00119844106052,0.00640967418704,0.446487976882,25.1717222726,4
0.628592002048,8.4796240578e-06,-0.000740285379844,-1.47464975651,29.6352203701,0.629535267146,2.5339226326e-05,0.00289419806813,-0.199723282226,29.7254740463,0.628501345992,1.4649651386e-05,-5.85330840935e-05,0.264818756767,29.6271297177,0.455277728452,0.00207403653905,-0.0173406160375,-0.687932890374,15.6993144557,0.395039658257,0.00346557670127,0.0340081423666,-0.125959053763,11.9606775456,0.470578654526,0.00292072159064,-0.0282686621716,-0.280527678593,16.8244536549,0.586749550201,0.0012968358574,-0.083424088645,-0.808844219445,25.916593453,0.614147024527,0.000862950166522,-0.071679603929,-0.0692892240661,28.3521008925,0.580219459182,0.00149860685054,0.0599999197391,0.466484844249,25.359993468,4
0.628591687775,8.48464323633e-06,-0.00180253972778,-1.47102634614,29.6351911091,0.629469355121,2.14392780573e-05,-0.000217365404888,-0.248682087131,29.7189616843,0.628562526316,1.2850472458e-05,-0.0157258142282,-0.0165436549319,29.6327646466,0.459199728156,0.00241341048723,-0.0117868249719,-0.539926722544,15.9934216514,0.394423764004,0.00336313137654,0.130871852258,-0.142939132612,11.9166296427,0.470127713431,0.00293717151127,0.0660364752945,-0.256320761457,16.793855712,0.590926261972,0.00154919236017,-0.0314734034833,-0.471865722702,26.3041787663,0.614269000812,0.000936016883271,-0.0961397441524,-0.161715604043,28.3687456513,0.575436893388,0.00147233741207,0.0170954020141,0.0868238904766,24.9435243389,4
0.628540455432,8.65875864791e-06,-0.00266173330117,-1.38502137692,29.6303735567,0.629609703907,2.04343476665e-05,0.00255370551616,0.10840171439,29.7321405858,0.628689429974,7.93173892951e-06,-0.00219697517257,-0.891956454171,29.6443669007,0.455978567084,0.00248433675209,0.00455725031268,-0.504434771804,15.7775749426,0.394619128694,0.00274370999049,-0.104276163988,-0.119192399839,11.8823537941,0.467266731199,0.00286886242856,-0.0604405975622,-0.138100558802,16.5876606761,0.590182051691,0.00179684227182,0.0193381702818,-0.565627392625,26.2565803885,0.613780190855,0.000776422936425,0.0589833755845,-0.290872773678,28.3119144987,0.580855950724,0.0013886064262,-0.0328639338877,0.206283688327,25.4072795374,4
0.628412551302,1.53636964816e-05,0.00375255251555,-1.08744012576,29.6188120111,0.62966951331,2.6239162715e-05,-0.000334183294629,-0.169321825106,29.7382188975,0.628294760673,1.39517308344e-05,0.00361838083943,-0.994014924664,29.6076053998,0.459550039423,0.002487962032,0.0266752696865,-0.578549085109,16.0230770954,0.400488358616,0.00541618864386,0.0975356392497,2.11695979595,12.4301173637,0.468757088403,0.00434452227652,-0.212041510578,-0.636823245992,16.8014852431,0.589335289999,0.0017775928048,0.0651787314267,-0.557813227327,26.1802481704,0.612915957893,0.000959055890349,-0.0582111161753,-0.66447209292,28.2459179939,0.576073431764,0.00201304808519,0.0911768879369,-0.588640004811,25.0385104672,4
0.62855392212,2.05107469231e-05,-0.0106457972999,-0.351662281132,29.6325202712,0.629583454376,3.5546691821e-05,0.015795622426,-0.161127460421,29.730779907,0.628615080838,1.73233719109e-05,-0.0099614933202,-0.533058251461,29.6380509188,0.457159500006,0.0023008503239,0.0627054601801,-0.666812868495,15.8448735574,0.392190992617,0.00628450531169,0.229226715843,1.61237522778,12.0010864948,0.470962587393,0.0031994037292,-0.158130228578,-1.09946112637,16.8721877802,0.589614557229,0.00165411321566,-0.0676898230502,-0.43866847924,26.1958038352,0.613616813097,0.000935845398508,-0.00968832967916,-0.557074280302,28.3086720582,0.577891481389,0.00278683197139,-0.165413799922,-0.0782152579781,25.2531178855,4
0.628614393032,1.57173563232e-05,-0.00572799342994,0.0785406889368,29.6378672189,0.629381738126,4.36124502708e-05,-0.0135993826145,-0.144252403315,29.7123302429,0.628532508462,1.36418006802e-05,-0.00406007163283,-0.236952003461,29.6299930577,0.45839097014,0.00198041608735,0.0162514872938,-0.950733455684,15.9057219034,0.394942115568,0.00501799874039,0.0353124159423,2.11482107948,12.0697775055,0.470488248132,0.00242504854441,-0.0757079686374,-1.25046964812,16.7813929646,0.589769649176,0.00158403721484,0.00473086286033,-0.501480317083,26.2043366855,0.613814452698,0.000799564414294,-7.89748443952e-05,-0.718316509882,28.3167814423,0.57910372048,0.00267737962756,0.0126246965566,-0.181162373165,25.350210023,4
0.628644015351,1.39551000066e-05,0.000496705710699,0.0104211355207,29.6405300301,0.629676679338,4.25898645095e-05,-0.00442215432143,-0.259370110405,29.7401056876,0.628620553624,1.25560050652e-05,-0.000466967405999,-0.360880483462,29.6382141772,0.457182364288,0.00194226579338,0.00828494669596,-0.904016262568,15.8199062349,0.395821896676,0.00493606689784,-0.00208563381045,2.14951232091,12.1158919921,0.470115335828,0.00227406101612,0.0100446699395,-1.41323502935,16.7439126887,0.589324451407,0.0015857271281,0.00151085786081,-0.467392870609,26.1650919844,0.614394029683,0.000761074830719,-0.00916976832422,-0.790546576309,28.3673213157,0.578191289107,0.00270029892617,-0.0177872378674,-0.126743217943,25.2727096305,4
0.628524075708,1.37208413476e-05,0.00190434455776,0.0949598106561,29.6292038731,0.629725015344,5.31637836763e-05,0.0145989404472,0.0119521117854,29.7454537412,0.628506535532,1.23038609574e-05,0.000601655027178,-0.287679582766,29.6274453762,0.457871395828,0.00193554570802,-0.00774625389734,-0.955541330822,15.8666965162,0.39660472263,0.00503408978752,0.0569087762187,2.05751791672,12.1696705952,0.469616227313,0.00233979566996,-0.0321873544971,-1.31293804546,16.7135999512,0.589049855517,0.0016094811813,-0.00311624625952,-0.435539476157,26.1425815288,0.613142974796,0.000755601579368,-0.00443459040883,-0.674846017468,28.2517375825,0.578188703968,0.00272232613261,0.0132197990909,-0.126971853917,25.2741154385,4
0.628636742809,1.37064165022e-05,-0.00177108744668,0.00483908310513,29.6398258556,0.629396853082,5.85673537688e-05,-0.0167599549999,0.0193461711381,29.7148638843,0.628612528455,1.60792280774e-05,-0.00737408423702,0.0286570788416,29.6377181827,0.455699801046,0.0021257228856,-0.09326148014,-0.824501467773,15.731976644,0.395525302883,0.00507292662157,0.0179351802926,2.07833061359,12.1084164615,0.469773113201,0.00238422808174,0.0133801966396,-1.2929916258,16.7279412196,0.58997985342,0.00169901759357,-0.0533441528833,-0.429552722435,26.2314443601,0.615518518722,0.000800693663682,-0.00152176200135,-0.802173402561,28.4739798479,0.578737345152,0.00276698914846,0.0071329278951,-0.145138468305,25.3250257975,4
0.628604663683,1.39483643926e-05,0.00207693664156,0.0269887595652,29.6368189193,0.629765850327,6.05292203995e-05,0.00613870233359,-0.0790461140109,29.7498561301,0.628620759909,1.80633631901e-05,0.00441926390385,-0.030687228509,29.6386411731,0.45893717159,0.00250030417224,-0.0681527767594,-0.650532269117,15.9817720688,0.396639854041,0.00610144083893,-0.126463250413,1.64224656342,12.2507446581,0.469749071406,0.00266691780215,-0.0933826558421,-1.09025016842,16.7471661739,0.58521179037,0.00377893122305,-0.232678430019,-1.13125806794,25.9651038796,0.611648552375,0.000947463783727,-0.015234196424,-0.531720989321,28.1286586917,0.58117808445,0.00371397784637,0.0735822473016,0.106567121752,25.607431799,4
0.62861431348,1.39044920086e-05,0.000975623464637,0.0234031079297,29.6377255658,0.629460926521,6.08261320319e-05,0.00702515571513,0.0348637846286,29.721080485,0.628495185167,1.83258948417e-05,-0.000296939557398,0.052767856256,29.6268209496,0.454751556409,0.00249389309342,-0.106130585,-0.53888680331,15.6944714431,0.396448850476,0.00694479207875,-0.0890093716577,1.33803454046,12.3017914421,0.470990648904,0.00276846305866,0.0268163893424,-1.1490806585,16.842280618,0.588195351553,0.00667110248471,-0.234904267318,0.195306070838,26.441694453,0.616657361841,0.00125098029869,0.0241029603212,-0.118448066396,28.6125451855,0.580699921657,0.00484491435835,0.175454791514,-0.0581030134529,25.6494535885,4
0.628580701144,1.38033697566e-05,0.000307899284714,0.047684572744,29.6345487882,0.629568984356,6.14632067317e-05,-0.00379287658658,4.93763148029e-05,29.731331232,0.628586921736,1.83539165032e-05,-0.0010440415116,-0.00874794073723,29.6354720531,0.458647842246,0.00269989176614,-0.130277774574,0.186680648094,15.9766302304,0.396167370642,0.00845239220872,-0.122928246829,1.06886949236,12.3966209406,0.468790025464,0.00626838479185,0.090566785178,-1.00930015057,16.9461670727,0.591847144494,0.00655782215361,-0.0111424191869,0.108525274369,26.7565070228,0.614350933683,0.00162485460232,-0.00184287163227,-0.917733044352,28.4272694694,0.577439853807,0.00468145039493,0.0853734294474,0.0152440093963,25.3541861866,4
0.628623874694,1.37248218019e-05,-0.00134836799893,0.0134828334071,29.6386138245,0.629513420823,6.14036536221e-05,0.00575506063944,0.0234470215448,29.7260798951,0.628579585618,1.81533817563e-05,0.00182169640919,-0.0025485161201,29.6347655095,0.45708403211,0.00244536852609,0.0838590332184,0.174191820208,15.8503932016,0.395978916124,0.00851569861197,0.0225680452076,1.06587434718,12.3901093484,0.469374631728,0.0063550884319,-0.0461388135904,-1.00373389928,16.9937174122,0.589727412363,0.00601984576375,0.0237635422838,0.209554499359,26.5288501535,0.614413842989,0.0016125333671,-0.0289371245498,-0.916622985576,28.4321552534,0.579159603079,0.00448498311657,-0.00471725278724,-0.0202526163594,25.4888271885,4
0.628408330781,1.15331308426e-05,0.0100724108272,-0.232718560819,29.6181307163,0.629620523526,5.36934732971e-05,-0.0132015855724,0.0606723314347,29.7356235904,0.628342617907,1.57683898537e-05,0.0105583234751,-0.15893771307,29.6122502717,0.457536406586,0.00215196799502,-0.0528746444494,0.268442351523,15.859712883,0.39647795281,0.00843925049568,0.133253739548,1.0695512983,12.4141120665,0.470725785493,0.00626427877375,-0.0587291797032,-1.07311651918,17.0822640139,0.589986103431,0.00589968473947,0.0359935129771,0.204959515736,26.5428468389,0.613921179836,0.00159351464339,-0.0388392899948,-0.900990735658,28.3853612124,0.577035874911,0.00427266977073,0.0481215874472,0.0345307800282,25.2889576331,4
0.628576208447,4.21472321884e-06,-0.0100015485851,0.347954872198,29.6334156264,0.629605135227,5.12667758978e-05,0.0141637534951,0.0213186050928,29.7339907143,0.628600784402,9.24698549317e-06,-0.00950095733996,0.815247372821,29.6361052382,0.458224888903,0.00195485313969,0.043245762667,0.355445938994,15.8924127931,0.393947636919,0.00506686284118,0.226087430885,-0.00876115942527,12.0145533978,0.469917377736,0.00459970657059,-0.0548447889732,-1.18321785989,16.9020539286,0.587601895985,0.00577634535763,0.0228726399251,0.299945367674,26.3231486688,0.612739452039,0.00124300087634,-0.0355549364459,-0.98565212404,28.2507047712,0.576897562267,0.00292595483516,-0.105601301587,0.168981046101,25.1773304591,4
0.62867882639,1.49410310887e-06,0.00178548909539,0.482106427777,29.64289057,0.629201795331,3.77593724741e-05,0.00508194863361,0.0573535725232,29.6949116371,0.628595987255,6.96606644522e-06,0.00291825811826,0.802037985826,29.6354841284,0.455812273504,0.00304913843702,0.0528885407835,0.00409689112599,15.8079983951,0.395264665196,0.00426600658917,-0.121601066276,0.351609309843,12.033246154,0.469966709875,0.00462508942841,-0.010741351944,-1.17556968976,16.907409747,0.589109873211,0.0058328514393,-0.0768412473394,0.239847867355,26.4604142101,0.61422124004,0.00153305349809,-0.0392456230108,-0.641590099598,28.4085258376,0.580397142801,0.0024833500624,0.00804846944559,0.0948599494799,25.4483311575,4
0.628523741521,9.28881440192e-07,8.26631740314e-05,-0.28939723068,29.6282257614,0.629712787858,2.94323351265e-05,-0.00707461385146,0.370699880175,29.7425426322,0.62848741725,6.60629865617e-06,-0.00138136377573,0.964564873896,29.6252213892,0.459741655072,0.00319847408978,0.000364014888456,-0.159659929744,16.0888662883,0.397298731667,0.00427968536946,0.0996256721341,0.285487656562,12.1551678811,0.470638906682,0.00464721740717,0.0147937288759,-1.19493220273,16.9564676243,0.590952682831,0.00605866231548,0.00480268723639,0.182818708854,26.6402215123,0.612931167353,0.00158952487619,-0.00911027423621,-0.52185795624,28.2939710343,0.574940012948,0.0026945935769,-0.0350110561396,0.251311365911,24.9911013114,4
0.628592534083,7.19352532377e-07,-0.00195747811794,-0.199334360083,29.634696275,0.629530615692,2.73899728589e-05,0.00087018307405,0.446160622796,29.725186565,0.628581643686,6.66957083072e-06,-0.00270724683903,0.86019699279,29.6341097566,0.457906612543,0.00386205915164,0.0131254939394,-0.135943122939,16.011677313,0.392130237422,0.00488314140022,0.0106682455465,0.327013892348,11.8938116962,0.47114812029,0.00504405299625,0.0427656593405,-1.05159431347,17.0218012657,0.588751537174,0.00628048873649,-0.0113230458092,0.2209392729,26.4618841058,0.61560999134,0.00183834789475,0.0390257963016,-0.435695160678,28.559212352,0.579717016092,0.00340451754296,-0.0572403587232,0.328740131788,25.4573207042,4
0.628584497691,1.10611064921e-06,0.00200566433183,-0.656749605818,29.6339671575,0.629480385799,1.32791572469e-05,0.0042357208485,-0.64795451968,29.7193993656,0.628701424997,6.51804012092e-06,-0.0045644265195,0.879641680469,29.6453934694,0.45631345848,0.00412374048239,-0.0876541024638,-0.107702434097,15.9218047249,0.396689643819,0.00563281562048,-0.0761717181529,0.228695547761,12.2190288694,0.469626442932,0.0056692158884,0.0151654378415,-0.954417873868,16.9606966683,0.591957984472,0.00638395500598,-0.0253688862344,0.107378094994,26.753481824,0.614371577344,0.00208462628114,0.0306984879437,-0.347813709938,28.4631949734,0.579135275406,0.00466557359503,0.0143929231937,0.355449314531,25.5000774875,4
0.62861135876,1.01181887332e-06,0.00111322481263,-0.51266164733,29.6364929018,0.629586920943,5.51370670959e-06,-0.00269316494158,0.824930833373,29.728884841,0.628668301678,2.10859798211e-06,0.000587919871278,1.17700471537,29.6419435513,0.45890554472,0.00392694752624,-0.0898261755767,-0.210811869082,16.0851665401,0.398257927679,0.00609878696326,-0.0249099209706,0.0321032947343,12.3470135072,0.4698626837,0.00571510304043,-0.103369086625,-0.946635339891,16.98073824,0.590912133325,0.00654437285599,-0.0607220336143,0.102033903772,26.6725697896,0.613556689431,0.00200614175512,0.0182814043614,-0.309221842943,28.3823403258,0.577212968189,0.0048509026145,0.110793769702,0.390201320512,25.3470775919,4
0.628562774322,8.55155779374e-07,0.000437353910975,-0.743564613737,29.6319003763,0.629557417249,3.0655653914e-06,0.00056311783182,0.781904055119,29.7259174728,0.628487145392,1.1823709735e-06,0.00107768577181,0.291313636666,29.6247943897,0.458012757796,0.00353956016803,0.0259929007498,-0.215334423379,15.9951039253,0.397550012996,0.00489152633022,-0.0467588134133,0.089499955129,12.2154239109,0.471980087111,0.00525674577556,-0.0258395060971,-1.11871338956,17.0963893846,0.590543880082,0.00386886023999,-0.306686063257,0.677067853383,26.4419512305,0.615230268183,0.00183201821974,-0.0999686395321,-0.447539495722,28.5236905649,0.579052062201,0.00368024911599,0.148895102109,0.375509448192,25.41993524,4
0.628557971711,9.32852122697e-07,-0.00310017659717,-0.790673726481,29.6314533162,0.629354605701,9.57974855588e-06,-0.0126911777707,-0.955746238968,29.7072503802,0.62859252221,9.66396877542e-07,-0.00425485258839,0.552619246151,29.6347134367,0.455949305778,0.00305330271392,0.124675760934,-0.506631382958,15.8176771088,0.398791576059,0.00383127136942,-0.159578184783,0.354105433608,12.2111181665,0.464950403685,0.00386003597903,0.336692762641,-2.84929490644,16.499058504,0.589560370775,0.00171042570295,0.124325212504,-0.573231657635,26.1951788112,0.6141425363,0.0011404067753,0.0555312807152,0.464286255434,28.3722192184,0.577269842092,0.00282547707542,0.0841493122423,0.636535780635,25.2021205978,4
0.628553194896,6.70012077191e-06,-0.00622914884395,0.266417210035,29.63142972,0.629607907657,1.60489446525e-05,0.0149243277661,-0.124702056584,29.7316464257,0.628490260825,7.65246192546e-06,-0.00571421218862,0.137276184832,29.6255668785,0.45779836376,0.00248651144764,-0.0206674144531,-0.610382424656,15.9024524868,0.395354541256,0.00291157902672,-0.00115618932594,-0.290785939002,11.9383478449,0.469546339944,0.00159350064854,-0.0181222668211,-0.614031180283,16.6534514496,0.588584199996,0.00130669833462,0.0107987638024,-0.533379184502,26.0790477131,0.61420080924,0.00109303402563,-0.0136988475441,0.490021134077,28.3740820733,0.57847741282,0.00282308438257,-0.0308707603193,0.58151194616,25.30661703,4
0.628640189652,7.71017227824e-06,-0.000603097837825,0.177617801601,29.6397071562,0.629281463592,2.30457145736e-05,-0.00105861314889,-0.0528632811053,29.7013424144,0.62860874587,8.60046931558e-06,-0.00120234599849,0.0890828289283,29.6368080886,0.458027863651,0.00247920555344,0.0262622819224,-0.626386305531,15.917675502,0.3945776153,0.00315352559651,-0.0178941004704,-0.158369345803,11.9102229813,0.470284819633,0.00164598559631,-0.0544849550412,-0.66061893182,16.7093888024,0.586956028244,0.00186361817361,-0.0127474167355,-0.940986625233,25.9767111767,0.611925750419,0.00127582831349,-0.0548690087195,0.277165597269,28.1783955972,0.578909803139,0.00308113665697,-0.0806505884784,0.513998234696,25.3632461254,4
0.628573987159,7.90758593638e-06,0.000288321926498,0.222613237795,29.6334794614,0.629673595444,2.68385436385e-05,-0.00516517517394,-0.0662007096427,29.7386488122,0.628542394284,8.77733900502e-06,0.000482860506497,0.139204107193,29.630565129,0.456315188344,0.00258244751616,-0.0297153132533,-0.515534156387,15.8078674497,0.397942279665,0.00339741868294,0.107161466779,-0.182701727714,12.1282633284,0.469224552426,0.00181140024197,-0.0590560784966,-0.592236801602,16.6469196628,0.590196181545,0.00253254176733,-0.101894882814,-0.474176891852,26.312273044,0.615409411777,0.00167053103674,-0.00507706869115,0.518927768836,28.5282751045,0.578400661248,0.00332537007505,0.0908798798257,0.49923350635,25.3371267554,4
0.62861990595,7.97585223892e-06,0.000112720540192,0.177854172301,29.6378141748,0.629593425876,2.8341113702e-05,0.0067561004827,-0.0217364656689,29.7311883854,0.628551567805,8.81453284948e-06,0.000196024236487,0.129907741897,29.6314327797,0.453739924911,0.00597607194229,0.0227593036179,-0.860522123087,15.8832232831,0.395917527314,0.00641083861979,0.0695948982336,-0.464594006694,12.2307036905,0.468430481784,0.00733798453836,-0.100378972541,-1.30516695716,17.0000445757,0.589406526153,0.00370062025567,0.0364817104995,-0.319418904118,26.3288498793,0.614773441222,0.00257803357228,0.0290672721429,-0.434313741627,28.5367532868,0.578105279338,0.00375863929392,-0.0531127819984,0.553424945512,25.3435678576,4
0.628591924262,7.98777363934e-06,-0.000690361461341,0.207489930321,29.6351766388,0.629620254208,2.97239938399e-05,-0.00092180977085,-0.0589135222497,29.7338244137,0.628565594033,8.80592378774e-06,-0.00101448247888,0.115754925734,29.6327545885,0.457646136912,0.00544447209128,-0.078076477141,-0.885504847612,16.110889932,0.396558877987,0.0064539716569,0.0171038851594,-0.483643816288,12.2720146809,0.470693275467,0.00758268093422,-0.0659151178775,-1.29519667446,17.1775303569,0.590011497393,0.00378146394921,-0.112960888913,-0.316221521439,26.3883458615,0.613429112227,0.00233013160083,-0.0514115356938,-0.502690703818,28.394575418,0.577399877321,0.00375018480287,0.0223235148892,0.589049624374,25.2818100502,4
0.628615267238,7.92574352301e-06,-0.000463315434172,0.185161873411,29.6373730704,0.629584499879,2.99173536531e-05,0.00160568910124,-0.0409297896211,29.7304620707,0.628575475052,8.69584809367e-06,-0.00212627821888,0.109362524199,29.6336780805,0.45942071676,0.00502565176347,0.0429463431867,-0.941753035952,16.2019528546,0.393092130457,0.00619853482357,0.0506624721878,-0.429447921466,12.047798304,0.470512495066,0.0075196588582,0.0835798957419,-1.29526516279,17.1601053565,0.590224872566,0.00339372117769,0.0242138543257,-0.366056620535,26.3785403818,0.615709297538,0.0022309169737,0.00494451974747,-0.654962868133,28.5974332867,0.57876970081,0.00319200610221,-0.135811377262,0.552919352833,25.3592859447,4
0.628559013903,7.8346063538e-06,0.00141790800307,0.245290342139,29.6320623078,0.629561162618,2.99911300834e-05,1.80368469582e-06,-0.0276730571342,29.7282636544,0.628582464024,8.48490284211e-06,0.00220934866561,0.103074842803,29.6343214387,0.45696106444,0.00476924309971,-0.0499820546001,-0.996928721185,16.0139300704,0.396469976504,0.00549670420082,-0.11595002645,-0.574772205611,12.1958892811,0.470080476867,0.00723106465735,-0.0771128239,-1.39005139918,17.1082728895,0.589386110623,0.00334910431254,-0.00785150234765,-0.328041095781,26.3010327738,0.61320370234,0.00197717683608,0.00747764857768,-0.748897725208,28.3477196282,0.580713926701,0.00230942468959,0.110860375227,1.03689181005,25.4630472769,4
0.628546008575,7.36744495869e-06,0.000911745093866,0.31521905742,29.6308015581,0.629583331998,2.99953891519e-05,-0.00136658334834,-0.0400501846356,29.7303575536,0.628508386496,8.21652204939e-06,0.000948977788988,0.167889840626,29.6273174149,0.457629629288,0.00468042240169,-0.0883965962835,-1.01451241608,16.0532170779,0.39774905421,0.00436335747996,0.0332105546299,-0.734600883767,12.1882117129,0.470612367009,0.00652999389,-0.0621058343281,-1.53805195973,17.0939195465,0.589968988406,0.00301825595089,0.0404626117374,-0.278740505797,26.3281064864,0.613775413393,0.00178887350713,-0.0125361266308,-0.868308369699,28.386395996,0.576791786288,0.00143341814642,0.0292281544961,0.557863980441,25.0577302975,4
0.62861055258,7.35806703233e-06,-0.000322274037663,0.246677870738,29.6368865081,0.629577649301,2.99999240021e-05,0.00042865527976,-0.0369598105259,29.7298212318,0.628582656314,8.19171224631e-06,-0.000717119598927,0.0953606051091,29.6343178731,0.458374654464,0.00467788951055,0.0300977753272,-1.04751102501,16.1042131129,0.394148673342,0.00425174094804,0.0320346465867,-0.635146291046,11.9661170825,0.470387229362,0.00650428843115,0.0234020551028,-1.54275582209,17.0761282599,0.588821092665,0.00292684878096,0.019218445179,-0.227613576983,26.2198577473,0.614862034147,0.00183359016479,-0.00376074487879,-0.912703778438,28.4898347498,0.579034740506,0.00124958406373,-0.0802644155883,0.736211761178,25.2385615242,4
0.628583301545,7.3433815326e-06,-0.000691724876464,0.277896574276,29.6343159338,0.629559967224,3.00695809806e-05,-0.00070121768282,-0.0293306641411,29.7281565738,0.628555798424,8.24151720275e-06,0.00156566575452,0.123359889941,29.6317892523,0.456351327672,0.00476542131707,-0.0152541454551,-0.942804283237,15.9718812476,0.396974179449,0.00434604657733,0.0102493593278,-0.721404677956,12.1407448829,0.469185846837,0.00653226210743,0.00406806519432,-1.4879410439,16.9935393114,0.588769197348,0.00316016272227,-0.0633080311506,-0.235563031575,26.2325396224,0.61313080706,0.00187136360154,-0.00731674095265,-0.780340389455,28.333184899,0.578858707622,0.00141786490185,0.0928110248637,0.701248239238,25.2357272569,4
0.628631946551,7.32935260721e-06,2.2703405676e-05,0.22193658917,29.6389016889,0.629335508807,3.1368043062e-05,-0.0136918920799,-0.408768974616,29.7070599336,0.628615780508,8.34322214453e-06,-0.00129708068721,0.0527806899665,29.6374523612,0.458025787754,0.00482392323178,0.0354749274419,-0.989574336041,16.0910419877,0.394613599902,0.00582567530475,0.29992151949,0.139235663967,12.1100919646,0.472074320262,0.00697725650792,-0.000405853162071,-1.34436981426,17.2303792704,0.590667890089,0.00326316217935,0.0372101017532,-0.28119606804,26.40811573,0.614334204153,0.00224187089926,-0.185691469086,-1.03521008404,28.471387026,0.57467027872,0.00222042675878,-0.172599021958,-0.780253655751,24.9327562735,4
0.628680988776,1.60289609995e-06,-0.00553755750318,0.850119584146,29.6431025379,0.629547776503,2.61726526548e-05,-0.00631746464949,-0.780657594044,29.7267169938,0.628666723947,1.68649187502e-06,-0.00645651438695,0.589186263253,29.6417635353,0.457751182166,0.00490542233428,-0.017194696821,-0.963196320773,16.0782121108,0.393431179647,0.0068605254123,-0.190081901133,0.0926811381722,12.1167858644,0.470094880995,0.00762455779953,-0.0442200472795,-1.16780862274,17.1384070625,0.587397397287,0.00336209923353,-0.0523616912999,-0.126345831243,26.1264730188,0.614176843253,0.00248707326427,-0.0226244072294,-0.953507322929,28.4750330307,0.581378948423,0.00294972915554,-0.0748103389385,-0.136737687574,25.5683910827,4
0.628559169942,9.27343808082e-07,0.00262930140641,-0.420239328222,29.6315658823,0.629569974057,2.11397966869e-05,-0.00489589353317,-0.704363594622,29.7284407625,0.628538030671,9.32937043778e-07,0.00252919347527,-1.19128909867,29.6295732374,0.456865048925,0.00487840227927,0.0400042347776,-0.934484623372,16.0154272383,0.397907886199,0.00680582876577,0.011143959447,-0.0622545639721,12.3784327711,0.471022503095,0.00747525118229,-0.0138070661669,-1.22283269827,17.1928334691,0.589536502196,0.00257070394802,-0.0943315065218,-0.103574132856,26.2567286488,0.615378091871,0.00229852156672,-0.0879631105759,-1.06911814145,28.5718552925,0.579049841756,0.00293960082376,0.0767640446484,-0.145204228083,25.3649344038,4
0.628614841259,7.63633957091e-07,-0.00107445781428,-0.162202977373,29.6368029077,0.629687179181,1.82618952898e-05,0.000501383422267,-0.989194112047,29.7392971521,0.628567318637,7.85195580739e-07,5.10745123367e-05,-1.18833821058,29.6323236589,0.455732759876,0.00353905873616,-0.142704182769,-3.2455847812,15.8388164783,0.395628447264,0.00548706999651,0.220174185171,0.715689364029,12.1451833011,0.465832713902,0.00562708990491,-0.13200515482,-3.22929407052,16.6914134535,0.589911005347,0.00202996904515,0.0612507186166,0.0413586682153,26.2498422765,0.613790277969,0.0017245295362,0.178030988104,-1.53525735484,28.3830030854,0.576314064994,0.00259797701183,0.0248613108736,-0.355692854917,25.1025929121,4
0.628587129304,6.92932392372e-07,0.00155729092452,-0.367904347695,29.6341847115,0.629559455004,1.62756962867e-05,0.0012652403959,-1.06568940987,29.7270874554,0.628586878428,2.02951292739e-06,0.00872039811774,2.35292233217,29.6342599638,0.457912525547,0.000818454530536,0.00423391578592,-0.153322335344,15.7868567142,0.397131823819,0.00358246626896,-0.0247416695762,0.905932907191,12.0936289157,0.469587952516,0.00168082244152,-0.0709444799341,0.471498048031,16.6628442468,0.588555359381,0.000935845226303,0.0246349195921,-0.0857304005262,26.049058376,0.613483398801,0.00108802468028,0.0364923055376,-1.31158248042,28.3076548716,0.579551633477,0.00249235360363,-0.00274097228287,-0.510345919226,25.3754413566,4
0.628577642812,7.2054039503e-07,-0.00100293249849,-0.31336670202,29.6332922982,0.629573780417,1.59728205329e-05,0.00243850057922,-1.12598975978,29.7284178628,0.628389865112,6.27466417794e-06,-0.000437654522338,0.373219009552,29.6160010183,0.459377607344,0.00108593815294,0.0896032608271,-0.173475010204,15.907443383,0.394890037697,0.00374829822353,0.0365459045707,0.862119809494,11.972734709,0.470469076892,0.00154821574486,0.0416034701009,0.437289298956,16.7151543885,0.591307882673,0.0010007469984,0.082650664984,0.113275948152,26.2974311862,0.614515383872,0.00108526530126,-0.0188556693146,-1.38247864419,28.4024964084,0.576948674282,0.00259947793431,-0.0571741141443,-0.366953217232,25.1575943238,4
0.628606593341,7.31078653999e-07,0.000566365420855,-0.401102574075,29.6360227892,0.629531777371,1.59832952653e-05,-0.000458284048768,-1.08982588817,29.7244521678,0.628628940411,7.63342516067e-06,-0.00222788707076,0.336243746176,29.6386407277,0.456601131507,0.00114236958577,-0.012173253352,-0.0365117327154,15.7208798464,0.395389692015,0.00438688507021,0.0106058988172,0.598239691388,12.0496051365,0.468816665086,0.00158240305215,0.00745032694832,0.494229543701,16.6012777355,0.590311484141,0.0021691777902,0.128140371294,0.302260435019,26.2955927796,0.614267526192,0.00130029928479,0.0823655077597,-0.864146660353,28.3955666771,0.576768031947,0.00327787237039,-0.0556846614211,-0.392369497195,25.1921647561,4
0.628558143981,7.79641388013e-07,-0.00176487356751,-0.318721375807,29.6314582208,0.629539672248,1.67515517923e-05,-0.00232907836734,-1.0293424059,29.7252545349,0.62850592685,8.02757394757e-06,-0.000931072121319,0.395348713544,29.6270715469,0.458928336818,0.00119749979215,-0.0267201696007,-0.140916903299,15.8847563597,0.394668840099,0.00474621454188,0.00783696712792,0.471762475501,12.033481877,0.472125910776,0.00217037812067,-0.0646077253619,0.807777094588,16.8783236529,0.589599962738,0.00236320872205,-0.0486278269305,0.257934662674,26.2469861499,0.613443156366,0.00151996832436,-0.0783317850697,-0.844056850923,28.335915613,0.578563798106,0.00374618248812,-0.0861775382352,-0.36227472256,25.38242264,4
0.628502452106,3.55892418727e-06,-0.0061869925462,1.0460542231,29.6264132831,0.629535375866,1.74552840321e-05,-0.00175016541313,-0.945310985621,29.724900901,0.628493396441,1.15419695084e-05,-0.00794339086126,0.573765175114,29.6261503085,0.45828712744,0.00108934328252,-0.0399983566244,-0.0952341300599,15.8326432412,0.396133052766,0.00515163589291,-0.0335714913721,0.431594314452,12.1503257181,0.470368691911,0.0026767484537,0.0632392057231,0.167108683965,16.7915823603,0.590053290524,0.00245491949115,0.0412945396624,0.176473807595,26.2938804667,0.614966288754,0.00154807291117,-0.0201289094291,-0.873791528283,28.4783226182,0.579414604019,0.00387493869031,0.026311136754,-0.361226883545,25.4658417144,4
0.628680476488,4.06761791622e-06,0.00128647288442,0.821491145282,29.6432366175,0.629604955841,1.75363899178e-05,0.00197090992029,-0.98748433277,29.7314777243,0.628633880465,1.20020617392e-05,0.00223170404979,0.456955612411,29.6394298277,0.457233524015,0.00108076673307,0.0109152290371,-0.0444258489954,15.7596638995,0.396459719514,0.00512197331671,-0.0607282319283,0.428041909588,12.1675492152,0.468811768937,0.00272940380577,-0.00844974593671,0.246122908043,16.6858114837,0.588053785197,0.00239575836866,-0.0672313784468,0.28556813267,26.1128301907,0.614022657028,0.00151025158448,0.0382104858176,-0.839240223925,28.3885453681,0.578508234068,0.00387675078202,0.0223450100036,-0.321969127988,25.3872628242,4
0.628532437332,4.3728668125e-06,8.25402993873e-05,0.877434506077,29.6293004505,0.629420305895,1.51251651563e-05,-0.00064808782508,-1.6046068101,29.7138633727,0.628469161863,1.21171149464e-05,-0.000759326933638,0.584158737538,29.6239082225,0.457605572435,0.000942299436102,-0.013035100536,-0.0464561465489,15.7749446525,0.395358353022,0.00498480120499,0.0326960694189,0.478668465673,12.091992337,0.470846483821,0.00271840052425,0.00258369440448,0.133621045796,16.8283924883,0.590436864911,0.00219030810942,0.01888883953,0.251949617641,26.3082596585,0.614291034061,0.00148222025838,-0.015629640296,-0.877355575773,28.4111948887,0.576975859656,0.00375765368244,-0.040914024744,-0.294905685339,25.2456520694,4
0.62857492617,4.23734188517e-06,-0.00261798555881,0.88561195559,29.6332963991,0.629701293427,6.24796620246e-06,-0.00555927256723,1.90156438099,29.7397412703,0.628569196274,1.19490639816e-05,-0.00269781064538,0.53839573981,29.6333268186,0.457545764334,0.000893194875009,0.0697849998671,-0.0313753679328,15.7672059053,0.393187228086,0.0030870887929,-0.101057016422,-0.594453571516,11.8231592954,0.471031462038,0.00179086803409,0.043426412181,0.231012498653,16.7728221018,0.589224596883,0.00200641747632,-0.0678391691445,0.3239247169,26.1873968111,0.615300213492,0.000916080744623,-0.0713818793511,0.21120937067,28.4623664293,0.580730102108,0.00278711883252,-0.098258427901,0.254064608552,25.4998056557,4
0.628606024151,4.04896558419e-06,-0.000741868955679,0.936526662337,29.6362146434,0.629576230031,3.3278782704e-06,0.000264310019159,0.281096952478,29.7277134695,0.628578311495,1.18600643573e-05,-0.000177065591596,0.536625206942,29.6341796709,0.458163337826,0.000892847574873,0.0573274087862,0.15750297283,15.8095940301,0.397411753744,0.00214199288909,-0.0380614245149,-0.413717506725,12.0037151248,0.469247176757,0.00150328750452,0.0207590043139,0.0251361166965,16.6257117424,0.589913857536,0.00184622926759,0.0111736561678,0.292316037639,26.2364979143,0.614303208696,0.000730014087399,0.0181870818032,-0.0131136160189,28.3566534585,0.578171786604,0.00192805043885,0.0725213623341,-0.277517180746,25.2138718443,4
0.628592085488,4.04391933338e-06,-0.000900697273445,0.955514241894,29.6348999954,0.629593596141,3.47747398664e-06,0.00164004519365,0.179923356581,29.7293645557,0.62856806606,1.18787387349e-05,0.000976384389232,0.544840579406,29.633215052,0.45768721754,0.00118714253062,0.00731637548604,-0.15432772344,15.7986677297,0.394423496152,0.00209094268088,0.0246847781129,-0.398624623403,11.8224718321,0.46957370519,0.00151766417912,-0.0233771527452,0.0195127243139,16.6497669947,0.588355782739,0.00187701460381,0.0202367167472,0.37960998347,26.1010886119,0.61333816807,0.000774892914343,0.0346330613364,0.0349118350285,28.2711202065,0.578262135394,0.00181522045118,-0.0477702294407,-0.285976794841,25.2133586057,4
0.628593558048,4.05981628114e-06,6.79039535212e-05,0.947382391783,29.6350400179,0.629549774992,3.87984533811e-06,-0.000955102637406,0.288016537796,29.725256048,0.628553156469,1.18817604771e-05,0.00127432775967,0.557736301615,29.6318095383,0.458815636882,0.00121675832389,0.0303951433788,-0.222860797431,15.8784242645,0.396033217279,0.00208499440428,-0.0165285299885,-0.47628075652,11.917462775,0.470678668338,0.0016535104947,-0.00758120498697,0.0431799362573,16.7377404387,0.589269284279,0.00208181840495,-0.0291179704612,0.331240226606,26.1969262666,0.61258225886,0.00117106554922,-0.0439640603744,-0.533809259204,28.2309356409,0.578833012911,0.00178777123242,-0.0242262870766,-0.314967959739,25.2608693339,4
0.628581433824,4.02175869778e-06,-0.000445511480602,0.977870601564,29.6338940312,0.629579893094,3.99741183702e-06,-0.000528706464739,0.251959132305,29.7281089426,0.628376046558,9.03580340932e-06,0.00465398710542,0.130694463485,29.6149028411,0.457620067083,0.0012246018765,0.0847880496451,-0.164773275567,15.7968299736,0.393898540224,0.00233263183151,-0.055657016981,-0.446387141356,11.8093192548,0.469616057508,0.00172519168455,-0.0261519258603,0.0383900973467,16.6681072949,0.589383681889,0.00210630367665,0.011972645008,0.334230904907,26.2088508078,0.614475228438,0.00124852957904,0.0245014970872,-0.500536358447,28.4108766661,0.58027929815,0.00210101183449,0.0148040603182,-0.0133017949249,25.4097796654,4
0.628625748899,4.23720238737e-06,-0.00203313144,0.867947876793,29.6380884664,0.629565104535,4.02837364454e-06,-0.00435472720526,0.263347974174,29.7267146632,0.628577984469,5.94920948305e-06,-0.00728597035052,1.10397396576,29.6337114335,0.456871803188,0.00119502856049,0.0133139867157,0.331169575382,15.7433204546,0.396719031587,0.0030271192453,0.0408007210504,0.737792444849,12.0279560759,0.467758849563,0.0031206303437,0.00736769206952,-0.657472526111,16.6408022463,0.58976617787,0.0020091493628,0.145587124426,0.376512177509,26.2354878948,0.615145763378,0.00170797793506,0.126268551442,-0.59985747056,28.5067136324,0.578244872624,0.00317553955176,-0.00776061482586,-0.635412243667,25.3125248806,4
0.628612802536,4.60559822564e-06,-0.000729317688938,0.730758514012,29.6368949777,0.629558591138,3.91096531183e-06,-0.00336851535805,0.141724775382,29.7260908871,0.628589622301,5.34384726666e-06,7.70394432709e-05,1.1213617633,29.6347639395,0.45868382877,0.00118859668339,-0.0134568983902,0.221909915699,15.8672702627,0.394448634016,0.00298989412993,0.0674862148668,0.935866434792,11.8904815314,0.469614625988,0.00354802769538,-0.0041851266869,-0.349612314105,16.8028963201,0.587433498863,0.00101350437556,0.0893914724414,-0.187538876031,25.9558579928,0.611712359316,0.00163466098828,-0.0287027338419,-0.586235563607,28.1853657037,0.577508403427,0.00334386731328,-0.146200324161,-0.116997444055,25.2611428834,4
0.628565878376,4.12997358424e-06,-0.00812699213756,0.5933349912,29.6324353774,0.629553767937,3.16635688561e-06,-0.00310011237183,0.303193453422,29.7255803147,0.628546411097,4.7641772009e-06,-0.00904535434198,0.940663390011,29.6306468668,0.457601332856,0.00109727542299,0.00112140834103,0.274137962508,15.7861218686,0.394950927502,0.00254392672934,0.0776900843908,1.19687258069,11.8872182131,0.471019468053,0.00256631306062,0.0118491099241,-0.614861377777,16.8293576128,0.590419902464,0.000773550683222,-0.0753398745855,0.0940622243003,26.2019173425,0.615899940464,0.00150053041078,0.00119292226568,-0.711975767018,28.5609945002,0.580446224961,0.00302726582716,0.0273786506465,-0.286695616281,25.4928541766,4
0.628628454527,2.28723936106e-06,-0.00248477769373,-0.00292539908143,29.6381992938,0.629603270972,2.72301453564e-06,0.00106021853502,0.243824145912,29.7302224144,0.628625963263,1.98713103016e-06,-0.00210251730869,0.472771864379,29.6379421743,0.458517708061,0.00101336822951,-0.00529108036387,0.230438808272,15.8428758944,0.396528027061,0.0023346271672,0.00494933311697,1.33109011689,11.9653481288,0.469113759097,0.0024412795914,-0.024129142754,-0.596926891563,16.6857336128,0.589100762668,0.000725506818877,0.0237537722746,0.102755746798,26.0816656478,0.612900756574,0.00145886560165,0.0095483359553,-0.569684258648,28.2815063602,0.576977345431,0.00294028267203,0.0593954494693,-0.153625811002,25.1852952033,4
0.628556212346,1.95855680821e-06,0.000459724526075,-0.320922948322,29.6313633391,0.62951883273,2.63181394969e-06,0.00118049604044,0.37993001743,29.7222418114,0.628502518331,1.61120993869e-06,0.00059212283548,0.23724527806,29.6262753957,0.456798804317,0.00100900249528,-0.00604618958862,0.380316098954,15.7245522565,0.39527315823,0.002361345102,0.0104520602345,1.37945257806,11.8928047588,0.470225444451,0.00241169172831,0.00929999976297,-0.663296472043,16.7618628336,0.589927245965,0.000751444528876,-0.0305873149347,0.0151741533548,26.15666856,0.615562052206,0.00149658076019,0.0158580473754,-0.732019133217,28.529494985,0.578823903995,0.00280696163037,-0.0424940229867,-0.252462796878,25.3354985484,4
0.628641229363,1.94455772499e-06,-0.000972472956076,-0.33106170796,29.6393785414,0.629641317531,3.0754264635e-06,-0.00404093658021,0.411916360385,29.7338417372,0.62859623635,1.42632504373e-06,-0.00280168771844,0.186890980305,29.6350976746,0.457766122389,0.00117805913595,-0.0686107325617,0.250913147221,15.8034130866,0.396400090641,0.00242998501686,-0.0168944038697,1.26362842414,11.9647962808,0.469374821237,0.00252718459474,-0.0360764905027,-0.553768258191,16.7104658709,0.587937331389,0.000944125061085,-0.0755263815464,-0.233854693306,25.9951381776,0.612714312435,0.00158916023615,-0.0180000142231,-0.536704708712,28.2740100072,0.578806912711,0.00284868539538,0.0548874737006,-0.249184736444,25.3371108844,4
0.628584178549,1.85038218364e-06,0.000758584636157,-0.358610935953,29.6339921424,0.629710169359,5.64444477259e-06,0.00351446273299,0.573463083235,29.7405349935,0.628559741061,1.27670387541e-06,0.00045615452965,0.138846498559,29.6316455823,0.458321090004,0.00125299755956,0.036257586753,0.249855708137,15.8470884351,0.39662235632,0.00262527666957,0.109441449891,1.20122385618,11.9924674885,0.469706777121,0.00260045830824,-0.02073093159,-0.543732807671,16.7392681503,0.591038517785,0.00134440606942,-0.0609813339253,0.279013119144,26.298975762,0.616169338437,0.00184482585912,0.0289852654873,-0.438467176858,28.6113661358,0.577507522085,0.00299714487195,0.0420557878077,-0.175392003059,25.2354090754,4
0.62859906087,1.97492299476e-06,-0.00090631123785,-0.270482935476,29.6354045938,0.62958495625,5.58299278022e-06,-0.00346639450421,0.513381364251,29.7287044267,0.628556299189,1.33901126083e-06,-8.03341455501e-05,0.177249362963,29.6313256806,0.457566345307,0.00186678372515,0.0718029440237,0.898739166633,15.8406640225,0.396055048219,0.00597262013382,0.00915315100839,1.06103010729,12.2064439814,0.468995202462,0.00609566247748,-0.0266558633639,-1.41092008041,16.9478165182,0.588835121431,0.00209738295364,0.00676720632616,-0.332712597084,26.1597163559,0.614616337985,0.00278121217456,0.0907160096503,-0.830240609686,28.5373029197,0.578680042899,0.00319459454469,0.0345002000002,-0.191023801004,25.3516944,4
0.628610675971,1.97469738383e-06,0.000955235416351,-0.286244779961,29.6364997735,0.629543117522,5.31473774308e-06,0.00301315783568,0.528536034294,29.724733552,0.628547183427,1.30235490249e-06,0.00164128490433,0.198093873545,29.6304635088,0.457978278298,0.00185044321454,0.0136757648685,0.960138458363,15.8677405524,0.39622289478,0.00592088559248,-0.0295909390161,1.08156852576,12.21258921,0.470971334728,0.00623267344012,-0.0725400565568,-1.42504517255,17.0972676948,0.589069335196,0.00208270147511,-0.0912945264095,-0.376924725512,26.1793210343,0.612649370285,0.00268013531126,-0.0635751420131,-0.78289550402,28.3487738314,0.577937941254,0.00323557116189,0.00434607430852,-0.153211344064,25.2903520615,4
0.628572143178,1.98641603707e-06,-0.000777550885569,-0.205254957737,29.6328674333,0.629603842168,5.15073857675e-06,-0.00204970756491,0.503982397775,29.7304560101,0.628564481609,1.29624170977e-06,-0.000770407900596,0.157610495276,29.6320939874,0.457068956795,0.00183295791619,0.0552886489099,1.03495166753,15.8040412307,0.395161012371,0.00590124965572,-0.0790886441119,1.12603562197,12.1481094019,0.470161999949,0.00607541680948,0.0777138354601,-1.4588510335,17.0285038086,0.590363044122,0.00195750948473,-0.0285905056769,-0.520559365068,26.2844949917,0.615880260287,0.00232797903989,-0.0524015572828,-0.926284386958,28.6204075748,0.579992621695,0.00324523251289,-0.0261123590127,-0.25557326007,25.4695052975,4
0.628620703646,1.97752517002e-06,-0.000425908318057,-0.290927165483,29.6374455158,0.629604012016,5.01650182339e-06,-0.00121359586658,0.50975488253,29.7304621172,0.628580971414,1.19184094089e-06,-0.000495228651708,0.145522938602,29.633641018,0.458843277711,0.00175465194553,-0.0758978052345,1.03435095547,15.9201307565,0.398638224266,0.00547096640824,-0.123706463198,1.17898448761,12.3232840527,0.469190317876,0.00592138986113,-0.175277005153,-1.48792100172,16.9486494289,0.589422887762,0.00184765353692,-0.0567923242896,-0.509345918188,26.1931769081,0.61260144221,0.00216897060597,0.0733223364543,-0.891969153787,28.3065433497,0.578908597294,0.00252527924491,0.207978684638,-0.103148723108,25.3220079657,4
0.628615770199,1.60894916937e-06,9.76068923452e-05,-0.0956394289276,29.6369530529,0.629600934693,4.81809222026e-06,-0.00146962725473,0.579081383448,29.7301568113,0.6285587657,1.01874511151e-06,-0.00138008060143,-0.0153849525734,29.6315345325,0.458018373882,0.00135756161431,-0.0230149106407,1.17784135941,15.8340218705,0.3959374168,0.00415287399618,0.036769399085,1.27825773014,12.0647955274,0.469457290858,0.00424279410889,-0.0867437790506,-2.14552914032,16.8432278595,0.589748134806,0.00159860734502,-0.00487707109589,-0.602219790127,26.2035116315,0.61292674993,0.00160801422794,0.0141371847303,-1.22686505399,28.2949331113,0.575693175464,0.00115979533674,0.0273486980693,-0.456154065075,24.9425222756,4
0.628601679473,1.37928575057e-06,0.000310205231404,-0.109061661109,29.6356074248,0.629580642717,4.65528428646e-06,-0.000412960565523,0.622880632123,29.7282284173,0.628605768521,6.17723278535e-07,-0.000363791849412,0.416512885158,29.6359366279,0.458966451842,0.00143480462525,0.000146872481672,1.12910001473,15.904940836,0.395688727692,0.00400442698915,-0.0363156854916,1.37829587498,12.0390452889,0.470429238959,0.00407087959704,-0.0137613792324,-2.35496484642,16.8990202552,0.590405970808,0.00163346308698,0.00733544811657,-0.59434693809,26.2643170459,0.61490388138,0.00154512336902,0.0181336236848,-1.36756380282,28.4723478796,0.579140451957,0.000795763211808,-0.034700965294,0.122878355861,25.2141612097,4
0.628555633613,1.24862798227e-06,-0.00152476920548,-0.161469512243,29.6312562395,0.629585827979,4.65420496783e-06,1.31303906767e-05,0.616360595205,29.7287180205,0.628542510497,5.52910279868e-07,6.48672649119e-05,0.350051030608,29.629967478,0.457756954844,0.00166096307611,0.0277673548372,0.727170282603,15.8385184957,0.395614648526,0.00402616533097,-0.0451719634797,1.35588891856,12.0362574941,0.469367435623,0.00406059720823,-0.0158670694744,-2.3143166717,16.8234184152,0.587872779423,0.00171328644292,-0.0354694406732,-0.421018870053,26.0463635558,0.614040988379,0.00164051646848,0.0671945030222,-1.2096622368,28.3998733744,0.579098853745,0.000753852087039,0.0348180734347,0.0666631895819,25.2074462351,4
0.628600001652,8.97240940053e-07,-0.00211631428505,0.419628319021,29.6354135516,0.629572020223,4.71456962405e-06,0.00100267689975,0.620839393488,29.7274185267,0.628536891065,5.44233304174e-07,-0.0034404010568,0.36182183153,29.6294370305,0.457470713892,0.00169882832191,-0.0198056333746,0.726240312276,15.821672351,0.395959415442,0.00419663533074,0.0150635222236,1.31701620343,12.0693404153,0.470078865076,0.00408256853922,-0.0203927553766,-2.33076289477,16.8751705262,0.588039932316,0.00252040774389,-0.0185771583215,-0.155809865568,26.1208323229,0.61306382936,0.00175598168941,-0.016922244253,-1.0912794588,28.3184870602,0.578645851298,0.00104173241586,0.0431081088947,-0.0595307828724,25.1894147906,4
0.62861384855,8.52080326475e-07,-0.00352020470208,-0.585341058355,29.6367158481,0.629617259017,4.86759464034e-06,0.000814943129966,0.532426314482,29.7317021659,0.628543065514,1.37526214267e-06,-0.00795694781215,-3.18480622632,29.6300806598,0.458086581319,0.0018143586325,-0.0572787306964,0.637054790836,15.8725112376,0.392693917835,0.00462046855699,-0.191262601857,1.08474068361,11.907553156,0.469569413539,0.00429606861749,0.132930489106,-2.01083307659,16.8550666375,0.589697983816,0.00251181192169,-0.00690208724736,-0.246734159459,26.266652491,0.615039135263,0.00184567223041,0.127453018788,-1.06096284873,28.5070650879,0.578117649903,0.00124985254519,-0.0500033924903,0.0895474985346,25.158990373,4
0.62859373595,1.23741496491e-06,-1.2336701849e-05,-0.35592779536,29.6348479344,0.629653400924,3.87716612533e-06,0.00457459756695,0.850767672846,29.7350423074,0.628643588944,2.95627861326e-06,0.000761936234492,-1.45646782604,29.6396759086,0.457740121073,0.00207352317067,0.0626958660036,0.438950137775,15.8678920976,0.394710981761,0.00685140405432,-0.0601811191356,0.615930742804,12.1917608342,0.471835041324,0.00610579202422,0.120991779456,-1.42503986786,17.1489515764,0.591193370427,0.00244086277229,-0.0692123939872,-0.24473858205,26.3938439379,0.616960758345,0.00283814050393,-0.012122430484,-1.34960216608,28.7580656976,0.57951929861,0.00209833038496,0.0193590747519,0.0670865109076,25.3434727581,4
0.628609271683,1.31316541528e-06,-0.000757932781689,-0.404863647255,29.6363184077,0.629454575593,1.55326624271e-06,0.00380822273952,-1.10905430127,29.7160946469,0.628527263936,3.40124455666e-06,0.000505634862092,-1.18990503011,29.6287408054,0.458286788318,0.00191160372043,-0.200071048647,0.556961551024,15.8934672014,0.398401474867,0.00612824196201,0.0908305842444,1.10211474578,12.3577700434,0.465382953753,0.00508796282328,0.00712044363781,-2.32470536677,16.6201062722,0.588739414352,0.00203672118686,0.0868269925443,-0.435620266298,26.1467747187,0.613495597186,0.00229127177239,0.161859619079,-1.14965908108,28.3978176937,0.577176153534,0.00206380442771,0.106231821831,-0.00540929453501,25.1376449433,4
0.628597076712,1.24727938704e-06,-0.000564482797063,-0.552477990795,29.6351636625,0.629621891417,8.87584087405e-07,-0.000599642840474,0.198212018209,29.7318451426,0.628576144975,3.51636431021e-06,-0.00116798177373,-1.18414218627,29.6333579634,0.458668671854,0.0011824332283,0.0588456323959,-0.526448819548,15.8657713494,0.395093817175,0.0038212960896,0.0148175378592,0.0224677216808,11.9902102384,0.470220175713,0.00255210180467,-0.0829659774598,-0.286653345178,16.7718815571,0.588900147801,0.00132412708675,-0.0493485412348,0.189730849306,26.1082392104,0.61365612565,0.0017936365089,-0.0158662616165,-1.36007970669,28.3757671427,0.578178066779,0.00195603201591,0.00327595786085,-0.007111516342,25.216487137,4
0.628583903567,1.26951535834e-06,8.19776949337e-05,-0.514206064518,29.6339232309,0.629556694116,6.70113185083e-07,0.00210083052985,-0.252714815087,29.7256719213,0.628580217311,3.72418476372e-06,-4.71631542823e-05,-1.07462254261,29.6337573093,0.456749122721,0.00104867595407,8.47952177935e-05,-0.456178056698,15.7240841036,0.395806881001,0.00374610323618,-0.0342934532611,-0.022847759471,12.026943168,0.469906503747,0.00239620013709,0.0276857055723,-0.330557934539,16.7382279799,0.590117236975,0.00125626047767,0.0205337288014,0.113420093588,26.2108397785,0.614660050258,0.00177201744349,0.00418566743605,-1.44097499263,28.4666525946,0.578825006257,0.00191007500959,-0.0198195009775,-0.0347103484691,25.2692246408,4
0.628571566752,1.28089726179e-06,-0.000814233491906,-0.511989685829,29.6327608761,0.629569369255,5.84422426235e-07,0.000164013627665,-0.183978565936,29.7268625501,0.628650800089,5.58937154606e-06,0.00906522363458,0.0834091543367,29.6405507475,0.458748284979,0.00103125873853,0.00555469084708,-0.632194021423,15.8600623195,0.396142853515,0.00375912740006,0.045780091012,-0.0351683311564,12.047862457,0.469063234362,0.00243580748544,-0.0363813363968,-0.28171311946,16.6817735912,0.589330235159,0.00129531650401,0.0517703280709,0.18556192188,26.1441128767,0.612709668523,0.00179859923647,0.0151722873185,-1.28610611617,28.2890816861,0.578042846436,0.00189751059518,-0.0202284671179,-0.000735024816259,25.2004307077,4
0.628590555852,1.33363425042e-06,-0.0007049693784,-0.491530675139,29.6345552069,0.629576480528,5.6576166648e-07,0.000374128186233,-0.230475407381,29.7275327289,0.62843649575,7.61275864219e-06,0.00208052232078,-0.137603050884,29.6204955334,0.457706892502,0.00124320600134,0.0583924365549,-0.436678408852,15.8041672024,0.393792587234,0.00387057203495,-0.0250880935727,0.0593884974352,11.9168674626,0.472679047521,0.00283281923562,0.0345563564763,-0.171535266637,16.9665397708,0.589691743264,0.00135211956623,0.00659724893968,0.121094838349,26.1802832534,0.614338409054,0.00208795222792,-0.089137044718,-1.08165126591,28.4603845278,0.578513991126,0.00208930534571,-0.0716784749063,-0.0180676679529,25.2554914402,4
0.628581429959,1.31717015777e-06,-0.00042574560234,-0.493844848689,29.6336935273,0.629560048604,5.20637917447e-07,1.16261975953e-05,-0.284730409653,29.725977637,0.628584021913,8.50853418067e-06,-0.0023477579006,-0.121195396779,29.6344700769,0.45778119672,0.00136243394551,-1.05677368262e-05,-0.391336358689,15.8180919172,0.395806104105,0.00430634231457,-0.0022542250294,0.0843902122265,12.0683547348,0.469056784006,0.00322834648845,0.0163665007813,-0.175012047755,16.7399676368,0.589244335094,0.00143388617642,0.0407899394181,0.0811939829706,26.1467740601,0.614040959545,0.00244467155309,0.0530980702741,-1.05011776238,28.4593781949,0.579288570733,0.00227677498628,0.0173868161325,-0.1429422801,25.3366249626,4
0.628605085819,1.32488990943e-06,0.000410413990182,-0.550720468987,29.6359245857,0.629566156752,6.82954234296e-07,-3.92126552281e-05,-0.368863263031,29.7265664682,0.628558435924,8.74297145578e-06,0.00138291891432,-0.114979330547,29.6320750327,0.459111340767,0.00128913895772,-0.0451887955856,-0.12387392941,15.9041380244,0.39683857243,0.0044864786485,-0.0215423335738,0.066023266704,12.1430633626,0.47002155332,0.00320924104288,0.00148863462112,-0.221055717758,16.8065033811,0.588874679933,0.00158498549581,-0.0897703544664,-0.116022255839,26.1252930767,0.61382124886,0.00244355379102,0.0185422570357,-1.07441419411,28.439062397,0.578539165868,0.00255968151093,0.0953097137149,-0.024342201372,25.2924839151,4
0.628583658649,1.35383861598e-06,0.00132563708081,-0.503550870378,29.6339063781,0.629583359632,1.01252037911e-06,-0.00112287038201,0.471019838571,29.7282154309,0.628565283139,8.8319734845e-06,0.000488648444072,-0.115843047979,29.6327272036,0.456656062841,0.00179363275003,-0.123879344681,-0.168859024839,15.7728358032,0.398357505434,0.00605832665192,-0.027665487194,0.124469130824,12.3499688324,0.467522972445,0.00389745453878,0.00425506195957,-0.404534171773,16.6817413681,0.589267047668,0.00140757450771,0.000787731997654,-0.727191183045,26.1468345236,0.613744650664,0.00302700717855,0.118240531529,-0.882742566971,28.4751857476,0.577768394131,0.00295320749714,0.0669491540505,-0.137890920991,25.254761149,4
