cap1_mean,cap1_std,cap1_freq,cap1_skew,cap1_power,cap2_mean,cap2_std,cap2_freq,cap2_skew,cap2_power,cap3_mean,cap3_std,cap3_freq,cap3_skew,cap3_power,accX_mean,accX_std,accX_freq,accX_skew,accX_power,accY_mean,accY_std,accY_freq,accY_skew,accY_power,accZ_mean,accZ_std,accZ_freq,accZ_skew,accZ_power,gyroX_mean,gyroX_std,gyroX_freq,gyroX_skew,gyroX_power,gyroY_mean,gyroY_std,gyroY_freq,gyroY_skew,gyroY_power,gyroZ_mean,gyroZ_std,gyroZ_freq,gyroZ_skew,gyroZ_power,label
0.628548349422,0.0161289030591,-0.138018412794,-1.35865926803,30.8240158934,0.62850766728,0.0161252630914,-0.137908468843,-1.35849671097,30.819911056,0.628465495311,0.0161229023218,-0.137953018491,-1.35849821025,30.8157606815,0.538544882686,0.000386643084132,0.0216794767921,1.36429396864,21.7809058882,0.483979296753,9.41395487437e-05,0.00914209950865,1.34543270154,17.574663303,0.429406133383,5.52433428612e-05,0.0072873274526,1.39819847612,13.8333100614,0.44996853405,5.57786953423e-07,-0.000159894898595,-1.77882296147,15.1854173989,0.537748647663,6.45947762542e-07,0.00270439288401,0.396038297765,21.6880684049,0.434471710326,1.40584903155e-06,-0.00017034509205,0.0743503283701,14.1575290634,2
0.627317512481,0.00521389876696,-0.36662557975,0.769279542877,29.9003731186,0.62727069349,0.00521193035633,-0.366215450977,0.769271407713,29.8958220647,0.627230312348,0.00521104987031,-0.366330947355,0.768385103211,29.891957545,0.538691486469,0.000124883051565,0.0510219623455,-0.730182917327,21.7733801654,0.484152713434,3.11936927376e-05,0.0301641372163,-0.756642830703,17.5825970777,0.429434971283,1.80219073683e-05,0.022683617516,-0.506430881484,13.8324132132,0.45000794387,6.73369081639e-07,0.00141326410172,-1.20056604932,15.1880860453,0.537561701161,2.68895017077e-06,-0.00539266898588,-1.81515521942,21.673142674,0.434518355194,1.95809416682e-06,-0.000107985489072,0.153068823296,14.160609974,2
0.632923539278,0.00118509754915,0.0292472935586,1.91096879988,30.1321127115,0.63284790537,0.00118527659284,0.0288374590725,1.91424796692,30.1249458177,0.632825016524,0.0011857640089,0.0284704244297,1.91490709015,30.1228091521,0.537302085391,5.32006640333e-05,-0.0133328640176,-1.39210087091,21.6559516715,0.483832960821,3.11342989197e-05,-0.0150041085569,2.0985409113,17.5593789864,0.428565433706,4.892304411e-05,0.00201757645396,-3.81019868616,13.7787451279,0.449850346342,7.31683656647e-06,0.0113738407885,-0.915053722993,15.1779415037,0.537598419959,2.69183647152e-05,0.00852935783879,-1.32406949139,21.6778965446,0.434579291163,7.30171767837e-06,0.0144298191656,0.228305272381,14.1649773502,2
0.625781742817,0.000333038555494,0.0532627518103,-1.95875083136,29.3948540764,0.625695563039,0.000332710974929,0.0506139762631,-1.95150632834,29.3867409326,0.625702737379,0.000333285855055,0.0512737382373,-1.95400769995,29.3874568206,0.537430755356,0.0047459498458,0.0489093893356,-0.681249386679,22.0135865487,0.484375753351,6.12693380775e-05,-0.0160828417069,1.19108637269,17.6010242136,0.428381662966,0.00300924984622,-0.0106788222873,-0.385086530627,13.9859981761,0.449555455765,0.000106742288801,-0.00657023047587,-2.04185510783,15.165407015,0.538204264918,0.000297725036556,0.0616474834166,-0.621416111818,21.7468189609,0.433963931162,9.34416672244e-05,-0.0718250627717,-5.5061434135,14.1312666996,2
0.629753134292,8.23040763074e-05,-0.0284095013915,2.11196337062,29.750266263,0.629767170782,8.24981436947e-05,-0.0283642331623,2.07867887813,29.7516065673,0.629657138706,8.27741148736e-05,-0.0281013127835,2.08325272196,29.7412337088,0.539354735028,0.00516076090888,0.00089299631708,-0.609776178644,22.199661072,0.483988210826,7.88997443962e-05,0.00520161458521,0.506870873594,17.5741826975,0.430288032292,0.00364689602783,0.0152033450913,-0.209669342293,14.1559546111,0.450299807088,0.00013378632339,0.0102123213599,-1.33253850653,15.2176439077,0.53712495377,0.000464838156637,-0.024783776259,-0.710949949496,21.6721392208,0.43549255547,0.000197733596591,0.017850068034,-1.88164217027,14.2386647264,2
0.628060811971,1.97476703841e-05,0.0160898394936,-2.2112922824,29.5859900927,0.62799166303,2.02718510124e-05,0.0170079990873,-2.09343457499,29.5795147796,0.627981040757,2.02979683891e-05,0.0159243022432,-2.10604174073,29.578516116,0.538219307586,0.0052485676537,0.00492034573798,-0.558260847951,22.1143957358,0.483965837416,8.28267841302e-05,-0.000633865614735,0.456999717027,17.5728490659,0.429030204556,0.003729366704,0.00321411109191,-0.156967824305,14.0809918677,0.449977287884,0.000147058173293,0.006445832619,-1.24817562586,15.1968492756,0.538067925058,0.00048966113885,-0.00877646147019,-0.726988763952,21.7500168225,0.434224544617,0.000256563589639,0.0194935808936,-1.46271411238,14.1603073417,2
0.628740305524,4.80047950424e-06,-0.0103983002865,2.10551169537,29.6489331198,0.628676698055,5.50019217602e-06,-0.0131947309373,1.67550582454,29.642986315,0.628653166248,5.2359915793e-06,-0.0103590039619,1.93436535355,29.6407477209,0.538537717105,0.00527761967723,-0.0123124663349,-0.565362395414,22.142259312,0.484031333913,8.33031351372e-05,-0.00166391864177,0.433238772422,17.5776393477,0.429414538965,0.00375500510451,-0.0168889597397,-0.172268840833,14.1076338483,0.449817556589,0.000153724414679,-0.0114974541016,-1.15926222061,15.1865631728,0.537664999593,0.000498833300945,0.006585858034,-0.662824362574,21.7181875483,0.434511670415,0.000265179080257,-0.00743775084848,-1.41784308218,14.1796526314,2
0.628515157495,1.72311379016e-06,0.00917128092289,-0.756248186383,29.6274752505,0.628407953397,4.10105778685e-06,0.00682425384956,-1.03716394853,29.6175451702,0.628438591072,2.01053289221e-06,0.00814522146566,-0.102242716664,29.6202784856,0.537845192523,0.005318574942,-0.0273260891436,-0.532005229362,22.0893833797,0.483916196086,9.84463972965e-05,0.0154083361584,0.263591786665,17.5704013959,0.428735140009,0.00378072302527,-0.0321036887573,-0.139614206924,14.0658100247,0.449893973273,0.000217115744462,0.0465604019912,-0.544641289195,15.1964106041,0.537881766031,0.000511967259402,0.0227299506035,-0.653612153125,21.7366451444,0.434289317682,0.000269578765556,-0.0109258120435,-1.34964656294,14.1654896876,2
0.628546840853,1.36529929937e-05,0.010201191104,-2.22962501027,29.6313451574,0.628535577429,7.36078418918e-06,0.00484209969104,-0.548949845334,29.6298176051,0.628455134049,1.03948828951e-05,0.00857426716558,-2.12291477412,29.6224583847,0.537554604675,0.00797012133698,0.0397022194476,-0.367263704759,22.2621604545,0.484148437105,0.000138038100262,0.0148839594944,0.22088805921,17.5901930058,0.428776509937,0.00616885640618,0.00798160740703,-0.27315837295,14.2451925346,0.449478707781,0.00034513670354,0.00302081467238,-0.503037739931,15.1778732722,0.538264388742,0.000923643240476,0.0619930333575,-0.699416081268,21.7979910139,0.434356612642,0.000360098081281,-0.0659913936877,-1.40024352091,14.176572279,2
0.628421927015,1.81115477277e-05,-0.00397363041707,-1.18027039005,29.619899131,0.628481651661,7.42555899997e-06,-0.000709301357929,-0.489509430254,29.624738477,0.628335804476,1.48584563911e-05,-0.00363407826205,-0.955501911869,29.6115407647,0.53928495369,0.00818248168439,0.010146839637,-0.401470588717,22.4176232404,0.483985255753,0.00020426551431,-0.00378078930882,-0.0499427401059,17.583245232,0.430174412142,0.00681086080493,0.0170764777754,-0.259764632351,14.3827555642,0.450315738297,0.000370037465339,0.00556674347612,-0.501155592049,15.2362025843,0.537257462329,0.00110733337668,-0.0120775188993,-0.693801564719,21.730361232,0.435107963902,0.000440687861404,0.0171861419062,-1.27368471245,14.2315314206,2
0.628602309279,1.88030530649e-05,0.000120692333174,-1.21151094054,29.6369561683,0.628499435419,7.58331841537e-06,0.000282492697972,-0.484437065435,29.6264266897,0.628517654586,1.54179892266e-05,0.00130417185301,-1.0127899591,29.6287240906,0.538222069024,0.00822904290503,0.00156862502328,-0.364387447299,22.3351738438,0.48397315938,0.000210121932041,-0.00356887116461,-0.0558989842603,17.582800448,0.429030934524,0.00687342817105,0.000227853721507,-0.218537737416,14.313699393,0.449904529162,0.000377424125413,0.000662029846004,-0.437319290163,15.2089857873,0.537872543129,0.00113265327375,-0.00757680201107,-0.713778502328,21.7818317912,0.434260825954,0.000460575853828,0.00420928685144,-1.11533242693,14.1777674851,2
0.628558222229,2.30481317418e-05,0.0138038258077,-0.659747331645,29.6331134666,0.628597205361,9.73144042087e-06,0.0115553449058,0.229851860605,29.6358036207,0.628474738553,1.94104701583e-05,0.0136971969351,-0.418504574055,29.6249736497,0.538521295709,0.00824205149406,-0.00816057336073,-0.37335704151,22.3603007555,0.483968361312,0.000212648666315,-0.00857071792636,-0.0552394849626,17.5826391077,0.429348294942,0.00689282614269,-0.0146693714868,-0.228730088293,14.3355660123,0.450125392511,0.000378949725673,0.00664179799878,-0.468129138973,15.2240074534,0.537626686419,0.00113894233238,0.0115014388779,-0.686185469372,21.7624657788,0.43453897181,0.000463662524629,-0.00347320436966,-1.14225056401,14.1961198785,2
0.628366064205,3.73860539302e-05,0.00528951760687,0.1662953739,29.6160598663,0.628458668987,1.65317702282e-05,0.00830385745257,-0.0488257565486,29.6232457479,0.628239706701,3.22853151474e-05,0.00240975701596,0.351483786432,29.603773794,0.539403015841,0.0087865436073,0.165427235797,-0.279203512928,22.4718752393,0.484022192423,0.000295660993963,-0.0460149888224,-0.227042954376,17.5926901204,0.430452919055,0.00733826310745,0.149141607965,-0.146923144371,14.4397601342,0.450083857558,0.000489397518024,0.00221655330526,-0.437218931924,15.2293763289,0.536499294408,0.00126502289968,-0.0881277199671,-0.606246708994,21.6809736621,0.434411763129,0.000477937784197,0.0223134890132,-1.07535263989,14.1888858919,2
0.628635283759,4.12692801461e-05,-0.00310565871803,0.136916111013,29.6417279257,0.628554543601,1.71839676142e-05,-0.00341583065668,-0.0892553103796,29.6323326847,0.628539901502,3.76611672979e-05,-0.00196291304153,0.362429167257,29.6324675099,0.540082936674,0.00937995389067,-0.304447207444,-0.306738288069,22.5708349744,0.484758266141,0.000347100823876,-0.00458658725813,-0.107227764409,17.6499787053,0.430398539011,0.0079439592139,-0.288552909102,-0.228686267788,14.4810706606,0.449162610492,0.000585004476783,-0.0232702372806,-0.445870991888,15.1743191311,0.536822433355,0.00158421259245,0.0766979033846,-0.616160982726,21.7306061033,0.434303603737,0.000530706409439,-0.0131151172971,-1.04429142045,14.1857437907,2
0.628504023145,4.23923699517e-05,0.00100551374476,0.16847701537,29.6294350686,0.628605971926,1.89087891372e-05,-0.00239418439826,-0.187017580545,29.637309346,0.628368619862,3.80369544593e-05,0.00129919994777,0.412229711566,29.6163489167,0.541029319758,0.00542906659983,0.143645637553,0.205045771864,22.3552052913,0.483798336038,0.000445959156999,-0.0673101595081,-0.226421861165,17.5875632241,0.43040415698,0.00483990560615,0.0523215147978,-0.294216219561,14.2517333908,0.45114724495,0.000547516170322,0.0281456608747,-0.387134492097,15.3055539436,0.537156803887,0.00127101088701,-0.0464913052042,-0.73919964153,21.7343622028,0.435478773776,0.000457162168541,0.0225686607787,-0.704244660319,14.2569621812,2
0.628550600187,4.27884340377e-05,-0.00125128657979,0.147113598156,29.6338556187,0.628452535643,1.90119132346e-05,0.000339159867817,-0.0965273618883,29.6228510983,0.628479716076,3.88975764114e-05,-0.000880415647865,0.35975798812,29.6268849346,0.539344093604,0.00613943312,-0.0110644944544,0.0410125054624,22.2712218988,0.484006957885,0.000835735702635,0.0401326234012,0.205177486068,17.6315495881,0.429683779589,0.0047047151247,-0.0255899030112,-0.290527870256,14.1952602024,0.450607240073,0.000686292610922,0.0274164913521,-0.677724210421,15.2793020137,0.53850715449,0.00135024546849,0.0410389900036,-0.688799534946,21.8491648224,0.434461574915,0.000425418818148,0.0631004575157,-0.73616466462,14.1882454983,2
0.62853784287,4.28308625885e-05,0.00113017061315,0.15285192871,29.6326559778,0.628527265619,1.90748024989e-05,-0.00248886892411,-0.144348098884,29.6299008074,0.628484012929,3.96080519933e-05,0.0046214138833,0.351706463207,29.6273425839,0.539130749813,0.00648783044658,-0.0864312120218,0.0698484446001,22.2797468576,0.483876978434,0.00112040421313,0.0923435423758,0.133692181179,17.6431796811,0.430247385843,0.00498552067781,0.0376850960438,-0.241533742819,14.252389507,0.449866073545,0.000843058407098,-0.0479336368688,-0.466548742867,15.2408476316,0.538806780944,0.00157574480133,0.0854699338856,-0.447385332439,21.8900611546,0.434935443797,0.00042226168298,-0.0132927200171,-0.642984029086,14.2189103849,2
0.628563226206,4.28588390901e-05,0.000216088138058,0.140841900129,29.6350512544,0.628535818926,1.95498243336e-05,-0.00263663815788,-0.141537830846,29.6307423625,0.628479834527,3.9627662791e-05,-0.00097864992749,0.353513095504,29.6269501276,0.537323103982,0.00664722780241,-0.0487055475685,0.115817185894,22.1456037129,0.48483302235,0.00130198130121,0.0372405181881,0.0897006026743,17.7260760834,0.428274013436,0.00512577237214,-0.0644417101653,-0.172599458387,14.1357044494,0.45003259057,0.000888035192677,-0.00856808677409,-0.390211015409,15.2554145474,0.537286037955,0.00162657405658,-0.0295708969279,-0.340653384561,21.7710879738,0.434475806272,0.000481790137696,0.0322912117667,-0.542378238852,14.1933444378,2
0.628334957307,4.08061519538e-05,0.0095081808434,0.216199504358,29.6133810483,0.62838594643,1.64206152891e-05,-2.72258737291e-05,-0.106399153232,29.6163824508,0.628317224738,3.90256871368e-05,0.00803226573383,0.418192510442,29.6115780185,0.540088926629,0.00694687181129,-0.268150744096,0.0634891696495,22.3912721641,0.484530601582,0.00184402121456,-0.0388898779028,0.474662741768,17.7442003601,0.430008320831,0.00597867292966,-0.389256800069,-0.199870123854,14.3104584956,0.449246245266,0.000809635208595,-0.0096881525049,-0.488377439755,15.1965771719,0.538700401604,0.00175650230957,0.145128943363,-0.288204455349,21.8948403725,0.434009875984,0.00056567320812,-0.064812139946,-0.598689619322,14.1692027513,2
0.628286446269,2.74030056132e-05,0.00225064095235,1.0268269305,29.6078172148,0.628489472811,1.4908146413e-05,-0.000532236454095,0.0587424872979,29.6260295104,0.628144364068,2.88803982487e-05,1.65623919183e-05,1.056904261,29.5945378077,0.541071847446,0.00484810082039,0.124662723906,0.494975016176,22.3156652681,0.482499357733,0.00201858171831,-0.139113761967,0.306304051646,17.6097973131,0.432015426029,0.00383914571988,0.0752685865389,0.227043858363,14.2818964078,0.451327104473,0.000853726665741,0.0215641636936,-0.341038753202,15.3403874156,0.536973889771,0.00136875773592,0.0098193419703,0.0409775689662,21.7268599447,0.435658567734,0.000456680102731,0.0172992230856,-0.426038177451,14.2686734006,2
0.628661697781,2.5118841398e-05,-0.00348899622918,1.0282387584,29.6430235635,0.628479479503,1.49048330644e-05,-0.00109412249578,0.0668095447257,29.6250871694,0.628601753895,2.70144834678e-05,-0.00285626477241,0.994753906186,29.6375114468,0.538245608152,0.00502753934631,-0.0503484179692,0.49211303558,22.1001630137,0.484203058808,0.00242908902667,-0.00299325221149,0.442527983593,17.7636977499,0.429203011999,0.00430672710448,-0.0453481670245,-0.0359090733677,14.1348397189,0.450101087224,0.000936354966165,-1.67308843137e-05,-0.399199240434,15.2636144215,0.538051453811,0.0014290065801,-0.0202552959583,0.10920713951,21.818199008,0.433980080876,0.000466800059187,0.026641574041,-0.379057479623,14.1599464992,2
0.628500745679,2.46602785663e-05,0.000594692152722,1.14362380156,29.6278139095,0.628522166047,1.53053094026e-05,-0.00161107633213,0.0490707227609,29.6291410839,0.628408546321,2.69520730273e-05,8.55470206904e-05,1.0985653543,29.6192920351,0.537907462621,0.00565777677379,-0.0296169539902,0.500525148943,22.119508357,0.484701453177,0.00263543957189,0.0632631240679,0.394151978955,17.8151849317,0.429121595791,0.00480258173431,-0.00321691642106,-0.0185175261226,14.1662918464,0.449872798058,0.00106035826031,0.0212822487689,-0.327022754022,15.2573815937,0.538159762878,0.00154161290936,0.022800502726,0.0826293935892,21.8352741339,0.434133791066,0.000510624935352,-0.0331604925352,-0.341721201943,14.1731973861,2
0.628310861517,1.25839168344e-05,0.0137518924681,-1.03347822027,29.6090216124,0.628407278753,1.14598849442e-05,0.00529500025495,-0.245611928571,29.6180261307,0.628179225984,1.64213812009e-05,0.0105044641142,-0.163897481472,29.596900679,0.539485451683,0.00660913691463,0.229517290769,0.466922809717,22.317417575,0.482408647175,0.00345053865621,-0.16077372296,0.0529212108291,17.7091975757,0.430536280355,0.00514338311362,0.123558839826,-0.0282352312243,14.2827220031,0.45064371946,0.00121945502663,0.0995365523036,-0.384297044297,15.3212218136,0.536777473331,0.00155910198712,0.0480678199566,0.165931926235,21.7251277377,0.434613983697,0.000577731599531,0.0365501382263,-0.352756780431,14.2094507503,2
0.628489769607,3.58248472365e-06,-0.00381820559913,-0.933329165716,29.6252193914,0.628442244242,7.91738147261e-06,-0.00094389570859,-0.0984812528617,29.6210599623,0.628447431293,7.43283284769e-06,-0.00445507901005,-0.171052719899,29.621513072,0.536931369685,0.00638821920528,-0.0472996684722,0.389303364684,22.0948754026,0.484783599651,0.00397813967079,0.00662949920097,-0.109463596333,17.9205177224,0.428944894486,0.00478615359837,-0.0804469058538,0.0371356925733,14.1537045542,0.449244311681,0.00137193986127,-0.0792301898894,-0.357547984908,15.2380574181,0.53776521733,0.001394541902,-0.0755182760908,0.0657059534832,21.7925532735,0.433493907013,0.00058682971572,-0.000595879973263,-0.271650797533,14.1371979553,2
0.62863491897,1.48479633736e-06,0.000652866485357,0.226543236446,29.6387494761,0.628680920808,6.73197103897e-06,-0.0023687057557,0.165568402826,29.6434756799,0.628533186757,5.438230744e-06,-0.00130001191316,0.135844900572,29.6294499432,0.537170068614,0.00683470664074,0.105830592931,0.399195440706,22.1471444875,0.485541033296,0.0041449254097,0.0244086626035,-0.141839107046,17.9879816064,0.428364783015,0.00466321023738,0.0469127930954,0.0860895651664,14.1073066072,0.450511212729,0.00139561279744,0.058693188685,-0.397566235011,15.3253018066,0.53824907176,0.00117879300256,-0.00122498111454,0.492554752344,21.815635426,0.433939668541,0.000571294491733,0.0117524964927,-0.178251037356,14.1650484874,2
0.628546894799,1.95997912187e-06,-0.00370702944858,0.779414645065,29.6304849606,0.628481953343,6.70781763669e-06,0.00123304419066,0.244789846857,29.6247138043,0.628424372264,5.58172649046e-06,-0.00531993937636,0.135069111351,29.6192024219,0.538282396889,0.00569650339848,0.2120967195,0.358449337709,22.1526366615,0.484983965021,0.00418847031855,-0.117443628001,-0.148809859962,17.9506552781,0.429306908896,0.00466252359191,0.0935576407328,0.020221396931,14.1678583978,0.451072993248,0.00136900280957,0.0737063093111,-0.224171412171,15.3613196007,0.536789222144,0.00111999822068,0.0298867116704,0.544140336096,21.6935800441,0.434074283985,0.000524335681547,0.0333361707417,-0.259057264846,14.1703371417,2
0.628555105699,2.3102352849e-06,0.00355919457064,0.717178122175,29.6312850249,0.628516572637,6.53633737465e-06,0.000490003619026,0.268200033889,29.6279648449,0.628486630586,6.06106607758e-06,0.00604355667238,0.142123424605,29.6251068808,0.538834409938,0.00553799692389,-0.00718644008175,0.363012224457,22.1855008724,0.482924541042,0.00398677271725,-0.0171545846554,-0.0831168623506,17.7862296066,0.429797750724,0.00478553707398,-0.0344726011965,-0.0132196467157,14.208587733,0.450090580394,0.00135202108034,-0.0592058078343,-0.184980386744,15.2936643519,0.538324067126,0.00100687743671,-0.0435519990565,0.572686653624,21.8089690238,0.434713935016,0.000509392077141,-0.0140002801376,-0.357144239628,14.210910411,2
0.62854183066,2.48011333706e-06,-0.0011678015949,0.7191798166,29.6300459951,0.628503832031,6.49265733981e-06,0.00230304061549,0.276426115663,29.6267604725,0.628437889992,5.84172252722e-06,-0.00228222016574,0.133640394436,29.6204959058,0.538365524328,0.00587692940239,0.0317570224441,0.36040548107,22.1727006096,0.48420845729,0.00394883176108,0.115106718263,-0.124656394612,17.8765508086,0.429878800527,0.0047776492284,0.0585072417573,-0.012202405277,14.2132297786,0.451026043835,0.00152919215607,0.084010060851,-0.170053705034,15.3699971358,0.537615044048,0.000796210953225,0.0215520857311,0.445200522985,21.7361647796,0.434640764957,0.000536526758561,0.0098940127115,-0.340098485612,14.2081475723,2
0.628557400843,2.68989890989e-06,0.00316187175796,0.644073409483,29.6315295141,0.628448601047,5.74534659985e-06,0.00358099318392,0.337910721251,29.6214984675,0.628502215483,6.19034358224e-06,0.00439701143415,0.105886103517,29.6265857004,0.540522877545,0.00636737959435,-0.00545237017048,0.328546717792,22.3835596762,0.482990072864,0.00412286146037,0.0349646997304,-0.109662592374,17.8010475345,0.429371091884,0.00453562734176,0.0257163002388,-0.142086457617,14.1626015142,0.450383989927,0.00155326966851,-0.0318435289501,-0.174777679011,15.3283723341,0.538892311467,0.000769279581138,0.0149864963378,0.482522609797,21.8372959408,0.434687478982,0.000554078013909,0.0025488569584,-0.294921802311,14.2124921018,2
0.628605023969,2.92349470353e-06,0.000503652442847,0.601367486417,29.6360370505,0.628641929445,5.52733019186e-06,-0.00397824359883,0.243881863672,29.6397096817,0.628517318857,6.5613613401e-06,0.000887366470173,0.141915261,29.6280370485,0.537336018813,0.00676446685186,-0.0130011895443,0.30532521885,22.1553203306,0.484680311848,0.00381925415529,0.0453748012527,-0.351722222422,17.9012501594,0.428029144457,0.00406165812808,0.0237573299749,0.0889644172326,14.0412338393,0.449604689066,0.00158478473295,0.0195760888995,-0.143744579703,15.2781023025,0.537750372794,0.000624796650867,0.00616636664168,0.211076511913,21.7343947102,0.434201569625,0.000494025319736,-0.0398006781046,-0.00851875494721,14.1763831035,2
0.628636947097,4.64783118674e-06,0.000523358530099,-0.261454825657,29.6391747837,0.628585134479,5.78148939546e-06,0.00218816969985,-0.123324741208,29.6343731768,0.628510892828,8.07627342349e-06,0.00060396561905,-0.149745917633,29.6275433245,0.537800701934,0.00659503724289,0.0811116917196,0.282760411223,22.180252381,0.484561458653,0.00396521634028,-0.121879907887,-0.444874321249,17.9034115501,0.429102285759,0.00335444578995,-0.0780929583721,0.12350983667,14.0578868618,0.450201858614,0.00141869895996,-0.0227719993541,-0.17898829009,15.3061122355,0.537302388728,0.000557634604832,-0.01646271322,-0.159606905316,21.6933042307,0.433778967549,0.000547263314555,0.00673410176257,0.113975088322,14.1528119369,2
0.628475549202,4.90189477895e-06,0.00109104352256,-0.0847045891805,29.6239764361,0.628399424447,5.5762154755e-06,0.000593337895471,-0.0331468587713,29.6168503883,0.628363654519,8.37519918667e-06,0.00219419393473,-0.0438777101076,29.6136859388,0.541903915844,0.0071937141348,0.0531928458472,0.224219423808,22.5568238965,0.482353671246,0.00414485095745,-0.106823991014,-0.453890623299,17.7565987832,0.431820819867,0.00353340771199,-0.0736704792074,0.206141419057,14.246663706,0.450922722833,0.00143346701454,-0.0261305295603,-0.222436480649,15.3559242066,0.537875358451,0.000663631197759,0.0659877006585,-0.124637199575,21.7473513008,0.434984826412,0.000533005278945,-0.0183551143461,0.0577967862309,14.2303273313,2
0.628584457071,5.07341694363e-06,-0.000787863800941,-0.167642905752,29.6342569082,0.628612614942,4.95522814929e-06,-0.00391019563271,0.0213848816228,29.6369031617,0.6285041541,8.40358440226e-06,-0.00131473890833,-0.10835533784,29.6269322443,0.536754741651,0.00676141071564,0.0304932861854,0.342860303002,22.1082683443,0.484640078379,0.0041364359571,0.0012959592542,-0.516785350089,17.9217966786,0.428562705854,0.00331811345535,0.000505618409279,0.225008924672,14.0204898594,0.449341165806,0.00133405430861,0.0569703473909,-0.142491756666,15.2417812655,0.537298149772,0.000644900517219,-0.00185647518626,-0.0971755042326,21.6994202694,0.434003107956,0.000493497532513,-0.00478498901348,0.155624379674,14.163421146,2
0.628511127486,5.03737898918e-06,-0.00144182628269,-0.0893630820043,29.627340569,0.628463800103,4.02211136552e-06,-0.00518290943648,-0.103242950553,29.6228037392,0.628427957641,8.1091572069e-06,-0.00066386064966,-0.0400278902441,29.6197274235,0.538455318568,0.00644429575427,0.0831704934864,0.348198901309,22.2219376429,0.485059741787,0.003492523094,-0.0869781882418,-0.397327626679,17.9046681917,0.430102317583,0.00338118833349,0.0251621527175,0.16378576639,14.1243082059,0.450697650775,0.00115279509196,-0.0100880153179,-0.0605347541766,15.3199347679,0.538114205002,0.000735320933164,-0.01048025485,-0.100130315334,21.7719310709,0.434339800723,0.000452357690822,0.0175841612296,0.19528285091,14.182304156,2
0.628553939202,5.2918055227e-06,0.00145326584129,-0.106839241177,29.63139568,0.628553090558,4.23052564684e-06,0.0018179233459,-0.115263465465,29.6312371326,0.628435891684,8.2485746327e-06,0.00216839494879,-0.0608439366139,29.6204856413,0.541703869762,0.00659494781383,-0.0100552961334,0.345778891069,22.4962573269,0.482641033233,0.0032625112122,-0.0236128168962,-0.330126225468,17.7121033517,0.431845615306,0.00359372922342,0.0220777012394,0.190663049865,14.252733622,0.450567906902,0.00101736545783,-0.0123537237817,-0.0320717781344,15.3011429486,0.53756297536,0.000760033974267,0.04814547784,-0.00225773937937,21.72928895,0.435157750984,0.000493555464653,-0.0056149531745,0.243744316255,14.2386932225,2
0.628601536709,5.16869623533e-06,0.00184056292967,-0.147951582154,29.63587438,0.628544307407,4.36099027212e-06,0.00898950469232,0.212548536496,29.6304186913,0.628545304595,8.01873407249e-06,0.00022443009905,-0.158477748859,29.630783381,0.537843979055,0.00618357646371,0.0118971429474,0.417878726055,22.1532955938,0.48451729963,0.00308855011113,-0.0304225013316,-0.336216415765,17.8353287313,0.429121344121,0.00400999366226,-0.00823905601343,-0.0126431474821,14.1076241296,0.450245510548,0.000965050256302,-0.0192577501391,6.38144790745e-05,15.2754902016,0.537787322633,0.000774525720125,-0.00408501968824,0.00503512042963,21.7484552321,0.434542393869,0.000479274592253,-0.0164407241822,0.24929685982,14.197498225,2
0.628522654665,4.6690087397e-06,0.00433797792318,-0.33868192895,29.6284000636,0.628477153743,4.77099180168e-06,0.00252669277367,0.257281187139,29.6241180117,0.628459174959,7.75915284163e-06,0.00232975950115,-0.266661568671,29.6226442715,0.536521432436,0.00761380124214,-0.0225893019532,0.394300654896,22.1525648517,0.484812407295,0.00315118088971,-0.0498869486586,-0.369165838783,17.8614176559,0.428629038488,0.00407871664702,-0.0084809008286,0.0139503743985,14.0810389795,0.450181611649,0.000862124685395,0.0486261713448,-0.0423698434521,15.2635584867,0.538347787616,0.000975935419316,-0.0377059488869,0.212267944014,21.8085947533,0.43456440445,0.000481507031055,0.0217007191668,0.243156443832,14.1990981414,2
0.628554178904,4.63241855719e-06,0.00322003607504,-0.334994974525,29.6313694853,0.628535593863,5.19019465778e-06,0.00212694007745,0.261503225949,29.6296585309,0.628428086243,7.73372460322e-06,0.00279495283658,-0.286959908732,29.6197117641,0.54178815682,0.00801423325837,-0.021109396041,0.360906623375,22.6081337764,0.482578939558,0.00320843555749,-0.0332437117946,-0.321525248835,17.7036066991,0.431680965037,0.00448334592263,0.0748135513477,0.202529937795,14.3079017664,0.450357872444,0.000933896728319,0.000655028406516,-0.301709142777,15.2807743533,0.53764249024,0.00120861601223,0.0449831526586,-0.16332211605,21.7688961332,0.43524260439,0.000486926468604,-0.0421136191179,0.274736766324,14.2437419094,2
0.628578345309,4.5929954842e-06,-0.00154941830798,-0.381153192935,29.633645096,0.628514299236,5.1042822715e-06,-0.00174403049178,0.294239091533,29.6276445427,0.628508182609,7.83524536523e-06,-0.00262689328883,-0.334317769702,29.6272699787,0.536284842089,0.00807553082104,-0.0265978890677,0.415855481516,22.1676966699,0.485186813143,0.00328978977971,0.0556808424033,-0.386304437592,17.8989127173,0.428302219715,0.00477626867532,0.00267074403082,0.2005056351,14.1116532379,0.449685753104,0.000922346051582,0.0206866966247,-0.334650209153,15.2345493487,0.537469329455,0.00122658978646,0.00541546671188,-0.144180939048,21.756263652,0.43407892444,0.000475315990987,0.0140207746955,0.332898147361,14.1670118315,2
0.628523552439,4.53514375021e-06,-0.000455965850038,-0.343524654076,29.6284747985,0.628376675052,6.16917327187e-06,-0.00656094636198,-0.161196517771,29.61474995,0.628398497982,7.68862026384e-06,0.000175920658493,-0.317935433548,29.6169193778,0.539966030821,0.00843895566849,0.130440150434,0.34914694111,22.4917313025,0.483744786711,0.00322952143225,-0.0636178428682,-0.348303418886,17.7896609862,0.429130136556,0.00488027965596,0.00261603497745,0.177826329769,14.1725912521,0.45098463712,0.00106416461611,0.0244734708838,-0.345990205621,15.3327839005,0.53799601496,0.00124401610809,-0.00522101675394,-0.173389839108,21.8000356005,0.434328846076,0.000466561788329,0.0510167743325,0.221237645584,14.1826415623,2
0.628692487476,3.70670211755e-06,0.00278258870525,0.524616503051,29.6443425816,0.628666571002,6.57880246767e-06,-0.00340742796022,-0.00159983197877,29.6421111435,0.628618275327,6.59626359698e-06,0.00533752830054,0.0239623897189,29.6375583291,0.537946325258,0.00954347989497,-0.314274661865,0.251222476233,22.4101861766,0.483526941514,0.00333308365294,0.123830900247,-0.176734235016,17.7815209281,0.427789186238,0.00558809793644,-0.162828708011,0.19576751974,14.138788337,0.448470332771,0.00159450568025,-0.0970850621838,-0.102596537162,15.2024163735,0.538276465244,0.0012609493302,0.0225273143163,-0.169205350499,21.8239267281,0.433787330386,0.000554053465113,-0.0874386957862,0.0654455514283,14.1538585567,2
0.628495985105,3.22036192609e-06,0.00112098218487,0.340403766051,29.6257785537,0.628480094029,6.59969498527e-06,0.00262001866334,-0.0356526204699,29.6245305218,0.628398068159,6.39045091654e-06,-0.000476572580336,-0.105561964304,29.6167827983,0.538368828287,0.0100799476807,0.198372258724,0.213927815524,22.4839907737,0.484886821937,0.00333363240704,-0.0273633969657,-0.274968309087,17.8803310548,0.429725492632,0.00626153258691,0.0332024917629,0.239023527005,14.3131533378,0.450719238689,0.00241167831584,0.0696195032321,-0.0247907677004,15.4145516047,0.536949973275,0.00122259132977,0.00911256527045,-0.166384733029,21.7141172934,0.435294669502,0.000573637928943,0.0346774970854,0.0605796958608,14.253557904,2
0.628576481956,3.20930528663e-06,-0.000174874467569,0.272711258601,29.6333670137,0.6285140336,6.68679901164e-06,-0.00060790573448,-0.0543365197696,29.6277366055,0.628486956366,6.27506073136e-06,0.000946212750781,-0.196192248553,29.6251534287,0.53745481151,0.010555255374,-0.118228787149,0.173534747473,22.4454144789,0.483398153127,0.00327241438303,-0.0276754090408,-0.166960566665,17.7676917478,0.428510480634,0.00668451440616,-0.0843161220426,0.297763613257,14.266246467,0.449003268481,0.00301453287602,-0.0566535249616,-0.0553525275212,15.3433705658,0.537845846212,0.00110818646133,-0.00333777413956,-0.185651364406,21.7778673697,0.433793233343,0.000643159900734,0.00328992689804,0.152830753069,14.1608365297,2
0.628516685708,3.65496740792e-06,0.00347474155405,0.226117016014,29.6277622836,0.628465535928,6.89419830406e-06,0.00345989264956,-0.0153348438601,29.6231799094,0.628422142003,6.84693255499e-06,0.00512863604072,-0.137373487931,29.619085815,0.54157064144,0.0113395419083,-0.00506762196434,0.0775335421773,22.8365330765,0.48362642663,0.00354773791803,-0.0427025323796,-0.115812987748,17.804621646,0.432315532883,0.00713990039944,-0.0411268026223,0.207987972731,14.5456066274,0.450777328663,0.00353427747537,-0.0405331786898,-0.0168650899144,15.501551536,0.538210145862,0.00109904615639,0.0344364218601,-0.203517702428,21.8065914987,0.435170077636,0.000707617476537,-0.00550893630589,0.0548381562943,14.2553384285,2
0.628584369763,3.8499320552e-06,-0.0042351053779,0.163431290879,29.6341581382,0.628561950073,6.74249898848e-06,-0.00555163641408,-0.0822537211632,29.6322583259,0.628489260208,7.28469399723e-06,-0.00277798192617,-0.139430582491,29.6254453321,0.536614731081,0.0118167082272,-0.0702095840052,0.150872479492,22.4710891298,0.484141626586,0.00378011667127,0.0517666129779,-0.165756321223,17.8592122282,0.427959477198,0.00734504163947,-0.0267832273009,0.276546355071,14.2797316406,0.45052358914,0.00417438196991,0.163022625139,-0.00696561998402,15.5317670936,0.537519387629,0.000971812201762,0.0453035770393,-0.2330068861,21.7414460087,0.433708526236,0.000798763122261,0.0250737792715,-0.00424439943124,14.1668399008,2
0.628533158861,3.69894977302e-06,-0.000719622263727,0.21280502511,29.6293186064,0.628530522356,6.64830470171e-06,0.00573869350413,-0.0912306337361,29.6292882895,0.62844173115,6.96308184483e-06,0.000785896863331,-0.0759359261196,29.6209409769,0.539752926624,0.0113087447654,0.0746576162725,0.0531704653411,22.6868387476,0.484086002763,0.00381868045724,-0.106239782594,-0.0839040680418,17.8580267092,0.430564373398,0.00673264501777,-0.026884671545,0.294920459165,14.4021417043,0.450371130735,0.00449343306306,-0.101618712578,-0.0220526071343,15.5450757016,0.538447380086,0.000952298883548,-0.0186765867911,-0.311699131191,21.8148887015,0.433854092586,0.000908091190617,0.0109548506604,0.193002288782,14.1844017721,2
0.628524601838,3.6839193803e-06,0.00409454117818,0.187579666386,29.6285107437,0.628447892419,5.80866495943e-06,0.00347108930225,-0.408844162983,29.6214363527,0.628445417641,7.33054870096e-06,0.00778586117651,-0.0561920560366,29.6213156821,0.540361753214,0.0119786284186,-0.135358949594,0.0271327765004,22.7857303282,0.482390740033,0.00397507324539,0.0402313791834,-0.0348438153541,17.7467173753,0.430172584443,0.00667254624283,-0.0870215176281,0.322216557338,14.3724023524,0.449389040274,0.0047108084822,-0.0302236979537,-0.0170406420571,15.4948880416,0.537546278309,0.000938223543985,0.0347712433625,-0.251053900749,21.7411286415,0.434990989496,0.000975229656241,-0.0461025001083,0.132336766699,14.2634540653,2
0.62853072593,3.53441578648e-06,0.00143103745459,0.0627726304945,29.6290770546,0.628449699069,5.24081555164e-06,-0.000332763708635,-0.438789578454,29.6215646399,0.628424696144,7.06701565918e-06,-1.29782912138e-05,0.0499377528801,29.6193428635,0.537107108531,0.011757231813,-0.0318792350199,0.0878918904021,22.5063386067,0.485125367468,0.00438400418346,0.0412302686855,-0.126613659675,17.9754129717,0.430239370876,0.00775587491092,0.159054672033,0.257490638629,14.4568784623,0.450564904438,0.00511935521493,0.131193715919,-0.0961303469432,15.6044872693,0.536308774299,0.000766277631602,0.086443976494,-0.596660135193,21.628737149,0.434423359499,0.000983108111162,0.0210875325554,0.180868089086,14.2270241461,2
0.628501789691,3.72307924966e-06,0.00149150386661,0.0252647335756,29.6263629813,0.628555983518,5.32382342107e-06,0.000849628001639,-0.555827953584,29.6315907941,0.62839229564,7.31098882723e-06,0.00219148461861,0.0690354519001,29.6163068047,0.54036880147,0.0124268422532,0.226479989091,0.063177647328,22.8194694469,0.483262979112,0.00450557342116,-0.193460157343,-0.117312574916,17.8491454567,0.430700982072,0.00787232382438,-0.184405126589,0.222112095164,14.4953021598,0.450330438832,0.00540806176969,-0.172462342713,-0.142029397929,15.6100093814,0.537889525581,0.000640491952459,-0.0250518191771,-0.0797813054403,21.7467820342,0.435006719022,0.000951431597514,-0.0280517792766,0.121437802032,14.2627193578,2
0.628610442279,3.88504601223e-06,0.00049643476892,-0.0627577571901,29.6366191041,0.628508899703,5.70927834909e-06,-0.00290184591212,-0.476807820107,29.627180262,0.628575131187,7.55263165839e-06,0.00151984678079,0.0149003174074,29.6335610607,0.537143965602,0.0128844215187,-0.317202329818,0.0469724040757,22.5927201761,0.48340223807,0.00453669910172,0.174483732283,-0.202281154121,17.8615450164,0.428333855761,0.00884860321728,-0.0487515283177,0.162788817893,14.4150385374,0.448910581305,0.0055980488532,0.0368663880727,-0.110232912914,15.5283088657,0.538493687682,0.000690124181391,-0.0323931353309,-0.255246216004,21.799228065,0.433837497009,0.000939821793275,-0.0341902069591,0.210953468774,14.1856698485,2
0.628508731701,4.09258682474e-06,-0.000392599809776,0.00991122817938,29.6270447883,0.628545101424,4.33528858251e-06,-0.00395483616759,-0.0380957960283,29.6304916506,0.628408784253,7.91024030317e-06,-0.00194862360778,0.0766691390392,29.6179053672,0.537553074995,0.012354695471,0.175330288758,0.0605917497836,22.5864955976,0.485818955338,0.0048153479267,-0.108822939257,-0.290638545742,18.057840049,0.430580061896,0.00933835389285,0.177292935021,0.135601749538,14.5959774157,0.451928216871,0.00593894496813,0.0793757736134,-0.207629811793,15.757415418,0.537488930598,0.00070690335866,-0.0134684377183,-0.267820933958,21.7193871372,0.435012034481,0.000951778082287,0.010858393208,0.0748595594986,14.2630918389,2
0.628562394023,3.84466986872e-06,0.00194566424129,-0.0609448718681,29.6320857441,0.628589474378,3.29545749043e-06,0.00284752064096,-0.0749460851406,29.6345984113,0.628495840701,7.90284263371e-06,0.00256505641224,0.0403398595739,29.6261114437,0.539917876563,0.0121544406641,-0.0763590174281,0.0298101621735,22.7627771165,0.482065528419,0.00514935443913,0.18870464639,-0.269222360662,17.8100902553,0.429268231001,0.00865929994088,-0.227865391833,0.166074647353,14.4611292567,0.447796257228,0.0057176057069,-0.111040124067,-0.234162607552,15.4622144214,0.537510854745,0.000726847924454,-0.0108765192809,-0.0133346323293,21.7226306691,0.434216136194,0.000833574902268,-0.00521349973823,0.132788383126,14.2024585126,2
0.628557691515,3.86619669074e-06,0.0012507021231,-0.0274295129345,29.6316439658,0.62844514811,3.55515788294e-06,-0.000991357026095,-0.074295298645,29.6210108954,0.628465108273,8.15735822284e-06,0.00136202506833,0.0923726689425,29.6232330683,0.537699942514,0.0127975712778,-0.039964348979,0.0821946497975,22.631112388,0.484963296605,0.00504505200481,-0.0590511482967,-0.260081556728,18.0125387774,0.429615110599,0.00831050092764,0.0406649101206,0.12809665805,14.4576628128,0.451013990723,0.00542577799041,0.0338052531551,-0.32473457987,15.6575290584,0.538188719286,0.000806456497685,-0.00497148100454,-0.0622850440241,21.7832100983,0.434727178724,0.000824388020667,-0.00161261961919,0.0749593682228,14.2350837077,2
0.628541097903,3.86240456037e-06,-0.00451838579435,-0.0347343236439,29.6300791994,0.628497108565,3.54832096718e-06,0.00183043840825,-0.0909668445107,29.6259087363,0.628453351017,8.34479618259e-06,-0.00581984571887,0.10511252169,29.6221385953,0.538446266108,0.0128052214356,0.0553793469612,0.0568808709608,22.6919149977,0.483344798188,0.00495187192891,-0.0195052837707,-0.233352389124,17.8881030679,0.430975824632,0.00789768226713,0.0975999785577,0.10095094401,14.514940594,0.449923431211,0.00511798726499,0.0543516784488,-0.352336725877,15.5610631041,0.537801746891,0.000852863795876,0.0471841862505,-0.0276721761292,21.7554158428,0.434526957032,0.000809349676546,0.0282236222688,0.0778616631086,14.2209176051,2
0.628539579133,3.783808137e-06,0.00553013023855,-0.0178098303224,29.6299301921,0.628559602645,3.90042539052e-06,0.00282512076534,-0.0526038039797,29.6318266872,0.628444954382,8.59235435997e-06,0.00922277674807,0.125176457914,29.6213653858,0.539094189915,0.013863301152,-0.188662917144,-0.00367851720394,22.8225752052,0.483828095593,0.00469188735691,-0.0804975068239,-0.27118759378,17.9039216208,0.42893354555,0.00783597597964,-0.117076695177,0.0896183466758,14.3786612099,0.448613515646,0.0054529189115,-0.193398785197,-0.374038289252,15.497572481,0.537484876843,0.00108643221207,-0.110306761695,-0.291330904058,21.7471454463,0.43479198123,0.000780334653119,-0.0453614257635,0.00323561734197,14.236049785,2
0.628580681134,3.71115996356e-06,-0.00233788294122,-0.0507856479979,29.6338000779,0.628517216,4.29442103751e-06,-0.00086846150103,-0.088228624074,29.6278595978,0.628506920882,8.64803356873e-06,-0.00356097899567,0.108235767086,29.6272111743,0.538566671024,0.0143287689479,0.0726221639436,0.0513610707391,22.8143833375,0.484071382574,0.00442903731306,0.0725928243298,-0.313951726952,17.9021315182,0.428988464924,0.00804171510508,0.0497790655524,0.0569513471767,14.3974196456,0.450209270421,0.00527939363805,0.147153777503,-0.449853500126,15.5923041672,0.537794309271,0.00111204640651,0.00336152215388,-0.305594130511,21.7739953654,0.433638877141,0.000584172338728,0.0466600611406,-0.220449842759,14.1464294357,2
0.628514076794,3.81357387054e-06,0.000250712791554,0.018978267989,29.6275280591,0.628478903058,4.1752288745e-06,0.00388567757641,-0.0914002400389,29.6242388361,0.628394429363,9.18558459583e-06,0.00061829005715,0.188263621769,29.6166466474,0.53998628369,0.0149465554772,0.0525649100914,0.0447673782807,22.9749340983,0.483502472105,0.00444887462151,-0.0834066939658,-0.34827899931,17.8623147619,0.429812438573,0.00905878114737,-0.0814650734564,0.0287446916877,14.5257547313,0.450408173315,0.00532691739105,-0.133321975668,-0.476949276152,15.6092560811,0.537938322652,0.00118889351432,0.0836884826119,-0.27023844917,21.7913010434,0.435419959429,0.000538013363893,-0.0240532533605,-0.242905891565,14.2591035691,2
0.628549530782,3.83030509267e-06,0.00340295389368,-0.0291906869173,29.630871891,0.628538715298,4.2969278131e-06,-0.000684772494246,-0.100052853827,29.6298867198,0.628498676493,9.48864757068e-06,0.00620929967424,0.116125244238,29.6264961365,0.539070908342,0.0154054069116,-0.180645795779,0.0551576389921,22.934808428,0.483438165392,0.00450053118389,0.152513213702,-0.404715881406,17.8614737895,0.430466311255,0.00967482861532,-0.0678467110752,0.0143346648836,14.6135307019,0.448410140596,0.00523596049412,-0.000689806371419,-0.420781903908,15.4678351407,0.53834403452,0.00133153023072,-0.0713384422148,-0.0316589903901,21.8346056998,0.43377896427,0.000492675663026,-0.0237979624492,-0.27399048367,14.1487722373,2
0.628571728871,3.46589535653e-06,-0.00461152232,0.0401177333825,29.6329378515,0.628541245561,4.18338408049e-06,-0.00572847629254,-0.00226508508406,29.6301168733,0.62849321323,9.19552143865e-06,-0.00708929899013,0.138373458382,29.6259593993,0.536907129237,0.0142995541321,0.201649226501,0.058079108967,22.6783619127,0.484126284034,0.00439819076323,-0.100927060957,-0.437639575507,17.9038355334,0.429741417092,0.0085572961011,0.149531191709,0.0715651095463,14.4840663288,0.45092462116,0.00491476481262,0.104503922933,-0.459411211648,15.6136686438,0.536984410077,0.00156158583088,0.0320720029996,0.188057764542,21.7419766014,0.43421169841,0.000482538676274,0.0217033033429,-0.309453556411,14.1761927898,2
0.628513938945,3.26263290709e-06,0.00164020112265,0.0542127576726,29.6274742934,0.628483893898,4.09324548449e-06,0.0048575820825,-0.0091521724611,29.6247032669,0.628404155552,8.79007261294e-06,0.00241552267732,0.166976874132,29.617534169,0.539986560229,0.0142125890785,-0.0911977756747,0.0530499854178,22.9206429839,0.483228849537,0.00428456000648,-0.0446582179573,-0.391981562862,17.8303165173,0.429881230046,0.00802056551059,-0.216275891006,0.0143567552398,14.4533622437,0.450496466512,0.00460511939461,-0.0941326309545,-0.45925747745,15.5618088107,0.538857005099,0.0017238450621,0.0666893636831,0.19569604834,21.9050799304,0.435127871541,0.000471409066192,0.00188623504534,-0.399683688969,14.2351041153,2
0.628577501588,3.02801784656e-06,0.00146291819763,-0.00176505090869,29.633449736,0.628501427666,3.97498997279e-06,-0.00311762342911,0.0116835719557,29.6263474926,0.628510147895,8.32281420289e-06,0.00367236431116,0.106766657451,29.6274913388,0.538636526702,0.0143072264628,-0.200481494545,0.121234350144,22.8184328506,0.483584545666,0.00421005222546,0.219294666374,-0.35699332329,17.8505948252,0.427832252033,0.00725041675338,0.121428185454,0.0609844802173,14.2645635307,0.448338304787,0.00436102826498,0.101915174394,-0.408702344796,15.398258757,0.538161418138,0.0017966771692,-0.0221723857794,0.228413349934,21.8542825084,0.433997944665,0.000448929152188,-0.0385653542079,-0.28337101004,14.1597869553,2
0.628540057037,2.68591554803e-06,-0.00322089035153,0.00439117669801,29.6298940053,0.628496527643,3.89786772977e-06,-0.000147942081264,0.0284260362162,29.6258798366,0.62847068895,7.68817098272e-06,-0.00612922825948,0.127548673623,29.6237244399,0.537322367066,0.0139697482597,0.332842846715,0.176711167176,22.6874108324,0.484454896544,0.00359631861661,-0.212301895836,-0.20461372988,17.8683685865,0.430557505885,0.00714195371251,0.072409538129,0.0270208388275,14.4319870153,0.450979285054,0.0037908538668,0.028774400377,-0.470760118666,15.5341968522,0.536550377619,0.00199483829241,-0.0858036139114,0.371153802897,21.7390911129,0.434515561,0.000409410930312,0.0441338282972,-0.179302996742,14.1905793652,2
0.62850649806,2.59452561721e-06,0.00158459703025,0.00447001728882,29.6267233527,0.62850322618,3.56293840238e-06,0.000775791125054,-0.0136569224867,29.6264865564,0.628387778996,7.54501117206e-06,0.00194219874178,0.14099830872,29.6158983902,0.541419989034,0.0140015913071,-0.0160369892101,0.168027591301,23.0212880961,0.481630044176,0.00352078084498,0.0631151353189,-0.430874330573,17.6581002415,0.431175635336,0.00746603341321,-0.184028151348,0.00851916932989,14.4959186106,0.450397480277,0.00357096533998,-0.100878078748,-0.441495995011,15.4785932031,0.538363093637,0.00224037337042,0.14714506356,0.347759677541,21.9033991737,0.434936887673,0.000380966136982,-0.0171126031504,-0.171079810721,14.2159487135,2
0.628588755732,2.25451092235e-06,-0.000285181927369,-0.0989711224051,29.6344536213,0.628551058565,3.12448656509e-06,-0.00141346754379,-0.0625351579962,29.6309637038,0.628527436036,7.19892610036e-06,0.00121371902081,0.0155968871227,29.6290380593,0.537374100621,0.0143027210363,-0.2618985965,0.275096018986,22.7162206581,0.484636636202,0.00382647508906,0.0443005970122,-0.551842522869,17.8986093428,0.428005776132,0.00762655019879,0.0871016563441,0.117833608811,14.3035355449,0.448678236548,0.00333348343022,0.0958764514609,-0.366890505131,15.3450897702,0.537466925182,0.00238464535864,-0.0488434651496,0.312415261145,21.8417659314,0.434330039334,0.000358162488973,-0.020679990493,-0.20473361577,14.1746977543,2
0.628560815726,1.95851142736e-06,0.000573156461812,-0.142164145698,29.6317973598,0.628488463374,3.10814596808e-06,0.00230972548871,0.00602125144086,29.6250611474,0.628469749621,6.62297142883e-06,-0.000309950713107,0.0191711224565,29.623557064,0.536238561656,0.0132227664664,0.108815777017,0.351814299797,22.544869344,0.485396144672,0.00377542979222,-0.0294234976951,-0.588667883158,17.9500880993,0.429374880197,0.00717792263902,-0.0598526250296,0.0750556143464,14.3583753561,0.451111578092,0.00282125488233,-0.0742030164952,-0.370532080031,15.4713970529,0.537672063346,0.00243097597427,-0.0414951461116,0.302422484595,21.8617357998,0.434630195993,0.000288137977373,0.0188543192809,-0.0830151703119,14.1890777555,2
0.628518917549,1.89564112148e-06,0.00165459377609,-0.153326814948,29.6278425062,0.628554202705,2.42587365955e-06,0.00340995590576,0.0447279143706,29.631208445,0.628418673116,6.49944919973e-06,0.00176705360474,0.016038531262,29.6187331133,0.539273238184,0.0124851081733,0.0439935195462,0.382725474784,22.7350699114,0.482438055311,0.00402489107255,-0.0176837392124,-0.441039967798,17.7538277303,0.429925542737,0.00681724736973,-0.095503471068,0.14365040199,14.3671742277,0.449612843444,0.00230123811606,-0.060533593023,-0.427629052895,15.3316697949,0.53792920462,0.0023614026458,-0.0293877744691,0.447725550277,21.8773309845,0.435198808154,0.000328014590663,0.0383065628994,-0.0960525102512,14.2291232761,2
0.628589439161,1.89532486131e-06,-0.000289937587162,-0.157747001751,29.6344914809,0.628521784108,2.42290484502e-06,-0.00182847828978,0.0748169665668,29.6281517773,0.628529547177,6.24382259925e-06,-0.00100276577353,-0.0434568290416,29.6291664185,0.536340103738,0.0130086427821,0.00378109478089,0.422333467901,22.5371925817,0.48459009183,0.00414852843517,-0.0262166254684,-0.409445431526,17.9190578867,0.428674443176,0.00632298098088,0.0218846884181,0.236203795938,14.25003396,0.449273252794,0.0024087119523,0.0141709522868,-0.345423078534,15.3167288602,0.537422455963,0.00236882883855,0.0147198080045,0.479094917177,21.837010547,0.434101554916,0.0004106120939,0.00343165106423,-0.578013397622,14.1636972935,2
0.628539233723,1.77518203405e-06,-0.000458869603617,-0.135743814156,29.6297489881,0.628467861658,2.43903945711e-06,-0.00112672493441,0.110439170959,29.6230694742,0.628446179203,5.72244249538e-06,0.000739883275252,-0.0666305673389,29.6212684723,0.539000432794,0.0126845387989,-0.0906540159026,0.441824878314,22.7277658625,0.484200841474,0.00414860354797,0.0159543362788,-0.351448988411,17.8907807789,0.429537012131,0.00587223807834,-0.00897223348026,0.226964030976,14.2721989771,0.450315251283,0.00224673661301,-0.0337582976333,-0.393222010989,15.3750454247,0.537495044828,0.00238583540716,-0.0197930084865,0.469717671931,21.8441210613,0.434668593845,0.000410337738568,0.00655931779054,-0.658511956334,14.2006239783,2
0.62853029585,1.75293695889e-06,5.70105604514e-05,-0.127097799025,29.6289046774,0.628482633846,2.61342472249e-06,-0.0043522869038,-0.183562620756,29.6244749718,0.628449795372,5.49352514691e-06,0.00104055887221,-0.08165582111,29.6215924186,0.539445376315,0.0122736454085,-0.0157539747627,0.444517404016,22.7333483123,0.483396118859,0.00400119525707,-0.0472355836223,-0.329188876324,17.8214740286,0.429764904142,0.00556915464626,0.0513766267694,0.177807283479,14.2644579062,0.449467161318,0.00208464806094,-0.0296039482176,-0.35856328642,15.3058186393,0.539006219744,0.00226436338478,-0.0905827534755,0.452595840427,21.9571407597,0.43472413312,0.000418523437321,0.0359485754397,-0.597177531045,14.2048511281,2
0.628565944466,1.89083468802e-06,-0.000707767876809,-0.170150081972,29.6322759124,0.628573185487,2.60781141967e-06,-0.000933710131179,-0.296674301529,29.6330116915,0.628500504618,5.50144106694e-06,0.000787147881416,-0.107824372081,29.6263734295,0.537523459741,0.0137677647984,-0.0439671632832,0.453795565556,22.688674828,0.484279481238,0.00418166234675,0.0290641167488,-0.283733009625,17.8989392098,0.429122688171,0.00660136766937,0.000865659513019,0.0953419814149,14.2994723202,0.449335555595,0.00236374559571,0.0076657686388,-0.278388508231,15.3176002882,0.537479252934,0.00234385683819,-0.0337237036782,0.318941093437,21.8397414561,0.434246800032,0.000477952635942,-0.00102090759439,-0.688545984362,14.1781397454,2
0.628541616201,1.8043549414e-06,0.000603251155709,-0.0995342871233,29.6299757695,0.628461506457,2.47512070781e-06,0.00256135175635,-0.249207225934,29.6224730413,0.628424829065,5.09855996586e-06,-0.000121777956271,-0.0367491383205,29.6192097273,0.540496988943,0.0127428180391,-0.0202825279486,0.396615718104,22.8532431641,0.483276993247,0.00413590714892,-0.00219605752932,-0.275447311431,17.8228060442,0.430874280927,0.00609186631037,-0.0696893987393,0.061034470545,14.3747465543,0.450752227954,0.00228384653943,-0.0599782456163,-0.345417412827,15.4073224694,0.537320734527,0.00215127977221,0.0501073246093,0.321331391982,21.8127125846,0.433989297223,0.000568249434571,-0.0252517086531,-0.470226374114,14.168053716,2
0.628529732279,1.73818325462e-06,-2.92635727706e-06,-0.0266513878233,29.6288504524,0.62850420953,2.44690092502e-06,-0.00111888972959,-0.276639155607,29.6264966754,0.628458202384,4.95830384281e-06,-0.00196691007568,-0.0797021366288,29.6223453253,0.53897308791,0.0125555702869,0.163447802149,0.423571896461,22.7160114131,0.484142232276,0.00384491206633,-0.0567417540457,-0.292178708223,17.8640510734,0.429751510259,0.00577070458591,0.0721313054196,0.119709382616,14.2785091821,0.449841902055,0.00220830727667,0.00726775477407,-0.324298852942,15.3402450018,0.537400208053,0.0023212028388,-0.0886947413699,0.222420271121,21.8316927812,0.434813148976,0.000595911002602,0.0129134856141,-0.489822550279,14.2237830034,2
0.628563824013,1.89518119467e-06,0.00078734568228,-0.0475739381842,29.6320763077,0.628494503169,2.37572228267e-06,-0.0004119545353,-0.282996797005,29.625576342,0.628496305094,4.89678713659e-06,-0.000789759434487,-0.0657310366226,29.625932776,0.537675299387,0.0118567178419,0.0193262645271,0.451615075364,22.5595016881,0.484236823724,0.00395605849005,-0.0169544329222,-0.25133096114,17.8791459371,0.429084112507,0.00541058730473,-0.0421664288285,0.158559822745,14.208871631,0.449171325173,0.00221997166873,0.0285029493659,-0.294336068473,15.2958938553,0.536832528845,0.0019713396552,0.0347019049592,0.161282817293,21.7600664364,0.434340845675,0.000739862781689,-0.0128909240842,-0.292281159148,14.2036476125,2
0.628566250706,2.01196957401e-06,0.000583397578214,-0.0448921906357,29.6323137502,0.628538320624,2.39104556956e-06,0.000313553675085,-0.249128983069,29.6297084743,0.628477646509,4.91030524075e-06,-0.000181339096343,-0.0632525891322,29.6241747747,0.537859953171,0.0118868332104,-0.000549794459143,0.410083623179,22.5766253495,0.484354856913,0.00360372309716,0.00157764100482,-0.165640748919,17.8616475653,0.428755214298,0.00521933548277,-0.0250009885962,0.110971481523,14.1735583598,0.450249224083,0.00231464557322,0.0150707421524,-0.417959517041,15.3756110565,0.537511063771,0.00183389263864,0.0162670154052,0.088468118537,21.804568831,0.434460547931,0.000885796872368,-0.0157420523114,-0.234696513438,14.2222465467,2
0.628531211096,2.48946472064e-06,-0.000594396964914,-0.100450818728,29.6290454696,0.628502793188,2.49477105394e-06,-0.000884683229392,-0.234608089466,29.6263666914,0.628440252214,5.2504952774e-06,-0.000907631790271,-0.10126895538,29.6206748318,0.540019798955,0.0117116714698,0.0179148552504,0.401096597686,22.7382674335,0.484345956738,0.00352750632763,0.0113551859033,-0.124009905809,17.8553609039,0.430071696906,0.0061656233212,0.035859475536,-0.15200227698,14.3283809617,0.450617185237,0.00253011806334,0.0328902325752,-0.394371508099,15.416417309,0.537348276948,0.00161445052162,-0.0361571575113,0.168062475339,21.775207144,0.43485679072,0.000986054446797,0.041790543363,-0.271162772201,14.2555001617,2
0.628548439228,2.47517155301e-06,-0.000545837889721,-0.161039382019,29.6306686969,0.628537740979,2.35448181924e-06,-0.00109387166071,-0.351528682553,29.6296511193,0.6284801237,5.32268328234e-06,-0.0024488684503,-0.145264899287,29.62443882,0.537345245673,0.0113345319527,0.141545060284,0.392160182723,22.4942488431,0.483604886861,0.00355639493504,0.0504384269111,-0.111490947086,17.8036997199,0.427613654823,0.00626134839547,-0.0702905244563,-0.22809026254,14.1773476156,0.449043521965,0.00261193132731,0.0213642988771,-0.375634755605,15.3162892646,0.537523734506,0.00151060726499,-0.0274797637016,0.0981320206128,21.7816673244,0.434835211966,0.0010756634309,0.032175243406,-0.253666994521,14.2607237113,2
0.628507876902,2.50203699871e-06,0.000902082100017,-0.138426861074,29.6268465004,0.628481328093,2.28032414099e-06,0.00310654720769,-0.295361666005,29.6243272261,0.628441282375,5.42150567835e-06,0.00262089034063,-0.177934592132,29.6207845959,0.539217195411,0.0112146850486,-0.0918990548529,0.403822284666,22.6365254807,0.483826642129,0.00351551987754,-0.110174250685,-0.184453010782,17.8167649435,0.431089931218,0.00619799018358,-0.0314908296296,-0.28857548044,14.3965409334,0.450068422102,0.00258913545863,-0.128968437502,-0.379369083665,15.3837148669,0.538105985396,0.00156037196948,-0.0099833748398,0.0924011737819,21.8323213897,0.434552197146,0.00108983311201,-0.0290269263764,-0.240391090089,14.2433185536,2
0.628532919038,2.76266579755e-06,0.00297741039063,-0.145771178177,29.6292267109,0.628503414709,2.532518029e-06,0.000646674922868,-0.212033207424,29.6264280789,0.628471465046,5.70679275975e-06,0.00439811886547,-0.342897085401,29.6236509809,0.537415076752,0.0107554015895,-0.255629105996,0.479174534081,22.4570220716,0.485509002799,0.00354883796607,0.162684395866,-0.320081847254,17.9415383944,0.428579919451,0.00571946128032,-0.154545542261,-0.244074244878,14.1992961865,0.449419423915,0.0022349699659,-0.029829909329,-0.375709929971,15.3137241719,0.538279323581,0.00153350065214,-0.0376658862508,0.0672652483918,21.8443263129,0.433808709811,0.00109788650925,-0.0124976320053,-0.207728953685,14.1954933548,2
0.628596195727,2.98200795068e-06,-0.00411326323487,-0.229486923533,29.6352089647,0.628525197456,2.36040647814e-06,-0.00390072715234,-0.253947184723,29.6284689578,0.628529405626,6.15960555473e-06,-0.00682812219812,-0.360491114544,29.6291468411,0.537076440682,0.0108062294648,0.270659321575,0.480722056648,22.4334937155,0.485081687085,0.00371827216975,-0.155166755067,-0.317270942128,17.9229703765,0.430572548316,0.0064862310749,0.282844021439,0.195243884551,14.3844350518,0.450128210747,0.00225393564287,0.102048762599,-0.401280051515,15.3629466958,0.536834298682,0.00145913498004,-0.0424351622071,-0.00767055573347,21.7223058067,0.434407479522,0.00123086236087,0.0577027574121,-0.253121133712,14.2443231845,2
0.628503574343,3.48116050219e-06,0.0027846307523,-0.276779068928,29.626513328,0.628564673037,2.40176443075e-06,0.00335676986198,0.151672883997,29.6321938448,0.628398793076,7.19876144529e-06,0.00137235332095,-0.312264164601,29.6169109438,0.540709228754,0.0111192647708,0.049679530346,0.420963831042,22.7503108475,0.483679843639,0.00392605708106,-0.172210355988,-0.275383595631,17.8364925597,0.430243330305,0.0075732328562,-0.118061127974,-0.0316509624659,14.4436184768,0.45069429446,0.00255711032447,-0.180621673919,-0.366581709969,15.4236271934,0.537787275358,0.00150997448838,-0.0491135427238,-0.0210332077415,21.8028746274,0.434717063295,0.00129009154388,0.0251641031543,-0.290989231053,14.2688861583,2
0.628568037282,3.85718273573e-06,0.00221530054226,-0.346025128194,29.6326187435,0.628484205395,2.97971913782e-06,0.00261856091272,0.246588234471,29.6246502316,0.628490335565,7.30632136162e-06,0.00296156221908,-0.38686671633,29.6255483101,0.537916682011,0.0096868901623,-0.190342399867,0.524697477683,22.418406631,0.483660035163,0.00362280571225,0.14316763191,-0.357229391062,17.8126148438,0.429504219782,0.00705817802101,-0.0424819455634,-0.014358252192,14.3578457843,0.44968190729,0.00225127604516,0.0357226881381,-0.408624276967,15.3326307581,0.537432526163,0.00125712494683,0.0822118959559,0.0382687712603,21.7555562594,0.433630010003,0.00135501962253,-0.0832619907586,-0.264925655326,14.2028953702,2
0.628601824147,3.952433669e-06,6.25734224584e-05,-0.350903725354,29.6358114792,0.628514429233,3.09702193678e-06,-0.00325950224125,0.245931650673,29.6275082612,0.628544424231,8.031837029e-06,-0.00184347046246,-0.336125781822,29.6307013484,0.53547157664,0.0106183357693,0.0343806737936,0.563386098586,22.2904925511,0.484985007631,0.00372236547048,-0.0376201200549,-0.292539110399,17.9162393669,0.427347461181,0.00745760589778,0.0233200957853,0.0772616187927,14.2488017798,0.44915063305,0.0026627479438,0.0663003175641,-0.508967606323,15.3272651855,0.536311949061,0.00125255664271,-0.0395829041105,-0.0481801009594,21.6649771945,0.433940700811,0.00136894304317,0.0115332256663,-0.309203462885,14.2241416717,2
0.62845155996,4.69596187818e-06,-0.00507318560096,-0.334737664191,29.6216997424,0.628431152718,8.66059773847e-06,-0.0129428458031,0.194395290755,29.6200694122,0.628379383075,9.23456730583e-06,-0.00719441642582,-0.272676680208,29.6152320385,0.540970979741,0.011599584183,0.229095386952,0.472149562756,22.8070892987,0.484309111039,0.00400062392389,-0.194553115419,-0.260996956114,17.887694798,0.43180524843,0.00805022681565,0.134103038204,0.0661767672464,14.5798997272,0.451088342561,0.00272241262114,-0.0215676762937,-0.565882825467,15.4625104936,0.537911644719,0.00111999068904,-0.00996221689805,0.0235773422639,21.7840496253,0.434935175194,0.00142095485942,0.101162807995,-0.311064604574,14.2927961562,2
0.6285343785,5.3463766466e-06,0.00601089421607,-0.235331212962,29.6295555036,0.628628757429,1.09510669337e-05,0.00880257871778,0.0799851328309,29.638868979,0.628453345818,1.05668147638e-05,0.0097950336693,-0.1828548269,29.6223025345,0.539543292111,0.0127946665216,-0.332230754831,0.446798854095,22.7798276272,0.483139996174,0.00471614652017,0.156864733764,-0.226349666369,17.8558140352,0.428631297037,0.00906932515898,-0.163875450058,0.0674350304853,14.4504892218,0.448727563928,0.00314199314413,-0.145385486421,-0.51022030295,15.3342394898,0.537904468587,0.00114218828324,-0.0555134746692,-0.00289110542007,21.7851132324,0.435609848387,0.00136144731979,-0.0882152419334,-0.403553903508,14.3324426026,2
0.628641521889,5.42678791993e-06,-0.00110833688522,-0.247764313917,29.6396638105,0.628482036392,1.14067551994e-05,0.00146631055128,0.138409248755,29.625069355,0.628550113834,1.06048955567e-05,-0.00143929817381,-0.205890627089,29.6314281823,0.535416884393,0.011980782489,0.0623992632488,0.511395692844,22.3869209111,0.485595015215,0.00475905847406,0.0567331462565,-0.303720359955,18.0373592372,0.425369709245,0.00929752862598,0.137879922145,0.0969904035486,14.2584713341,0.449351073936,0.00323677019263,0.141095452523,-0.484368058453,15.3832500678,0.537860933751,0.00110121567031,-0.00244700999439,-0.036408140138,21.7785687638,0.433764861532,0.00135578412711,0.00355720347866,-0.369261932954,14.2117246579,2
0.628488080087,5.64500283831e-06,-0.00271568624401,-0.137027425631,29.625212741,0.628481622424,1.16839934805e-05,-0.000817094248852,0.156646016763,29.6250508449,0.628407293693,1.09921099432e-05,-0.00618744203916,-0.0930942496012,29.6179929236,0.5396921553,0.0124310885183,0.181445502714,0.372419860909,22.7649722373,0.483598240668,0.00508361813703,-0.143568780518,-0.259155494568,17.9162321204,0.429347241454,0.00884171409007,-0.0258710368799,0.186802326904,14.4797158735,0.450004016955,0.00315556719935,-0.0300322631222,-0.519484304806,15.4212831184,0.537228117133,0.00101078451429,0.00879280483459,-0.0862180106467,21.7208517919,0.435146656406,0.00132771874212,0.091742174179,-0.433407745326,14.2996971305,2
0.6285378185,6.02161301792e-06,0.00168378473671,-0.0568910674135,29.6299297957,0.628474319407,1.29338603895e-05,0.00183728721722,0.118663570934,29.6244548672,0.628467608505,1.14384373012e-05,0.00361939765015,-0.0737834209865,29.6237115649,0.538232476467,0.0141213021074,-0.16019675201,0.317729066089,22.7720412603,0.483225759545,0.00526276366369,-0.0539070194584,-0.245322124822,17.9024796127,0.4302963656,0.00931289971926,-0.072271031123,0.219402854577,14.5757767479,0.44977494133,0.0034627568263,-0.0988822249959,-0.447453222734,15.4285563438,0.537672056477,0.00117787773752,-0.0590209945322,-0.0816789433472,21.7690059763,0.435080787131,0.00128657344656,-0.0197780216672,-0.524150551897,14.2923532848,2
0.628504045627,5.99120983137e-06,0.00216494374709,-0.0319988142114,29.6267435022,0.628482370684,1.28921856528e-05,0.000805371179556,0.0907810871385,29.6252107913,0.628397136306,1.11017780427e-05,0.00293127525923,-0.00494433688288,29.6170436004,0.540286262977,0.014207075413,-0.0939541997864,0.298139922776,22.9445170277,0.483716649021,0.00520785014012,0.0805418842124,-0.254275438638,17.9340156509,0.429792428424,0.00985713767652,0.00291412496249,0.234761354937,14.5835430528,0.450319966678,0.0033308987903,-0.0505064397418,-0.468418677849,15.4555919397,0.537820127484,0.00111487341696,-0.0200134999932,-0.0482635749556,21.7762873474,0.434241305444,0.00126981035863,0.00965979578287,-0.47273763958,14.2363793181,2
0.628579267028,5.80143722936e-06,-0.000333501936136,-0.08941342592,29.6338214267,0.62854026345,1.30710684237e-05,6.62800315693e-05,0.0350625459102,29.6306819674,0.628501372158,1.06161066302e-05,-0.00158100040933,-0.0285711805252,29.6268337022,0.538052219637,0.0141366618106,0.0620325951191,0.325921881264,22.7586273032,0.484337839522,0.00494326028702,-0.0111002957148,-0.245318617686,17.9595369707,0.428375849806,0.0100456166708,0.0851739615285,0.263483271849,14.5063157859,0.449527403767,0.00323820586645,0.00989737543385,-0.447324233928,15.3952437394,0.538062687398,0.00123963963755,0.0104665193042,0.0951522104503,21.805092501,0.434340454539,0.00124453067695,-0.0133091329573,-0.481143995235,14.2409675538,2
0.628607469348,5.64934527421e-06,-0.00183656192793,0.00586839267089,29.6364693406,0.628532668031,1.30815724257e-05,-0.00200324441532,0.050801456052,29.629966645,0.628554144731,9.98100059534e-06,-0.00342488232203,0.0483765243439,29.6317620584,0.535953652969,0.0136025828465,0.100840875317,0.312828269155,22.5500649904,0.485403360473,0.00463287134107,0.0661594407562,-0.26946314752,18.0140641561,0.428511394595,0.00814451244118,0.10914358248,0.238252658502,14.374345068,0.449818863904,0.00323052998305,0.101948544003,-0.420571049519,15.4143349931,0.537841065478,0.00117198621707,0.0485178773839,0.114153541827,21.7822028587,0.433011743947,0.00114214092833,0.0111554397506,-0.455302423857,14.1469562084,2
0.628506640288,5.48123374196e-06,-0.00321045771461,0.0963144608826,29.6269503777,0.628456131274,1.24087934523e-05,0.000837190503188,0.0782018356122,29.6227014209,0.628399966475,9.57888609702e-06,-0.00394921909948,0.137370408488,29.6171976775,0.540765703318,0.0138800684617,0.129377009997,0.224351160565,22.9591910075,0.48233497358,0.00485291456742,-0.129574535308,-0.261400574956,17.8076426833,0.429813261754,0.00824777094892,0.179801227463,0.156722095465,14.4657930487,0.450619284655,0.00321911048314,0.0432854460553,-0.483399908619,15.4675446535,0.537052619738,0.00110416614119,0.0363250963346,0.123053387522,21.713622022,0.435181505307,0.0010768368697,-0.0134645958756,-0.526316492893,14.2834066204,2
0.62856377888,5.13851507934e-06,0.00373006877566,0.0794398535432,29.6323120591,0.628519211008,1.2200888765e-05,0.00238363077768,0.0484304797208,29.6286327612,0.628505936177,9.53673279214e-06,0.00706956008352,0.0819432937007,29.6271841039,0.537302327341,0.0139483146148,-0.268297342201,0.258164140944,22.684209604,0.483811209789,0.00509481607402,0.120535571278,-0.317390507409,17.9325128933,0.428614587969,0.00797451780617,-0.1505372132,0.207548263089,14.3683991941,0.448239798623,0.00317679671211,-0.0329753182794,-0.417253181614,15.3040017369,0.538454665037,0.0011989837185,-0.0865730129172,0.264297649071,21.8337317677,0.434663171083,0.000977874791018,-0.0415893265213,-0.532677019724,14.2422681567,2
0.628609584545,4.9772857253e-06,-0.000628980913089,0.0357190015237,29.6366190528,0.628561492587,1.3159557246e-05,0.00432680096106,-0.0556484164131,29.6326900545,0.62856532366,8.98715741368e-06,-0.00193497591411,0.0424525115089,29.6327425078,0.534631251329,0.0135289330107,0.0360762514892,0.296746242756,22.4384341601,0.485442883462,0.0052413433117,0.11619155164,-0.370511725574,18.0619688878,0.427527246695,0.00817561131289,0.00722705694991,0.23429330598,14.3134612372,0.448884540082,0.00298333872566,0.0964159731966,-0.312548574437,15.33306684,0.538052671706,0.00112940640237,-0.00352629998463,0.46318232452,21.7961268885,0.433632739161,0.000905936479284,-0.0143660047915,-0.470871582136,14.1698407349,2
0.62850286261,4.01543010892e-06,-0.00443424310995,0.159421493781,29.626485765,0.628480887962,7.56771596162e-06,0.00637038891046,-0.136025227275,29.624677001,0.628397318152,7.80846292544e-06,-0.0046698159115,0.155584985889,29.6168170358,0.540680429222,0.0130368992556,0.213758562613,0.240807132934,22.8898800357,0.48411852272,0.00504370302161,-0.227289407324,-0.361564925221,17.9510398267,0.431056631285,0.00763788343949,0.101210908754,0.129596017984,14.5009398276,0.451858574287,0.00280559727658,-0.0311847867131,-0.352232125325,15.5208270352,0.537612129936,0.00123295046967,-0.0415594049296,0.410806774831,21.7682485039,0.435032169697,0.000858049797272,0.0453914929991,-0.550798217332,14.2574698353,2
0.628552398842,3.66329469519e-06,0.00309672642581,0.219600513773,29.6311299405,0.628428118879,6.18013427594e-06,0.00126839925488,-0.292145739539,29.6195998748,0.628423724443,7.16738937259e-06,0.00548310393182,0.124301754856,29.619258695,0.540479776045,0.0131586863012,-0.248130692374,0.230814764848,22.8826219098,0.481114982568,0.00443185427026,0.112319669373,-0.365171851097,17.6883291999,0.429909047965,0.00717295037649,-0.24327820369,0.230603451534,14.3924325421,0.449727520509,0.00241180050633,-0.0502844894653,-0.349422709659,15.3475864402,0.538478825376,0.00140295115817,0.100272601312,0.412444952794,21.850776789,0.434754766174,0.000778217247186,-0.0454653110224,-0.516878743783,14.2334660796,2
0.62856929518,3.21595807324e-06,-0.00168250079376,0.148295405327,29.6326898941,0.628509449913,5.97138021247e-06,-0.00368899865775,-0.311195527124,29.6272515294,0.628531244808,6.63389715932e-06,-0.00223679191424,0.0257342810686,29.6293553359,0.535829140969,0.0131383204493,0.087572784279,0.355010540569,22.5057008366,0.485178825232,0.00421177140844,0.0113793975029,-0.399257501547,17.9665580182,0.427869560342,0.0062941023964,0.0842428458337,0.276168508564,14.1961906274,0.449018334366,0.00207647036297,0.077256750687,-0.308394276877,15.2749686516,0.537354981737,0.00151639352368,-0.00213547818529,0.42552462895,21.7684913506,0.43416852066,0.000726140309352,-0.0297667277405,-0.54829929176,14.1914072078,2
0.628539023594,2.42522574084e-06,0.000904685573747,-0.0681528506544,29.6297772803,0.628458520116,5.19767737997e-06,0.000260994754193,-0.539820500414,29.6223929911,0.628461315378,5.79322642126e-06,0.00136550765884,-0.0432526985458,29.6227005683,0.538601935282,0.0124118704782,-0.0356849841489,0.404063493595,22.6753817671,0.485121999743,0.00416786588616,-0.0390891777354,-0.416074646084,17.9591736732,0.429090132337,0.00611489523459,-0.0675397654425,0.314693102278,14.2613778726,0.450484302923,0.00181800312309,-0.0828152019498,-0.240791768259,15.3547402696,0.537935996405,0.00162027182842,-0.0418194972772,0.392317804076,21.8230353325,0.434975670177,0.000583100951339,0.0306655766348,-0.351501193282,14.2334369938,2
0.628566305271,2.56683073279e-06,0.00110563998031,-0.130723691843,29.6323599546,0.628531675569,4.46638827515e-06,-0.00279713625199,-0.42560224329,29.6292355523,0.628441116035,5.8146937239e-06,-0.000506159713302,-0.0851415027949,29.6207980115,0.540370859281,0.0112607261501,-0.0521772250134,0.443741331334,22.7333436521,0.482619101169,0.00437876052787,-0.036842211856,-0.3822634494,17.7931180401,0.430603075538,0.00599662066284,-0.0731444132003,0.257020427964,14.3501755788,0.450029823215,0.00156309032836,-0.0201907286107,-0.374102061062,15.305181818,0.537245661319,0.00149704961976,-0.000770690991029,0.46349050023,21.7582492173,0.434070102931,0.000590476977222,-0.000368494263695,-0.385437300128,14.1749593657,2
0.628543583373,4.45183894965e-06,0.00847090709255,0.215261821129,29.630357151,0.6285218966,4.86615103437e-06,0.00527198159469,-0.236010048004,29.6283431831,0.628466544004,7.44601454049e-06,0.00411697451941,-0.291587005917,29.623315775,0.540296747443,0.0111167749459,0.309491705665,0.482729036684,22.7166844933,0.483990453631,0.00420435922836,-0.114254529695,-0.400772535184,17.8796295233,0.430889198646,0.00559887084068,0.146105243762,0.215359902395,14.3392290554,0.450251599508,0.00152888187141,0.0670072373388,-0.337713931369,15.3176249729,0.53656965961,0.00157412615438,0.116303388644,0.487076116568,21.7095103065,0.43413604905,0.000572770320858,0.0283214875775,-0.339882133388,14.1779431851,2
0.628342608694,1.41586571072e-05,0.00713755792972,1.11584992367,29.6121302832,0.628409365891,7.46930249453e-06,0.00593068178986,0.383561196193,29.6179275639,0.628256275224,1.65999228232e-05,0.0080830848049,0.5795069637,29.6041744462,0.540148514036,0.0122683591593,-0.157480739428,0.504993861559,22.789889869,0.48263961673,0.00434045560751,-0.00433201094341,-0.329050164683,17.7917686877,0.430171349923,0.00630435760882,-0.0901475890308,0.309564612531,14.3450767351,0.449947742432,0.00174212158043,-0.174126580642,-0.455545676409,15.3128898159,0.538026387658,0.0015646184625,-0.0188151907749,0.384182902077,21.8262113025,0.435009522907,0.000620505103201,-0.0540447535674,-0.320858486906,14.2384137541,2
0.628636571424,1.61037480472e-05,-0.00307464454579,1.03443772407,29.6399870973,0.628562024141,7.69795808685e-06,-0.0024256597697,0.265056714011,29.6323360133,0.62858832408,1.80239914265e-05,-0.000698261906273,0.510696266753,29.6355798631,0.536680455357,0.0124418866967,-0.0885224107544,0.595319062856,22.5226429527,0.485436409574,0.00522574381927,0.144974498771,-0.46405074478,18.0603431231,0.427638278432,0.00596535097561,0.143114946365,0.396815883036,14.1570232607,0.448745877059,0.0015600669207,0.0772766229904,-0.53529472052,15.2184096154,0.538122170883,0.00159404104358,0.00525039192554,0.392603416057,21.8361193469,0.433547434834,0.000595859702858,-0.0607949113687,-0.26875563593,14.1413469869,2
0.628574931208,1.69790411956e-05,0.00292117704751,0.981102781072,29.6342397598,0.628514239693,8.0717029291e-06,0.00242588408743,0.29542455533,29.6278585183,0.628484608866,1.92079356779e-05,0.00164489712827,0.485446927346,29.6258891559,0.537514415719,0.012275750815,0.00484096499221,0.624700749854,22.5775365933,0.485408838894,0.00597740973529,0.0662141370374,-0.531813586648,18.1139588861,0.428673241659,0.00568070586931,-0.0935428820066,0.473232678823,14.2024283429,0.450262043459,0.00127578185919,-0.0150144274756,-0.588538184367,15.2996009411,0.53769681636,0.00156521685765,0.00260898375524,0.311575220238,21.7996660217,0.434129867933,0.000672333366002,0.0688027929171,-0.257924371668,14.1849083364,2
0.628516471086,1.69526596125e-05,0.000172928597777,1.0251969118,29.6287260788,0.628434029407,7.4987167473e-06,0.00643222820589,0.34541813475,29.6202546038,0.628436831226,1.91649257768e-05,0.000507631698183,0.512851967896,29.6213820176,0.540077824783,0.0122450629514,-0.0915970420406,0.566839833973,22.7824389201,0.482978449693,0.00652163301728,-0.0152625770919,-0.472037025887,17.9777145584,0.431249147481,0.00578136952505,-0.0840535881519,0.398853069455,14.3760083851,0.450084136295,0.00126113881276,-0.044068085825,-0.556311211009,15.286504003,0.537285545417,0.00162573235851,6.95654596063e-05,0.230024582665,21.7709859931,0.434934132065,0.000733391206291,0.00374997950497,-0.382237621978,14.2418483919,2
0.628592198704,1.67683276759e-05,-0.0015493944302,0.989544800644,29.6358522766,0.628445741751,6.70283231332e-06,-0.0009830181126,0.5990724421,29.6212997839,0.628499359936,1.87676209878e-05,-0.003713537162,0.49005183411,29.6272472119,0.537326747265,0.0111852174497,0.214581143187,0.661795011663,22.4817085908,0.48440390147,0.0062986370379,-0.0470506105898,-0.562947731093,18.0646346227,0.42818268613,0.00506225443998,0.185577090966,0.46947855207,14.1251377812,0.449492176513,0.00106402794427,0.0985929759041,-0.546154879364,15.2319793238,0.537285936675,0.00145314298162,-0.0678386529908,0.236163678539,21.7582459118,0.434005995986,0.000741453340372,0.0219408132337,-0.343285862033,14.1819578886,2
0.628590826969,1.66853367626e-05,-0.00138057639234,1.00015570027,29.6357167961,0.62851884358,6.29070669986e-06,-0.00159205224211,0.543906826183,29.6281607675,0.628506675322,1.85225599656e-05,-0.00419232152623,0.494162957608,29.6279187387,0.537002076846,0.0108050089032,0.159526728426,0.66081375799,22.4274129491,0.485079840764,0.00612512562061,-0.0708147317556,-0.594046671983,18.1009431896,0.429380596991,0.00524579686306,0.163490777119,0.36445523733,14.2157662483,0.450446620033,0.00110962477918,0.0494740437093,-0.700130505322,15.2997740461,0.537605695712,0.00142359934961,-0.0330484017994,0.264812521836,21.7818376566,0.433367102619,0.000732735472366,0.0475222038389,-0.308330214255,14.1397508474,2
0.628593949816,1.79631115466e-05,0.00511199170116,0.945917391378,29.6361058012,0.628447997852,5.69989216482e-06,0.00245853086023,0.748349436653,29.6214382424,0.628529550472,1.93708122199e-05,0.00462854254532,0.506354903874,29.6301381264,0.538230959079,0.0103587508209,0.0382488561474,0.629155825821,22.4934899591,0.484051300631,0.00608136575234,0.00379960176327,-0.56890317691,18.0229456889,0.429213667683,0.00558894503154,0.0378468116969,0.199888603545,14.2304098718,0.450045365066,0.00127869892241,0.0303106000545,-0.679735455075,15.2851860165,0.537179500665,0.00156243601651,0.0146571663437,0.160225653529,21.7577564604,0.434197554326,0.000806900507944,-0.0102173926809,-0.286561789112,14.1992743513,2
0.62847960737,1.83666050431e-05,-0.00156187168836,0.983054953285,29.6253553948,0.628491742689,5.89704282219e-06,-0.00139199489127,0.648024093062,29.6255766783,0.628392112965,1.94885902915e-05,-9.35597576407e-05,0.583589666353,29.6171907284,0.538935191696,0.0100583948094,-0.107760879196,0.572835435294,22.5281567795,0.483544385064,0.00680650481333,-0.0394157650013,-0.557292327891,18.0398192807,0.429833968303,0.00552915619683,-0.0443470744653,0.0660996385897,14.2659505816,0.449395930805,0.00138077566544,-0.0690454558121,-0.554041344647,15.248930096,0.537887277645,0.00171908175996,-0.104255319057,-0.0417317175388,21.8264163091,0.434538705179,0.00101768858111,0.0444126001937,-0.342267892285,14.2371004274,2
0.628608371741,1.90981119155e-05,-0.00307539275649,0.87581549919,29.637549637,0.628498610401,5.80239204687e-06,-0.00234891567687,0.642872713445,29.6262171228,0.62850168501,2.02290190471e-05,-0.00545404045011,0.506029455267,29.6275745519,0.538870255846,0.0106220199882,0.21537994699,0.594680525267,22.5646159268,0.484192757822,0.00694499894026,-0.0962583331414,-0.615326267393,18.0971269261,0.430933892675,0.00668954689303,0.248376652183,0.653235494943,14.4228279593,0.450690806625,0.00141285863867,0.0631024696742,-0.447038137268,15.3387167775,0.538629696661,0.00172542314776,0.0290992336096,-0.167409938672,21.8868275723,0.433991484348,0.00120515301475,0.034571086962,-0.378324999272,14.2153269596,2
0.628527258373,1.92721698686e-05,0.000691825976017,0.908807660035,29.6299147294,0.628472356564,6.45809477065e-06,-0.00278852306626,0.491959374937,29.6237906214,0.62846389344,2.04190331411e-05,0.00143195337707,0.512319493371,29.6240259103,0.538169628396,0.0106633879418,-0.0204292416955,0.585358467213,22.5110818773,0.484280788435,0.00708872804175,0.064125281644,-0.581788015112,18.1141570286,0.429297439669,0.00762080399044,-0.00876595407811,0.285017182569,14.3861613733,0.449477582971,0.00155790691136,-0.015862701617,-0.42576872541,15.2675424309,0.537297925006,0.00178040833584,0.00201002477575,-0.0587691493891,21.7834297331,0.434403232018,0.00120565966849,0.0205250726515,-0.390644486957,14.2421814146,2
0.628357106177,1.22154716087e-05,0.0115637625016,-0.441122594371,29.6133529111,0.628398318972,4.63049739701e-06,0.00751180268563,-0.712408797119,29.6166762033,0.628295087614,1.43886535108e-05,0.0105480542492,-0.501255324163,29.6076685444,0.538189161092,0.00995435998897,-0.0115698192594,0.566909850831,22.460190623,0.485638131801,0.00738025585458,0.00247094852606,-0.592402787633,18.2344685627,0.42944347526,0.00822662289417,-0.0171423555473,0.257342767156,14.4403974774,0.449853364379,0.00156177828088,-0.0449077050229,-0.464904890252,15.293175301,0.538346565125,0.00169587195558,0.0168120501007,-0.197609379631,21.8617713383,0.433841667742,0.00128934459483,-0.0504137084367,-0.392098593057,14.2118059502,2
0.628502244298,5.68492038161e-06,-0.00331704914653,0.378237043909,29.6265510157,0.628485336102,2.9227132535e-06,0.000333966300399,-0.405538979067,29.6247526079,0.628445224081,8.35444750603e-06,-0.0028187244509,-0.0449057365342,29.6213732044,0.538806657962,0.00888226179668,-0.0457179487925,0.515724159859,22.4307334728,0.48489910543,0.00783284292166,0.208553673783,-0.616861365889,18.2141660597,0.429850070847,0.00877877520073,-0.0628337048329,0.210889072515,14.5074606204,0.45030426921,0.00133238304178,-0.0178230413668,-0.35065724063,15.3066414602,0.537710416761,0.00170015266405,0.0228208461632,-0.155882715988,21.8107482191,0.43412474125,0.001413971209,-0.00536200181619,-0.482933023541,14.2394556919,2
0.628589590569,5.10200132807e-06,0.00138058428225,0.408236628207,29.634743051,0.628522804458,2.90548208339e-06,0.00145778057691,-0.414456897342,29.628283685,0.628473139401,8.35146192516e-06,0.000549480929628,-0.0201676746567,29.6240045293,0.540267655542,0.00960274615425,0.103329860195,0.586015937131,22.6022886873,0.483095910426,0.00751680307955,0.0592448564221,-0.612842281622,18.0598678282,0.430519736243,0.00920073713506,0.142511785992,0.285503919453,14.5818977951,0.451023998352,0.00132577945522,0.00152536721184,-0.365014956108,15.3548062114,0.537187929022,0.00165714629832,-0.0528811810812,-0.128019559912,21.7654441576,0.434340251665,0.001457172327,0.0194482149213,-0.506586943401,14.2566898184,2
0.628502240732,4.62650424824e-06,7.44996185742e-06,0.499547658463,29.6264723567,0.62850614951,2.60623136062e-06,0.000497685154207,-0.521998446679,29.626691359,0.628435385689,7.88253705939e-06,-0.00098718956939,0.00416897350528,29.6204108567,0.538658758846,0.0105144980136,0.0787581536446,0.548194316734,22.5395672391,0.484647603318,0.00653155213434,-0.0835436266459,-0.601363964882,18.0995823131,0.428179744036,0.00941608672696,0.0390884271857,0.288117197951,14.447132408,0.449405032152,0.001336228828,-0.063772248708,-0.34507297654,15.2462471525,0.538032296173,0.00174317835771,-0.0661142270675,-0.0960706972655,21.8399015779,0.435104876069,0.00150132252017,0.00844612697261,-0.44707220854,14.3098168549,2
0.628548632044,5.01562504356e-06,-0.000515376815196,0.350354970593,29.6308748696,0.628513319227,2.61970160282e-06,0.000815298764296,-0.500704177787,29.6273682913,0.628499066966,8.47722728165e-06,0.00125837882035,-0.113445203062,29.6264581031,0.537773971231,0.0111338136246,-0.0227035273358,0.57281761844,22.5139655182,0.484787349443,0.0067356015606,0.0609761511345,-0.610528782464,18.124842579,0.42987139161,0.0106783766923,0.0391220417373,0.2355375052,14.6494058746,0.450382847855,0.00131560018238,0.00588647788736,-0.415167277492,15.3107076367,0.538169607331,0.00185913683057,-0.0512861366346,0.00380894824291,21.8595655946,0.434565348071,0.00158454309335,0.0176793659858,-0.427075291205,14.2807843197,2
0.62857981404,5.30844400382e-06,0.00251067999922,0.284950750116,29.6338365213,0.628498514073,2.87572210738e-06,-3.31761010619e-06,-0.551823106148,29.6259914678,0.628521604214,8.90121914867e-06,0.00210142295016,-0.131083049573,29.6286142125,0.536679219593,0.0121402750518,-0.110217793763,0.544312333069,22.5002242095,0.48483120057,0.00691898402812,0.0499537040867,-0.557655119294,18.1416017966,0.428927633239,0.0113535710643,-0.114460128323,0.210084381654,14.6385828504,0.449018003845,0.0014738707992,-0.020673109111,-0.304286778863,15.2303540224,0.537792035789,0.00180639497608,0.000945749082348,-0.0121068933387,21.8251937601,0.432979557359,0.00164279707923,-0.0509302887566,-0.356769656329,14.1819142657,2
0.628582602052,5.44760114061e-06,0.00574357043634,0.251107232775,29.6341096926,0.628600966647,3.92415746789e-06,0.00467298895064,-0.173123334577,29.6357285329,0.628583231737,9.19938755258e-06,0.00370335584961,-0.195095099296,29.6344466962,0.534812147575,0.0122414141176,-0.00810143501897,0.60585240853,22.3576671342,0.486562944243,0.00755800396016,-0.0672280419458,-0.574535349762,18.3150546963,0.427303670733,0.0109335258033,-0.162274893367,0.267096349838,14.5032129361,0.449667443497,0.0012775081603,0.00194764717031,-0.226070409738,15.2595963344,0.53865561121,0.00174104632233,-0.0736167598108,-0.00355776361804,21.8900774895,0.433318477191,0.0017185978269,-0.0465495828794,-0.353404579098,14.2095439399,2
0.62845828563,4.20362054386e-06,-0.000403198786574,0.0407066996589,29.6222973262,0.628532129769,5.68055000329e-06,-0.00104635161147,-0.10464235826,29.6293682221,0.628419763672,8.92936547115e-06,-0.000421599306369,-0.333120674106,29.619015726,0.537838845743,0.0123066767963,-0.00337628938542,0.530879203451,22.6059908822,0.485916788668,0.00767871019731,-0.0692850420553,-0.508411702659,18.2768589678,0.429823957255,0.0117146567985,0.169136961455,0.304470470065,14.7230321703,0.448708411403,0.00106819974556,-0.0176817496731,-0.115977151208,15.179489666,0.538470270047,0.00157838922062,-0.113863803098,-0.0495967199894,21.8630681816,0.433666799064,0.00172030364653,0.0373211393596,-0.429457421965,14.2323194156,2
0.628653331171,3.68926203115e-06,-0.00550896830416,-0.00822250127088,29.6406488148,0.628542768765,5.53779251124e-06,-0.00132780826849,-0.0811893489649,29.6303607091,0.628543669029,8.72951103042e-06,-0.00864352944961,-0.409665409616,29.6306817745,0.538259562167,0.0119907411403,0.209043595115,0.518915283808,22.6165665642,0.48437288887,0.00691119467664,-0.106125701564,-0.457704986263,18.1077105665,0.430174978896,0.0117776353846,0.0283299720864,0.313713759123,14.7503334536,0.450346786536,0.000991527207485,0.0419847656971,-0.230513130255,15.2842901241,0.538090623415,0.00134333189332,0.113700087003,0.141509126643,21.8150204857,0.433141037628,0.00158209717812,0.00586371068581,-0.422845121264,14.187912077,2
0.62849651999,2.91681270724e-06,0.000311232727176,-0.314712962372,29.6258065171,0.628443182308,5.25469516366e-06,-0.00325109090798,0.0101342601424,29.6209513517,0.628404866185,7.70960639643e-06,-0.00115644925957,-0.472657850649,29.6175211993,0.539299029576,0.0108619024535,0.153718906864,0.512854901011,22.6170390292,0.483343546462,0.00661370412031,-0.176677206841,-0.439651603197,18.0109878979,0.430273540645,0.00932610898218,-0.0192769677246,0.282412187979,14.5752810481,0.450450731783,0.000783068642961,0.0424646413697,-0.232332934969,15.2758867119,0.537525349435,0.00125013666978,0.00953815084718,0.197591548989,21.76252271,0.43487455033,0.00145838355182,0.0703904566141,-0.423214270012,14.2916109722,2
0.628520796888,2.61190318715e-06,0.000748252161494,-0.30049136726,29.6280726899,0.628450505516,4.78712608749e-06,0.00099612479199,0.0264140585637,29.6216070885,0.628406855596,7.34843625606e-06,0.00219021404646,-0.482677580038,29.6176819963,0.541367279729,0.0108723137787,-0.145083687616,0.496049107272,22.7854410867,0.482362441376,0.00632567936293,0.00222643894188,-0.447830557038,17.9186146366,0.431175741487,0.00920626614987,-0.272186327734,0.253529529603,14.6247026986,0.449910058361,0.000739879026817,-0.0361969570917,-0.188403356591,15.2361805941,0.537554853619,0.00134562905986,0.142103480375,0.0707695933489,21.7719680991,0.435429491168,0.00145995762405,-0.000776180337076,-0.450725476844,14.3279499976,2
0.628531038676,2.41844375211e-06,0.00230823343926,-0.332897694743,29.6290239583,0.628498994945,4.67064598734e-06,-0.00167496658088,0.0154801276186,29.6261696263,0.628449990359,6.88264698865e-06,0.00585414137875,-0.538137216009,29.6217135946,0.539466702671,0.0102891998895,-0.155153287677,0.559788325766,22.5882250386,0.483819254873,0.00570244011783,0.154498344746,-0.508588198771,17.9780609227,0.429106892591,0.00744049228218,0.021644464911,0.19698524366,14.3605508241,0.45075509847,0.000696704041008,0.0260564448639,-0.0800126825657,15.2900680088,0.537980516789,0.00137154685985,0.0145484648714,-0.104833784912,21.808222201,0.435371689003,0.00146202547028,-0.0125880802517,-0.371202213417,14.3243279537,2
0.628578361208,2.29426689309e-06,-0.000935701760214,-0.329525237894,29.6334764892,0.62854099647,4.98410142212e-06,-0.000210296409098,-0.0555400890618,29.6301526418,0.628516659485,6.04206300566e-06,-0.0011472267726,-0.62207793958,29.6279364564,0.536710200133,0.00957731331074,0.0350389572217,0.632528024066,22.3130591045,0.485627006503,0.00441311502998,-0.0522361864273,-0.397055461577,18.0140897206,0.428539786633,0.00691966300078,0.060083161116,0.328724319358,14.2855312166,0.450473718803,0.000771803666284,0.0589629625429,-0.0843002016503,15.2766063212,0.537849253017,0.001394345935,0.00267814691201,-0.0696230025704,21.799318022,0.434925588358,0.00144354231578,-1.88202141592e-05,-0.233584269257,14.293842187,2
0.628583400539,2.17944479468e-06,-0.000979873709354,-0.306074422117,29.6339431364,0.628409441823,6.09102110457e-06,0.000290922316224,0.0187382877297,29.6178327285,0.628507118361,5.30639807357e-06,-0.00367238922735,-0.625160822173,29.6269825107,0.537460415614,0.00740957862989,0.184264234105,0.566851838033,22.213086195,0.484501586935,0.00380070715634,-0.0664370417539,-0.387724324173,17.8868864102,0.429354301278,0.00578732587654,0.052691928962,0.274227096198,14.2541458168,0.450120314394,0.000685607723863,0.0392581540812,-0.0679447097306,15.2463572788,0.536819238361,0.00128837210969,0.0395102305327,-0.0721074363743,21.7084566367,0.434465898397,0.00137189082528,0.0564571992879,-0.187782688215,14.2585661863,2
0.628516798916,2.05387286256e-06,-0.000370722352322,-0.37265451662,29.6276544755,0.628446076888,9.62646509207e-06,0.00340398630196,0.222903745769,29.6215477251,0.6284519529,4.71141933181e-06,-0.00140943586481,-0.699854623916,29.6217379278,0.537567828679,0.00655434987964,0.0498214911815,0.591487990094,22.1584596734,0.484396418426,0.0034706269841,-0.0464857118465,-0.422402205013,17.8548181606,0.429086842906,0.00571813919364,0.0520685910892,0.26342866312,14.231806207,0.449829210011,0.000758325988707,0.0145979950134,-0.190923534292,15.2320899866,0.537912542499,0.00127004853365,0.00875017692587,-0.140852825183,21.7952263448,0.43461871511,0.00114849555858,0.0368600666588,-0.145975043752,14.2519957356,2
0.628523749044,1.88792651657e-06,-0.00237580780521,-0.326690700127,29.6282974399,0.628468175238,1.02591232717e-05,-0.00378545246756,0.2389943378,29.6236777217,0.628423898082,4.68664851903e-06,-0.00271984981804,-0.457086517253,29.6190914881,0.540988478308,0.00654992098992,0.071309914308,0.494453816783,22.4348341779,0.483088562007,0.00333923329309,-0.0319355911074,-0.370515737202,17.7501951694,0.432487082679,0.00424781536587,0.0187810887395,0.406479089973,14.3427190884,0.450948970261,0.000818708647222,-0.0141311257625,-0.127423145256,15.3122074734,0.537867872811,0.00112438216702,0.0201146055737,-0.3173871349,21.7808429255,0.434211037739,0.00114145988847,0.0175410505362,-0.188905476563,14.2249099288,2
0.628508529915,1.96597765576e-06,0.00362584597806,-0.348462371379,29.6268683956,0.628461310854,1.07810323724e-05,0.00179923510958,0.139184891764,29.6230692395,0.628387445477,4.78991019667e-06,0.00554321246799,-0.532317710624,29.6156630759,0.54148089186,0.00640382534198,-0.117536529859,0.46615507024,22.4639997941,0.481638138363,0.00330867173498,0.132021461486,-0.66073924691,17.6429889328,0.428817819777,0.00469858121242,-0.120162911523,0.36766594202,14.1390492016,0.450933264778,0.000850452069343,-0.00191048063523,-0.137154393333,15.3134941494,0.538486467069,0.00118493853135,0.0352456361088,-0.307811769122,21.8352610926,0.43553915989,0.00110649545362,-0.013391706009,-0.221008076715,14.3089576484,2
0.628561563109,1.63935307644e-06,-0.000326543053317,-0.353927763534,29.6318442085,0.628594615932,9.64151634746e-06,0.0062884854397,0.1011374081,29.6355528106,0.628533115357,3.90683670884e-06,-0.000258431134473,-0.357350651219,29.6293298885,0.536937375026,0.00588799108277,-0.0228668716267,0.492313030427,22.0583421926,0.484871263197,0.00314231819142,0.0425043309542,-0.403939372808,17.8650421867,0.428029009308,0.00393334880271,0.194291600867,-0.00487895452114,14.0317302721,0.449624800814,0.000899488207086,0.00246777559167,-0.202677997631,15.2287467404,0.538402446204,0.00111714503944,-0.0230045018658,-0.240644526849,21.8234582888,0.434858888819,0.00101390279352,-0.0564870468684,-0.248869927731,14.2576977956,2
0.62856635939,1.52168318368e-06,-3.79675523459e-05,-0.383900208103,29.6322877164,0.62848809476,9.77508766294e-06,0.00196362334298,-0.143604250607,29.6255197506,0.628510541247,3.64273721989e-06,-0.000498986085526,-0.387847727361,29.6271820969,0.536728064136,0.00645631066033,-0.00579394424296,0.586594662163,22.0835431012,0.485788481362,0.00271527750369,0.00707142383088,-0.43087922935,17.900214182,0.429411656676,0.00347953042891,-0.0488210808943,0.00757636769215,14.0870630684,0.450187451058,0.000904522639855,-0.0611213791659,-0.25425309407,15.2670902571,0.53861085005,0.00125737629853,-0.0216567497027,-0.0411175774821,21.8506694304,0.43288915943,0.000868515860584,-0.0163622834359,-0.118103390472,14.1187470001,2
0.62861730679,1.64530141363e-06,0.000316133021182,-0.366867669945,29.637100632,0.628495298619,1.0330207754e-05,-0.00200900935325,-0.0760350642578,29.6262399644,0.6285299123,3.57504271371e-06,-0.00100763761144,-0.370760177048,29.6290033523,0.535714916865,0.00681317146923,-0.00977713440914,0.59225126502,22.0284601001,0.485349958151,0.0027243354457,-0.056087905967,-0.398034397293,17.8689444638,0.427235201708,0.00340001656236,-0.0437379471757,-0.0199989679869,13.941345044,0.449243836942,0.000906680959492,0.0186595548341,-0.176416933103,15.2035962683,0.537482773608,0.00141315799402,-0.0521388944499,-0.157912570546,21.7711535859,0.433564679446,0.000906811894928,0.00450189807385,-0.139863373178,14.165478925,2
0.628539790802,2.18973245851e-06,-0.00597531223062,-0.552517601861,29.6298321868,0.628522922041,1.03963792824e-05,-0.00136450049431,-0.0983830097355,29.6288490968,0.628433933335,4.67650450766e-06,-0.00702018768377,-0.399517224396,29.6200367039,0.539375917927,0.00848327055479,0.275099573287,0.59429171743,22.447240584,0.483210826603,0.00316038466716,-0.111267110402,-0.25778708229,17.7458211864,0.430137818682,0.00447130966846,0.199846577355,0.228820812385,14.207267645,0.450344715172,0.00103612593227,0.071764817593,-0.267043742155,15.2874505053,0.537034817497,0.00136562904157,0.0135740801126,-0.101193513409,21.7315361894,0.434469236658,0.000930417042704,0.0873168004836,-0.182518481773,14.2261146813,2
0.628584761218,2.43935879838e-06,0.00269096720494,-0.491975977468,29.6340906652,0.628570450787,1.03641000698e-05,0.00208350507385,-0.114024083836,29.6333278136,0.628459187021,5.00227987009e-06,0.00317306016274,-0.335361477032,29.6224414,0.538731062036,0.00845789334774,-0.0656599566063,0.516612847305,22.3932208979,0.482576942713,0.00329549858717,-0.00808792050199,-0.238138389909,17.7099048183,0.428101559089,0.0045711727876,-0.0151739278992,0.226025383946,14.0835876534,0.448567742255,0.00134646549806,-0.0747678596738,-0.318302342077,15.1906149012,0.536312910025,0.00115745455553,-0.028600138959,-0.0984692751039,21.6580169466,0.435939050214,0.000975773402069,-0.00760469404193,-0.14477586239,14.3254213943,2
0.628575470511,2.81232519374e-06,-0.000358125262993,-0.522033293495,29.6332422716,0.628562849719,1.02353141191e-05,-0.00283108008537,-0.0902485352277,29.6326016168,0.628482404084,5.36192677255e-06,0.000339294809266,-0.315918405239,29.6246567008,0.537148023883,0.00953361520765,-0.0465560507766,0.480770781756,22.3450874925,0.484456000003,0.00336020505662,0.0731077404358,-0.272050397275,17.8509763696,0.42850804238,0.00491976112103,-0.112837568283,0.303282119221,14.1354980018,0.44994162557,0.00147605014875,0.0339446072439,-0.395960335772,15.2927876925,0.53733386879,0.00107762483185,0.0308618441231,0.0839191935037,21.7343207287,0.434524417507,0.00101422438975,0.0560322105133,-0.456456485743,14.2359128106,2
0.628526951581,3.40257620345e-06,-0.00260094316759,-0.422532378687,29.6287114555,0.628436829757,9.77832234694e-06,-0.00407323517518,-0.0510456671052,29.6206872705,0.628415228795,6.35195936813e-06,-0.00326416601003,-0.279395965467,29.6183975286,0.540777529598,0.0116120012103,0.168907926982,0.439249752225,22.7923133284,0.482507884013,0.00388930645292,-0.0896100485189,-0.182404305486,17.7488480376,0.431301993948,0.0066141944413,0.127337864109,0.10165564172,14.4410561374,0.450777259149,0.00163593224908,0.0271459288668,-0.494788330595,15.3610692889,0.537936804465,0.0011418451024,0.0289795611048,0.0229840272941,21.7876969574,0.434599114378,0.00100095544443,0.0564660656595,-0.531927370507,14.2397999692,2
0.628538300741,3.86121129846e-06,0.00667258455988,-0.267418470853,29.629815392,0.628450363489,7.41879669164e-06,0.0148650445435,-0.953584120315,29.6217884437,0.628451476311,7.10346071793e-06,0.00521327223404,-0.248790219178,29.6218700119,0.539046213444,0.012827083309,-0.184035009441,0.446780051255,22.742015682,0.481925936053,0.0046448029573,-0.057437794941,-0.232969301373,17.7626610069,0.42958528161,0.00773501705531,-0.156310202979,0.166801557551,14.4131548253,0.448721158114,0.00208869892462,-0.174800135072,-0.565329819579,15.2558645509,0.536994505527,0.00125536765902,-0.0861878710915,-0.0172692928476,21.7201296293,0.435708579953,0.00119355919595,0.00491066757226,-0.407353754634,14.3264708788,2
0.628581058601,4.23723360362e-06,0.000204123898792,-0.321840917852,29.6338745977,0.628499638263,6.35704855081e-06,-0.00318229414511,-0.526574672062,29.6263550689,0.628557967029,7.38896772482e-06,0.00214798654865,-0.259002663028,29.6319306273,0.536517679474,0.0132252668055,-0.14916036518,0.489480655262,22.5675112727,0.48645846798,0.00531638752114,0.124265102248,-0.261179293285,18.1415507568,0.428221347553,0.0088985328759,0.0234856177721,0.115904681364,14.4115056203,0.449401073068,0.00221125634262,0.024714108679,-0.494850530372,15.310732305,0.538743050009,0.00131073222844,-0.0218672139809,-0.0395943631132,21.8652997299,0.433148140693,0.00130134170635,-0.0861574049825,-0.324049587994,14.1675976702,2
0.628522336358,4.49745360445e-06,-0.00527253370349,-0.197662071796,29.6283573591,0.628549270951,5.44335707768e-06,-0.0040440807246,-0.503681541987,29.6309667594,0.628408517031,7.18415500632e-06,-0.00637111434321,-0.206167916024,29.6178264483,0.539933599816,0.0129685311933,0.326714047003,0.447046579729,22.8242932241,0.483248049964,0.00542512476926,-0.104665466621,-0.291535440562,17.9161100675,0.432247102515,0.00907985135453,0.200184324932,0.0927403235235,14.6847258227,0.451639709647,0.00241166490618,0.0559852193447,-0.465902150223,15.4768452528,0.53830821918,0.00138288603326,0.11866874079,0.0148618415769,21.8355139792,0.433768512943,0.00145983439833,0.0481859092019,-0.226938143539,14.219661957,2
0.628558461884,4.80498617673e-06,0.00323431987785,-0.181555486519,29.6317860694,0.62855510181,5.2874332937e-06,0.000107228242499,-0.536745291007,29.631504971,0.628458472523,7.06964413039e-06,0.0042397199097,-0.170895300351,29.6225270301,0.539174607894,0.0130556054278,-0.146929403645,0.46901058396,22.7693091365,0.481993265069,0.00509449312241,0.0199443863774,-0.272908971089,17.800805559,0.428678452252,0.00958728812094,-0.00124255530099,0.132160352618,14.4918504779,0.449288233453,0.00259571423858,-0.0730917185022,-0.444856637206,15.3315766076,0.537047669594,0.00142384604675,-0.0204178250203,0.0246427192602,21.7368795637,0.435250913365,0.00138270869,-0.0294346905087,-0.317536965544,14.3105722619,2
0.628536631374,4.99399853869e-06,0.000406491831357,-0.157353332743,29.6297418293,0.628487331035,4.56992264023e-06,0.000159633653732,-0.341982140427,29.6250625696,0.628443860496,7.42394133225e-06,0.00245276279423,-0.141122486981,29.6211758063,0.539731771614,0.0140544418162,-0.180218870779,0.43256578396,22.8883075911,0.48442991701,0.00516010274381,0.0991397810143,-0.309156136244,17.9822734401,0.429645380002,0.00987240108093,-0.114517291253,0.115089203646,14.5751941217,0.450434519517,0.00273328281762,0.0182753472803,-0.473457189427,15.4191071565,0.538872649257,0.00146771693686,0.0542204158357,0.0751266636202,21.8873909621,0.434411050995,0.00143415938113,0.00340898266697,-0.27978548543,14.2595998862,2
0.628566992288,5.01165294205e-06,0.00220155399975,-0.192532321116,29.6326056468,0.628440816323,3.16983621963e-06,-0.000521108156665,-0.0824461822838,29.6205740394,0.628496583271,7.19949182716e-06,0.00164768097267,-0.173527087711,29.6261294011,0.536963579395,0.0130178726892,-0.112395475909,0.458791358797,22.5880639988,0.48523636389,0.00504448614302,0.059966464446,-0.357912895733,18.0323666377,0.428951471164,0.00975837981819,-0.0234442455766,0.12268904512,14.5220724526,0.45065738897,0.00273932419349,0.0175919588569,-0.477649071,15.4346161578,0.538667428519,0.00121351696792,-0.0634812818559,0.0508847402379,21.8519951467,0.433995122556,0.00142063524931,-0.0300826834818,-0.251565591383,14.2315094886,2
0.628576905792,4.69998843148e-06,-0.00317779285952,-0.173082598928,29.6335172863,0.628535642148,3.4125525953e-06,-0.00189645510707,-0.112459925522,29.6295315376,0.628510271542,7.09804660249e-06,-0.00651725544409,-0.116019958331,29.627412363,0.536284221338,0.0131308924663,0.296251273739,0.428759179024,22.5417434967,0.48490124998,0.00514905121461,-0.05727895322,-0.327964913646,18.0157214573,0.42684556994,0.00937495128234,0.249250901321,0.0619670272724,14.3585319382,0.449292192382,0.0026994656382,0.104819943363,-0.428710844788,15.3395210174,0.536025024219,0.00140537679357,-0.0517869628801,0.233867547366,21.6532098769,0.434855532298,0.00132707593428,0.00952562840382,-0.291305192693,14.2806536669,2
0.628521912074,4.43759996222e-06,-0.000691423578591,-0.101628143517,29.6283129292,0.628481204996,3.4359932622e-06,-0.000289162661681,-0.0474027831525,29.624401141,0.62844253791,6.55128371974e-06,-0.00119642937924,-0.0765245947499,29.6209865541,0.539492882008,0.012815208958,-0.00595743248801,0.392536470697,22.7772681932,0.483308641706,0.00503230291772,-0.0493600529643,-0.352497273042,17.891433652,0.429847947956,0.00904439604265,-0.129577843855,0.00970470184919,14.5269796843,0.451306955401,0.0025484477392,0.00225479190966,-0.531029652819,15.4644327322,0.539051407843,0.00157884943428,0.0429174372276,0.124739329345,21.9100663804,0.434438049279,0.00130530806357,0.101413689263,-0.263226854032,14.2518241963,2
0.628526014055,4.28764239045e-06,0.00580624690163,-0.135909538757,29.6286885613,0.628553189722,3.27425726301e-06,0.00314310348547,-0.158458036973,29.6311757183,0.628456274768,6.55059671574e-06,0.00550387964066,-0.0886709999938,29.6222814413,0.539358197939,0.01354066201,-0.29791923831,0.424742170353,22.820053915,0.483378038079,0.00490381442901,0.117749384538,-0.339606549415,17.8869568451,0.430677983957,0.00905805955372,-0.17916701202,0.0468520174219,14.5815608469,0.449533154336,0.00227570459852,-0.080793973322,-0.479311781113,15.3244064038,0.537630996498,0.00178486688491,-0.010847346247,0.207847306354,21.8106117792,0.435328981435,0.00104640121543,-0.0622100177042,-0.178245617133,14.2907828458,2
0.628598030426,3.92637127442e-06,-0.00371205358035,-0.165352483189,29.6354518406,0.6285164996,3.26259287787e-06,-0.00241518723716,-0.147943716993,29.6277157021,0.628521774839,6.09575430044e-06,-0.00458215950823,-0.121467670723,29.6284226943,0.535693350825,0.0121961853342,0.231752887472,0.474462151578,22.4250701736,0.484564302976,0.00513849194901,0.00075993304255,-0.351466268231,17.9904406831,0.426586194639,0.00830243596409,0.229589436469,0.0261690450192,14.2625638706,0.449178941867,0.00209374649435,0.0888302470446,-0.465843114693,15.2870663769,0.537151929401,0.00177713983416,-0.0497547372829,0.227206406798,21.7714229922,0.434117828849,0.00101859566212,0.00377922833037,-0.108310256044,14.2097477783,2
0.628538549318,3.38474875021e-06,-0.00135370333655,-0.0785939515198,29.6298035698,0.628490820594,3.12149101555e-06,0.00161577022473,-0.137599037387,29.6252843582,0.628439932179,5.36432979056e-06,-0.0022244855069,-0.0424938086488,29.6206530872,0.539231933201,0.0113742537772,0.0596647186486,0.41588408052,22.6495256133,0.483784702981,0.00484590503576,-0.0710759916573,-0.355621733112,17.9121698855,0.430236997627,0.00729967352131,-0.0156059697911,0.0972507018897,14.4229664001,0.450795103944,0.00181933880452,-0.0181183916456,-0.546009950708,15.375848002,0.537924176826,0.00181513908651,0.00395626489246,0.308806728675,21.8365017935,0.434630046491,0.000940034763944,0.0969352636556,-0.0993084069379,14.237308371,2
0.628505856093,2.89311965665e-06,0.00269531271006,-0.177988249347,29.6266849266,0.628478643299,2.53926840568e-06,0.00482348578702,-0.322875808843,29.6240932871,0.628408786816,4.7970875783e-06,0.00170018466465,0.0119103548643,29.6176752355,0.541828312466,0.0103360669707,-0.0195467668941,0.357053838155,22.7832129701,0.482554859536,0.00390185750396,0.0373667833502,-0.382837597254,17.7531768899,0.431711170725,0.0063794792938,-0.139171312783,-0.0336061584909,14.4501715874,0.45056592905,0.00135863353518,-0.0397800199132,-0.403378931345,15.3262631132,0.537423854919,0.00169085276927,0.0582928378559,0.37667019326,21.7869530927,0.435072075869,0.000691689515958,0.0135380387718,-0.107452068184,14.2477633642,2
0.628562082663,2.43486197135e-06,-0.00253753341728,-0.134317316058,29.6319520619,0.628499674253,1.95695952696e-06,-0.00116650612411,0.00362326932358,29.6260328552,0.62844656467,4.27682601881e-06,-0.00245822568908,-0.11766687219,29.6211978335,0.539009835609,0.00992104918142,0.117324266873,0.419996983047,22.5240278557,0.482926453245,0.00299176636884,0.0853693132568,-0.305998820705,17.7127376546,0.429071593632,0.00510832012359,0.0920965152839,0.0824428951884,14.1856981238,0.450464042504,0.00124193236859,0.0770008142909,-0.340153158763,15.3107420145,0.537989720989,0.00164060735559,0.0491216091275,0.376653224309,21.828875436,0.433829692316,0.000512527457938,-0.00645208831798,-0.681232242493,14.153542177,2
0.628562403169,2.07460555997e-06,-0.000589722063042,-0.221337098615,29.6319556217,0.628524430672,1.78948944336e-06,-0.00151327506776,0.06029248668,29.6283544186,0.628488358838,4.15951942775e-06,0.000416782563176,-0.134067611051,29.625129094,0.537248092678,0.00971105401025,-0.0393977001482,0.399598094277,22.3662814782,0.484393808608,0.00309700432677,-0.0337090671622,-0.360230798985,17.8269804565,0.429575738206,0.00394770848265,-0.0562149912603,0.303205262324,14.1322790419,0.44991829884,0.000862929606146,-0.0505913531808,-0.345422499907,15.2458424632,0.537384761352,0.00150406490927,-0.0034916911961,0.458164763387,21.7699794332,0.434501440128,0.000460617829707,-0.0470764862509,-0.290605790814,14.1934483299,2
0.628515586694,1.88005924344e-06,0.000859012910201,-0.228711967987,29.6275273282,0.628453653259,1.76740319447e-06,0.00136602724192,0.0446630810212,29.6216803599,0.628425249333,4.27614977548e-06,0.00105608799847,-0.0674277112211,29.619188485,0.540291712155,0.010061887315,-0.086835532611,0.306560728961,22.6382147281,0.483171809091,0.00305278440054,-0.0172717267597,-0.296917786194,17.7350308281,0.429977347188,0.00406012280061,-0.129034236465,0.223125235014,14.1664880193,0.450145409132,0.000862762843264,-0.0151006732566,-0.269804209266,15.2611611526,0.537440733737,0.00152038300711,0.0145680712811,0.475065924169,21.7756990135,0.435423448129,0.00040342191593,0.0199357865061,-0.202007753886,14.2493716603,2
0.628548194486,2.04093183029e-06,0.00178143404863,-0.216470574658,29.6306134883,0.628517866145,1.7402850394e-06,0.00114774198261,0.15150739291,29.6277318858,0.628475164206,4.56281267957e-06,0.00343030818683,-0.0842371194723,29.6239150499,0.539085842806,0.010130742741,-0.132164493877,0.34328752486,22.5456909064,0.484076579698,0.00311419027481,0.00258705276995,-0.333365962436,17.8052102062,0.430300649059,0.00402205846922,-0.0906857402877,0.287372536673,14.1845309703,0.449773886248,0.00095726247892,-0.0841283428075,-0.404338694439,15.2430785797,0.538967608035,0.00135656464264,0.000237522669773,0.428744112779,21.8868419719,0.434478488213,0.000466969163846,0.0328356685832,-0.31820773788,14.1924224721,2
0.628588040081,2.36978051598e-06,-0.0009281615882,-0.0998232796899,29.6343946737,0.628525268653,1.60313801762e-06,-0.00676769771544,0.409906808694,29.6284196324,0.628539164234,5.06422461451e-06,-0.00243291991434,-0.0492725109403,29.6299858259,0.534396120517,0.0110033439043,0.109249122895,0.325394344757,22.2326884707,0.486043086908,0.00332325753803,0.144829029762,-0.28900180828,17.9637622327,0.426412351299,0.00530790792059,0.113861141885,0.249223733913,14.0298471866,0.449439423585,0.00128501358832,0.0872686093571,-0.338161647796,15.244775666,0.538098997662,0.00131604687479,-0.0858415887742,0.504653070145,21.8136773151,0.433506079405,0.000480438361329,-0.0210183097678,-0.304271312041,14.1301165048,2
0.628512746139,2.56011895706e-06,-0.00281515104434,0.0119927808799,29.6273098533,0.628456247844,1.88859252895e-06,0.0043045054833,0.203425587596,29.6219339149,0.628413445,5.14010692879e-06,-0.00399145611579,0.0771104750783,29.6181397072,0.540239968137,0.01161894136,0.232058387337,0.187459509309,22.7492433986,0.483511495976,0.00356279672842,-0.164731520403,-0.384812727273,17.7973994634,0.430931339412,0.00614310939329,0.165640757476,0.398615510077,14.3822265417,0.451379495416,0.00158201416055,0.0277173848954,-0.395278394379,15.397827714,0.53797512685,0.00101844320992,0.0151451285463,0.392511061964,21.7816575807,0.434420681504,0.000621704175728,0.0546893920282,-0.131569404826,14.2001057479,2
0.628561608469,2.80510955343e-06,0.0022469614049,0.0748778578079,29.6319347511,0.628533633458,2.1543582434e-06,0.00040148720321,0.215332653336,29.6292490516,0.628474580193,5.39601066121e-06,0.00272803347561,0.104385350639,29.6239216509,0.53828603707,0.0119444375938,-0.0918160579415,0.130156870082,22.6152777098,0.484040726289,0.00341603613404,0.0478275167185,-0.33952468604,17.8249435269,0.429176287766,0.00657214468407,-0.0598011151825,0.351984283021,14.3007601551,0.449392447364,0.00191554109102,-0.00313403985562,-0.419974508036,15.2882679218,0.537294845639,0.000877070213048,0.0327032772145,0.469620425887,21.716334532,0.434298053306,0.000621376347368,-0.0461925972563,-0.136668547215,14.1920917826,2
0.628492029367,3.03858913324e-06,-0.000828478597961,0.0696445542948,29.6253921789,0.628524015934,2.24446732577e-06,0.000522388139519,0.26889626424,29.628348986,0.628421296671,5.57830884724e-06,-0.0007658156055,0.157174816151,29.6189122531,0.539789703632,0.0116135633204,-0.0528852641651,0.014627297404,22.7123729967,0.48313324066,0.00331687057093,0.0121263165614,-0.323012794466,17.7517780396,0.430690671821,0.00668609987514,-0.0229469120429,0.315201553889,14.4068555003,0.450456303976,0.00215429715969,-0.0208293386194,-0.319095739384,15.3777341242,0.538175544893,0.000669680235471,-0.0223451657825,0.455655238041,21.7720251215,0.435216101738,0.000660946740257,0.038169190467,-0.139377845176,14.2548891997,2
0.628568519369,3.31710888375e-06,0.00121402500599,0.0628399020037,29.6326242317,0.628517266793,2.66290275673e-06,0.00139630605557,0.151623762848,29.6277436541,0.628471531157,5.87885863668e-06,0.000479356745578,0.151300445336,29.6236699462,0.538180310171,0.0111802825027,0.00772802956917,0.00357075456048,22.5501943744,0.48351029152,0.00315056448687,-0.0933946453404,-0.300645570228,17.7668069224,0.429243073552,0.00680842544589,-0.0399561228822,0.382072721874,14.3225446974,0.449150212444,0.00240998232106,-0.0780642633891,-0.243204714334,15.3085321921,0.536982141425,0.000473305067127,0.0150415683492,0.0546834106082,21.6612610907,0.434839067267,0.0007482236381,0.0403451987124,-0.0562124546223,14.2367446308,2
0.628566116119,3.51718347777e-06,0.000165781257295,0.0378199441195,29.6324124465,0.62849236887,2.80697165636e-06,-0.0017844720089,0.190180035091,29.6254070455,0.62848946212,6.00039208801e-06,-0.00101330223112,0.138856152158,29.6253693287,0.537568686443,0.0114225709466,0.0367022647566,0.0271360420446,22.5187771984,0.485208132853,0.00327637927194,0.0550999666045,-0.309161954937,17.8994719801,0.42876954924,0.00688541322779,-0.00773449779375,0.38564030908,14.2977700555,0.450165187417,0.00267020575604,0.051131670674,-0.23465896898,15.3962474231,0.537648894638,0.000456260399578,-0.0108407498716,-0.000557382179454,21.7137383124,0.43417136561,0.000756260516284,0.0115974496252,-0.0752368835061,14.1938213819,2
0.628542201566,3.66418637887e-06,-0.00350380108096,0.0460897534848,29.630168586,0.628491859944,2.97506575553e-06,-1.12474800499e-05,0.152696425128,29.6253715061,0.628409265045,6.41988339118e-06,-0.00440439452437,0.181462728287,29.617840401,0.540347551998,0.0121727176561,0.222220018172,-0.00520545826151,22.7989418778,0.482977739776,0.00383178694436,-0.145853022905,-0.260431552006,17.7786145178,0.43055710191,0.0071060532563,0.143629802754,0.324245509733,14.4293042913,0.450974969485,0.00285760523678,0.030851241433,-0.274440113652,15.4648445202,0.537482282731,0.000502069112592,0.0489350268333,0.06454967986,21.7036934331,0.43436607504,0.000797043863615,0.00486329302418,-0.104238868554,14.2095227818,2
0.628522062563,3.62083109893e-06,0.00212024813336,0.0370699993693,29.6282666761,0.628495457896,3.0101440602e-06,0.00171653024297,0.155302508944,29.6257132954,0.628459242471,6.47328400958e-06,0.00394941947649,0.166863802696,29.6225554815,0.539126305634,0.012105119891,-0.134829494875,0.0332820373451,22.695066879,0.483532996405,0.00406902416021,0.0513618437698,-0.347320313868,17.8364196838,0.429495979188,0.00726266917685,-0.0551980607845,0.327321567625,14.3724472295,0.450305969466,0.00288861568648,-0.0754762304219,-0.281610391958,15.421917521,0.537652139825,0.000653252397755,-0.0115503657809,0.223584339209,21.7285774368,0.43508933244,0.000780370449124,-0.0161551858645,-0.173927897432,14.2554519535,2
0.628575590104,3.39109386077e-06,0.00241622918373,0.00100875867644,29.6332963765,0.628532211651,2.92903401816e-06,-0.00262829360463,0.10933195158,29.6291723297,0.628507664128,6.08938319979e-06,0.00249131917904,0.151454573318,29.6270919044,0.536807977847,0.0114975828378,-0.190083252546,0.063421663313,22.463031511,0.484082229407,0.00392131465598,0.151925854444,-0.342215311482,17.8653476466,0.428642922933,0.00715232343109,-0.168123269848,0.329460493016,14.3093785874,0.449389066572,0.00273337331676,-0.0277264801101,-0.265216569959,15.348559612,0.538232980987,0.000742564352984,-0.0537537328387,0.538069092544,21.7820553988,0.434389333697,0.000730527046497,-0.013711615993,-0.048296945054,14.2061159937,2
0.628559976385,3.17266414608e-06,-0.0010736427251,-0.00412463074264,29.6318080706,0.628496673262,2.71696698172e-06,-0.00099186966217,0.149730521698,29.6258061781,0.628466068538,5.56603238585e-06,-0.00403306357131,0.170102760995,29.6231318342,0.538200501358,0.0105345949581,0.20086137511,0.0503351213826,22.5040435016,0.484647425921,0.0037080889273,-0.109913823954,-0.368478998695,17.8906331395,0.429789533155,0.0066640736431,0.10917889996,0.299086651196,14.3470696603,0.44998537836,0.00261725090767,-0.00744688413242,-0.256324783537,15.3801896225,0.536886258612,0.000856698529199,-0.0421570284351,0.313300084721,21.6819097926,0.433868394909,0.000716560263577,0.0455869499228,-0.0075394131449,14.1711592671,2
0.628535564945,2.93436498443e-06,0.00197939410391,0.0143543844615,29.6294888731,0.628487498753,2.65271010703e-06,-0.0020213829518,0.119591629751,29.6249365072,0.628424828673,4.91578183884e-06,0.00105738810973,0.184051079524,29.6191961648,0.54061337939,0.00955444283472,0.0443055214098,0.0492387140349,22.6267407179,0.48367175135,0.00349808694866,-0.0478096216933,-0.367005204912,17.8042356632,0.43160401329,0.00622399484731,-0.0462521280018,0.348719875635,14.4317274403,0.450157244304,0.00244697610596,-0.0506110997642,-0.248095631464,15.3791920768,0.536671171388,0.000941777893032,-0.055658618848,0.317942601493,21.670887529,0.434436412542,0.000646749138408,-0.0020770748639,0.0727061229437,14.2029841769,2
0.628545305834,2.58221082929e-06,-0.00331847448388,-0.0571225605863,29.630381195,0.62847990346,2.50453453833e-06,0.00428071701556,0.0663676620914,29.6242095145,0.628465290772,4.49085905428e-06,-0.00455612285779,0.120485040948,29.6229789514,0.53775733262,0.00861582136523,0.22331989363,0.09078844473,22.32629194,0.483508387358,0.00321838775779,-0.0233014968756,-0.304578185504,17.7716877425,0.428489923015,0.00454333220365,0.156005388015,0.237599892535,14.1064776425,0.449716475466,0.00215903944893,0.130407298905,-0.234380775355,15.3281370421,0.537670341743,0.00115493310576,0.053536690057,0.350553233171,21.7671697791,0.434103553724,0.000570368091899,0.0153040071716,-0.171974241861,14.1756493905,2
0.628522207081,2.29473132265e-06,0.00182338848723,-0.154126409164,29.6281821697,0.628459933236,2.11764177163e-06,0.0021348264249,0.0242105178821,29.6222982817,0.628446004654,4.19312359633e-06,0.00394826498197,0.0474348317431,29.6211388486,0.539325442718,0.00768886699393,-0.128591742277,0.199658729463,22.3843711448,0.484029521403,0.00312136554962,0.0152625980145,-0.32465715848,17.8023243699,0.430250116844,0.00367758031554,-0.119563146207,0.319769584875,14.1557781716,0.450946750693,0.00170481633581,-0.108575511333,-0.137014860329,15.3776293059,0.538165447602,0.00128286572268,-0.0533493568115,0.263602386341,21.8165857379,0.435055100797,0.000524614207866,0.0138815085862,-0.0769397480983,14.2342920061,2
0.628564757332,1.93364971352e-06,-5.21364878489e-05,-0.23986844131,29.6321671521,0.628557513454,1.94811236397e-06,-0.0033917850752,0.0438162105675,29.6314852393,0.628488911608,3.68300609104e-06,0.00112383393093,-0.0101709469178,29.6251459435,0.537809150414,0.00688099322646,-0.101958617675,0.327621272935,22.2020946689,0.48420499031,0.00301557017237,0.0256079204307,-0.363851401308,17.8072376408,0.428544741549,0.00319363989249,-0.0358560639298,0.308651953152,14.0101240153,0.449345045701,0.00142409821332,-0.00541759846215,-0.127685408274,15.248706025,0.538227418645,0.00129253448422,-0.00313134922379,0.262523130947,21.8223041154,0.43428320656,0.00048644445921,-0.0427426460155,-0.0655746665907,14.1811396525,2
0.6285248082,1.52226215674e-06,-1.61319511137e-05,-0.371488915067,29.6283702366,0.628490056302,1.68848830336e-06,0.00401326258704,-0.149755299063,29.6251062634,0.628462283828,3.05779037494e-06,-0.0001470376869,-0.126665461317,29.622589441,0.538093448456,0.00620071847391,0.0281657946142,0.451667829594,22.1746951124,0.484594183765,0.00285011403335,-0.0464665189675,-0.408392920073,17.8232726589,0.429914570251,0.00255471607667,-0.0330730751895,0.354474648576,14.0510393182,0.450486848482,0.00124999584454,-0.0533047192606,-0.25347106698,15.3128797416,0.53841588216,0.00135218021196,-0.0265331707709,0.281061001027,21.8419359978,0.434078048507,0.000442312081284,0.0272566964641,-0.07068577387,14.1645125087,2
0.62855178791,1.34429762506e-06,0.00352335788353,-0.423469010814,29.6309007344,0.628517133748,1.38494654515e-06,0.001345147229,-0.0628365092703,29.6276365421,0.628478006642,2.93850815162e-06,0.00224891367191,-0.151705316071,29.624062812,0.538517177202,0.00604444989279,-0.143414888417,0.494909396217,22.1973455527,0.484078561072,0.00269651653141,0.0908596279489,-0.42733472908,17.77444622,0.429464802462,0.00227818934706,-0.127417988651,0.179027617348,14.0015872532,0.449788917801,0.00096173068679,-0.0319248904011,-0.463599648176,15.2444233641,0.538012584045,0.00158889415727,0.0177164672827,0.353105024648,21.826893712,0.434298455648,0.000350016763724,-0.00120097420553,-0.166297688145,14.1720373839,2
0.62858248746,1.29128663942e-06,-0.0032600132101,-0.427052713288,29.6337913208,0.628502599965,1.23715172381e-06,-0.00282552869872,-0.119101359045,29.6262554115,0.628484428306,2.99034875881e-06,-0.0061695264745,-0.282611206856,29.6246720326,0.537357840158,0.00618084850896,0.268055806949,0.656425864904,22.1138914181,0.485049928666,0.00261618340123,-0.0876862714968,-0.510238569869,17.8391050691,0.429795535723,0.00264251822361,0.252526051547,0.748554095176,14.0498615381,0.449733622649,0.000831130212983,0.141026725268,-0.433638391978,15.2310284863,0.536833492367,0.00158852470317,-0.0415705389842,0.38689522337,21.7318157175,0.433667491967,0.000417609085438,0.0167770218998,-0.193150459463,14.1359650915,2
0.628518993052,1.20916626739e-06,-0.000842632293752,-0.453546787315,29.6277988253,0.628473173666,1.05343981762e-06,-0.00062518158677,0.0181861067892,29.6234677059,0.62840693831,2.76245858951e-06,-0.00102465291252,-0.416260132806,29.6173504306,0.540389762265,0.00617560907156,0.0744061307531,0.653711639417,22.3585772083,0.483396680145,0.00262241565003,-0.108908763968,-0.373932187437,17.7194850363,0.430285491613,0.00263558584358,-0.0229296637711,0.585960006136,14.0809536743,0.451072905986,0.000575502841561,-0.0411685338533,-0.0215334648487,15.3025946989,0.537879942167,0.00165016141373,0.0274273999407,0.336249695214,21.8207243586,0.435128606748,0.000415949412329,0.0396980993575,-0.262553075146,14.2310480873,2
0.628532378464,1.13580384047e-06,0.00144267458716,-0.367721544818,29.6290553578,0.628505904065,1.22622352826e-06,0.000932452725709,-0.155574611831,29.6265660989,0.628456802172,2.713259168e-06,0.00442178528585,-0.461099734476,29.6220471959,0.53997671146,0.00593861634451,-0.180348123137,0.647074243369,22.3075712784,0.482539361215,0.00256111623307,0.122572711466,-0.333470284441,17.6528402354,0.429974975334,0.00250106824372,-0.079737505902,0.562026044493,14.050965006,0.450516714065,0.000610136607009,-0.0304040143378,-0.0335001114556,15.2675483328,0.538359062951,0.0015889652648,0.0406334440737,0.254211978246,21.8548694792,0.434737253687,0.00043723814227,0.0124852722527,-0.230310797397,14.2070916033,2
