cap1_mean,cap1_std,cap1_freq,cap1_skew,cap1_power,cap2_mean,cap2_std,cap2_freq,cap2_skew,cap2_power,cap3_mean,cap3_std,cap3_freq,cap3_skew,cap3_power,accX_mean,accX_std,accX_freq,accX_skew,accX_power,accY_mean,accY_std,accY_freq,accY_skew,accY_power,accZ_mean,accZ_std,accZ_freq,accZ_skew,accZ_power,gyroX_mean,gyroX_std,gyroX_freq,gyroX_skew,gyroX_power,gyroY_mean,gyroY_std,gyroY_freq,gyroY_skew,gyroY_power,gyroZ_mean,gyroZ_std,gyroZ_freq,gyroZ_skew,gyroZ_power,label
0.628396128893,0.0161183241864,-0.141774116394,-1.3575988529,30.8088831003,0.628560030866,0.0161271526455,-0.129955244097,-1.35898595184,30.8249877259,0.62838712048,0.0161201715722,-0.14083462285,-1.35777629626,30.8081706853,0.570413434454,0.00673934615443,0.154884916097,1.25950631578,24.9015730809,0.415921460468,0.000442543226099,0.0452733303661,1.06488120745,13.0070477945,0.616614216105,0.000953993848281,-0.0182960363186,1.09003498461,28.5865774075,0.491781607738,0.000138080913385,-0.0683875227089,-2.0398780252,18.1489042158,0.527179565905,0.000427472870286,-0.0150723667337,-4.0199758128,20.8755050955,0.559550444343,0.000290815898562,0.0342552253837,-3.37770882215,23.5037728588,6
0.627125647385,0.00520850699813,-0.366678379191,0.771726454375,29.8819228384,0.627115862575,0.00522095310685,-0.359229065721,0.775988005812,29.8819234119,0.627113758942,0.00521084827261,-0.367474113184,0.769257450225,29.8809777713,0.568062849975,0.00339300930699,0.350536988323,-0.788419408043,24.4532378029,0.413984663012,0.000352604028038,0.0154453108478,-0.746043700858,12.8798402888,0.620057558975,0.00112275027757,0.158873973695,0.971004392092,28.9184367537,0.490892703739,0.000808799727073,-0.19835774584,-4.37130569645,18.1330246736,0.531006279194,0.00539326900454,-0.342167691461,-0.637683317715,21.5466770471,0.562347412342,0.00118042330875,-0.128402745249,0.186902921819,23.8049472374,6
0.633386342113,0.00122679580755,0.0770001815958,1.7796238346,30.1791522679,0.63322115188,0.00120004563491,0.0410025360574,1.84520199534,30.1614804161,0.633385710244,0.0012259963918,0.078191669764,1.7868210058,30.1790330786,0.565415943558,0.0028519363754,-0.147966903978,-0.238375422372,24.188182484,0.415772952262,0.000444426556167,-0.0262112185621,0.39553477388,12.9979236526,0.613229128007,0.00152572873627,0.0262855099652,0.115259634296,28.3166511842,0.493844069076,0.00158778664103,0.0181373330519,-1.41404282843,18.4086435535,0.533690615521,0.00903238331228,0.261654722161,-0.321946053739,22.0303218472,0.561436772453,0.00210010932565,0.135119097592,-0.119349062599,23.7962517997,6
0.626106856868,0.00123411695427,0.114200735776,-0.703665581045,29.4920593709,0.626213209151,0.000488160345195,0.0925184017748,-1.36991420169,29.4468476142,0.626973004549,0.00102053838517,0.144055225256,-1.21604508002,29.557655973,0.571817865504,0.00281229842725,0.00799459363896,-0.380941975727,24.7312854319,0.415070967747,0.000547344837819,0.0309752691423,0.0950978112921,12.961796638,0.618234876721,0.00203119491582,-0.0666956702368,0.346849449465,28.8163856333,0.492535403029,0.00272011943893,0.104966537961,-1.15080802254,18.3956230812,0.528216758812,0.0108816331065,-0.0840511240702,-0.263420594772,21.7312116716,0.560690263999,0.00258919221502,-0.0776962736366,0.0179273347464,23.7696181347,6
0.627578663631,0.00241939102053,-0.048531904406,-0.954909448482,29.7181583639,0.629256579358,0.000289524521551,-0.0284093315909,-0.87092483502,29.7187130145,0.628221936723,0.00186077562195,0.0539259656491,-2.26050280577,29.7374075295,0.567844405712,0.00277899077205,0.035915437427,-0.198366507304,24.3891904995,0.414876788189,0.000646809032016,-0.054300047225,0.0209326621276,12.9570700717,0.61790167576,0.00242454915907,0.0969325675904,0.40434285764,28.8146027058,0.491519027036,0.00321264156293,-0.179551673469,-1.23557015188,18.3570570211,0.535392163893,0.0119258229458,0.0886627737968,-0.297534214073,22.3808685848,0.563058115532,0.00294205486557,0.0843119341812,0.0312852753216,23.99529517,6
0.629638683044,0.00296722103033,0.0938945102285,-0.625034996371,29.9529396952,0.628948717566,0.000300200289636,0.064747914225,-0.725807334704,29.6904515211,0.629540794833,0.00270986117396,0.11442397025,-1.28935818956,29.9246506538,0.570507995081,0.0028461619182,0.0219575846006,-0.308898846651,24.6215689158,0.415105847567,0.000755350881793,-0.0320392286957,0.0168499976342,12.9793608166,0.616888750531,0.00249612041655,0.00409746345492,0.42624518838,28.7260927007,0.490958988061,0.00517771078579,-0.14852776575,-0.421078719114,18.461205195,0.530907710711,0.0136056578605,0.166671901277,-0.221441166239,22.1465434786,0.562208923782,0.00352633781782,0.11794622066,-0.00417218272502,23.966864547,6
0.628361188765,0.00360577170864,-0.0330792229127,-0.685950335654,29.8796608724,0.628692182531,0.000427481070227,-0.0233549862639,-0.849378811808,29.6756731274,0.628359818797,0.0031291805719,-0.0552558899278,-1.12412229861,29.8442640032,0.568713905908,0.00303557874791,0.06198722877,-0.236547970636,24.4822958354,0.415935401369,0.000812354145867,-0.00463304184142,-0.0103954481143,13.0352835652,0.615687197948,0.00265657863798,0.00194909014703,0.446882788777,28.626891248,0.493773878465,0.00552404765282,-0.00303245709852,-0.434402851367,18.6947277554,0.529199478043,0.0141821922022,-0.00675036312207,-0.175249325178,22.05338879,0.560429240092,0.00404454909723,0.0711156451617,-0.0528879041898,23.8553666194,6
0.628122381116,0.00379256733811,-0.0364789250961,-0.623450445623,29.8709794074,0.628195563293,0.00046040892197,-0.0191358359458,-0.730815818447,29.6312951908,0.627931487879,0.00326449585148,-0.0362519945448,-1.02926548916,29.8139192033,0.568860305964,0.00309624942997,-0.0464807052296,-0.236657063484,24.4992760354,0.415065748651,0.00084999391531,0.00709585794029,0.0472815475772,12.9838677275,0.617148416383,0.00276956869044,-0.0478420482402,0.350650679658,28.7703606714,0.491919566112,0.00578579939566,-0.0221406915988,-0.377361228203,18.5770136196,0.532155738685,0.0144596113443,0.0037003876733,-0.234305062024,22.3092410057,0.561454840038,0.00439703599619,-0.0172543245923,-0.0234432601148,23.9677459689,6
0.629160243598,0.00390689787737,0.023772612245,-0.650103060831,29.9773063523,0.628908036807,0.000478938451473,0.00585323476819,-0.772299814175,29.6998403524,0.629090541921,0.00331779891513,0.0132011499086,-1.06283450555,29.9271353648,0.56913689749,0.00336800101233,0.0910403752548,-0.213876835315,24.5429926812,0.415321668771,0.000878902795287,0.0123326506597,0.0214996320624,13.0019454482,0.61668906752,0.00359514257796,-0.00663833072345,-0.135759024552,28.7889460006,0.492238126198,0.00610094843994,-0.0430171121432,-0.345583585221,18.6238481508,0.531270802149,0.0150120885533,-0.00334213429369,-0.214762828119,22.2795444441,0.561640728483,0.00452692164332,0.0121771935549,-0.0349528711048,23.9930152934,6
0.627998855391,0.00393067480352,-0.00718981513774,-0.589280783553,29.8695621134,0.628357978241,0.000482946784775,-0.00154632583716,-0.689079198006,29.6482692235,0.62809956142,0.00333265913841,-0.000896825433135,-1.00424478419,29.8347962055,0.569030813325,0.00340561501812,-0.0014750534245,-0.202140238233,24.5367204999,0.415505626135,0.000887109485499,0.0120392006087,0.00316356615315,13.0140155032,0.616715958037,0.00366025073784,-0.0196648643728,-0.125130161795,28.7962515219,0.492974842332,0.00616171123931,0.0245311076671,-0.366581098098,18.6827812696,0.531276133383,0.0150487683285,0.0348928530544,-0.214156068895,22.282683599,0.560966380807,0.00454833682015,-0.0140159881411,-0.00526371746077,23.9378229543,6
0.628671613007,0.00393773422901,-0.002395656994,-0.620393264226,29.933492108,0.628619201302,0.000483950646716,0.00233580553837,-0.723082923533,29.6729698663,0.628608275491,0.00333747056596,-0.00283047776338,-1.02896658705,29.883100123,0.569900193698,0.00345555544024,0.0808764756217,-0.211296316197,24.6146784109,0.415601308892,0.000889783477889,0.0579494008811,0.00892082529039,13.0201775738,0.616262597679,0.0036990184163,-0.0719117102208,-0.0994446696539,28.7571965601,0.492872765236,0.00618317214757,0.0316526104258,-0.36080834604,18.6768219422,0.528297596824,0.0151145165503,0.00943024757398,-0.140555711252,22.0508505355,0.559013059474,0.00463128192421,-0.0558994817801,0.0514642014065,23.7798849121,6
0.628261638449,0.00393833887459,0.00348218390571,-0.600182954178,29.8948885527,0.628320973786,0.000481165992248,0.00445614075335,-0.69040594423,29.6446497408,0.628259857333,0.00333688700062,0.00281527485341,-1.01073041949,29.8502132632,0.564747561146,0.00376644454532,0.120633407397,-0.204462367433,24.1992024829,0.413486389261,0.00085821743679,-0.00307830444895,0.109791902764,12.8863326481,0.620377784497,0.00352326717265,0.00443630533405,-0.224987598664,29.1258664331,0.490810532917,0.00628460649665,-0.153918523086,-0.302147995197,18.5321843224,0.530585399554,0.0148695847613,-0.421410219326,-0.28929858889,22.2144142388,0.561847112249,0.00462443012758,-0.199430506861,-0.00353756719434,24.0176211452,6
0.628468099328,0.00393758787935,-0.0115185254182,-0.610494626738,29.9142928935,0.628605010625,0.000473710529505,-0.0181071216068,-0.740583419708,29.6708740329,0.62849915837,0.00333571293561,-0.0124518820154,-1.0240225791,29.8726821626,0.566752338353,0.0027210966921,-0.134076480631,-0.179785483917,24.2919771323,0.416871024389,0.000734007349819,-0.0755954339575,0.0828017532436,13.087925367,0.613527270415,0.00296531029663,0.116786331309,-0.261617314799,28.4506113276,0.493428056817,0.00595866172098,-0.178982081936,-0.082666965234,18.7012845114,0.538453598021,0.0101278361043,0.122635944356,0.00350725010007,22.4943806633,0.564825961781,0.00386358347802,0.109609433758,0.0162734683591,24.21303271,6
0.62864947354,0.00372681183532,0.143541106836,-0.618699607815,29.9157961194,0.628585052518,0.00044093672883,0.0684500336037,-0.728183195518,29.6665669366,0.628286886045,0.00317641485608,0.147947099566,-1.06970337846,29.8408855376,0.571340710492,0.0022040028407,0.00478283532012,-0.113349879069,24.6453617701,0.414950806066,0.000602924271552,0.0727422449866,-0.188004431697,12.9584292552,0.616552312314,0.00233448802576,-0.179315329234,-0.433357597895,28.6830086504,0.490113500236,0.00572313815489,0.129337698907,-0.0481600327165,18.439355457,0.524033518151,0.00798616563088,0.0238249950287,-0.197035771458,21.1868108676,0.557926571263,0.00324450712103,-0.0308167292077,0.0456903990802,23.586247946,6
0.628596272475,0.00298140145019,-0.169759928955,-0.74845988089,29.8556192401,0.627829106002,0.000342470219407,-0.0328974558013,-0.548740596677,29.588046772,0.627502515315,0.0026513517068,-0.144625886463,-1.16574277905,29.7281555308,0.568033984364,0.00199710421847,0.00340222291299,-0.0570745184218,24.3474812666,0.414943514395,0.000505672205667,-0.0145115239564,-0.119454773373,12.9507787536,0.617850771707,0.00214401741131,-0.00190042771229,-0.650617634707,28.7891254959,0.491427699105,0.00489760641293,0.0445903414245,0.0834749371459,18.4750116331,0.533946632214,0.00667124163358,0.0289635765566,-0.207540156274,21.8760973348,0.562501283294,0.00303134802907,0.00886040550259,-0.0966639808621,23.9548967822,6
0.62880401457,0.0015044216596,-0.113913593539,-0.782618905179,29.7659138583,0.62851683565,0.000317645315981,-0.0190130790124,-0.472748315323,29.6510117056,0.627796704435,0.00135257045497,0.0799400760966,-0.764791557639,29.6597428711,0.56937925943,0.00195361797678,0.0119011805122,-0.131189845528,24.4590233104,0.41548370415,0.000433571236894,-0.0646163439374,0.158841312119,12.9790874026,0.617101455701,0.00191437081569,0.0183523066771,-0.98043220993,28.7027289375,0.494777431197,0.00428906174184,-0.198288886248,0.361102683935,18.6777435505,0.5288747069,0.0054762895336,0.0714283689219,-0.305016113073,21.3833795954,0.560317259272,0.00262524911018,0.0808735752621,-0.0926355123623,23.7409257621,6
0.628710455276,0.00123998163031,0.124101700349,-0.00156252343731,29.7375213837,0.628836038436,0.000328792870965,0.0483706313817,-0.241022591087,29.6819379152,0.629417953404,0.00113203380328,0.0906475689471,0.123144297849,29.7962925065,0.568230386575,0.00183841894777,0.0705476605657,-0.0886304143136,24.3524759192,0.416292206971,0.000367244505322,-0.0426039779841,-0.132179922969,13.0246162123,0.615904511225,0.00191052925722,0.0838753239095,-0.948763582579,28.5917566861,0.494484636974,0.0027647540895,-0.014552604292,0.113680292991,18.5432210179,0.530798776649,0.00454953724838,0.0473657055821,-0.327133785917,21.4677163533,0.561012849886,0.00227414583348,0.122020074643,-0.150587140813,23.773443122,6
0.627928345072,0.00124585355569,-0.0782339943843,0.771138318533,29.664243654,0.628563690981,0.000434452805149,-0.0681186590259,-0.0996119650749,29.6640730291,0.628832322969,0.00193293376618,-0.132253516328,0.220776428597,29.8002938795,0.569059026717,0.00179055863128,-0.000516397187391,-0.0277490064262,24.4196145303,0.415160536667,0.000370373002755,-0.000171033476529,0.0349543871073,12.9542779426,0.617042294642,0.00191157368861,-0.0766468639581,-1.02014222789,28.6970459563,0.491609028257,0.00305737731009,-0.190309366405,-0.577877552187,18.3522036708,0.528711487523,0.00572277316325,-0.152262881784,-0.537628387713,21.388672992,0.55818831643,0.00188273429421,-0.103692345697,-0.138499473744,23.5073870827,6
0.630730629466,0.00133875364546,0.0705637409638,0.698417107484,29.9356522907,0.629703264218,0.000456721978134,0.0359894646608,-0.0559590573984,29.7732624989,0.630510190661,0.0022124939118,0.118141944806,0.227004038495,29.9794570891,0.568552263884,0.00182619644379,-0.0388772360993,-0.0342072900926,24.3790142944,0.414432296806,0.000368663571984,-0.00538534962417,0.0465176343941,12.908840752,0.616463850792,0.00190005933802,0.193892512234,-1.02071577464,28.642680341,0.491465195543,0.00680689824948,0.068454341871,1.03050134895,18.6190633527,0.536972993791,0.00606233330058,0.139972107087,-0.549074383528,22.0741123688,0.564550303535,0.00187785609818,0.0621124448927,-0.37588961392,24.0427397429,6
0.62756250523,0.00139791993071,0.0511779449029,0.791894511059,29.6410484227,0.628109632417,0.000472993211613,0.0232502224122,0.0864694240193,29.6241297728,0.627566895832,0.00229664842801,0.0396865118999,0.331519386604,29.7079676395,0.568550746644,0.00165843869677,0.0664018491832,-0.0753493078015,24.3664708268,0.415806858388,0.000397484230719,-0.0125871752194,-0.0811160354607,12.9965645943,0.616756677317,0.00150792613041,0.0529470479728,0.0096351047574,28.6407464598,0.492677709994,0.00701379810048,-0.0247696436697,0.983472034202,18.7238705038,0.530810175492,0.00959358685091,-0.0775023542746,-0.661248957335,21.8418836074,0.56210002141,0.00250887561279,0.0524248879219,-0.461050515136,23.8823893505,6
0.628633065686,0.00143251931984,-0.0398334063593,0.701189474433,29.7444712752,0.628636515817,0.000480635872616,-0.0168710540342,0.0220177972264,29.674357231,0.628614018352,0.00233208153043,-0.0385028220348,0.269722032089,29.8092428384,0.569023502725,0.00174219011988,0.0109415606173,-0.123308700673,24.4130030679,0.415145815281,0.000677973756777,-0.0386337598815,-0.663350223168,12.9761236539,0.616892161908,0.00177893396101,2.4689978666e-06,-0.0965193621838,28.6733365699,0.492441160858,0.00730596478856,-0.0462475846892,0.922546270331,18.7280136624,0.529988830133,0.00976011453922,0.0114510355097,-0.624456700117,21.7888604808,0.561192602015,0.00255539193432,0.00152541499577,-0.41118450313,23.8093842449,6
0.628498653445,0.00143831624326,0.0181721455414,0.706958267351,29.7322272056,0.628544698465,0.000482560493596,0.0121205478248,0.035224484284,29.6658423241,0.628467246985,0.0023360611605,0.0132923035382,0.278221298038,29.7956995659,0.566592611684,0.00169853473798,-0.0406924381338,-0.128958501646,24.2027306417,0.413715043969,0.000748090833899,-0.0332727395137,-0.446811149247,12.8923690422,0.617902021683,0.00172679945963,-0.0255617371749,-0.172162717287,28.76300129,0.490980187615,0.00807089881205,0.0240566882776,0.765757544023,18.6768623594,0.531530748807,0.00964908749344,-0.11577900215,-0.691356244908,21.9034027441,0.563136623918,0.00265268985196,-0.123409517787,-0.298752952532,23.9805133389,6
0.628358249299,0.00143969006391,-0.00670627518147,0.717289989147,29.7190937744,0.628505884109,0.000483864703754,-0.00950701060081,0.0397050361855,29.6622794651,0.628398724606,0.0023376787365,-0.00591126196522,0.28230724886,29.789360008,0.568725543546,0.000958982439178,-0.112504260492,-0.0366614983582,24.3296204917,0.41651620674,0.00076569321886,-0.0573478268115,-0.599491970325,13.068092584,0.617661144629,0.00224153598063,0.0747902701356,0.551109902985,28.7787703814,0.492816982072,0.00815694592729,-0.188860153003,0.79644980052,18.818757335,0.533658796738,0.00872721423785,-0.0435456672518,-0.730012858033,22.0051922038,0.563683490437,0.00281076434385,0.165341049211,-0.132767570866,24.0384273658,6
0.628632107816,0.0014655523606,-0.000438871679001,0.682344332483,29.746825398,0.628662658586,0.000493738887794,0.000298857771896,0.0275456580565,29.6777920502,0.628639319739,0.00236528569975,-0.000101428574423,0.26468854195,29.814085716,0.569707211437,0.000717188516226,0.0275639738906,-0.282303836334,24.3955449575,0.415217895604,0.000804546462926,0.0448647215279,-0.616186182231,12.9899790005,0.617527137844,0.00362918593523,-0.113739255485,-0.786913574572,28.8690422073,0.492522232233,0.00760669737561,-0.044921334445,0.858540531472,18.7562567991,0.528678131112,0.00854753566776,-0.0419909990644,-0.629830869181,21.5950601131,0.559203928007,0.00291290678097,-0.0312434177067,-0.0742046229412,23.6687325842,6
0.628280958488,0.00147150687963,-0.00106573602074,0.705751130175,29.714163719,0.628398806467,0.000496277069696,0.00595645523596,0.0630186558413,29.6531040009,0.628282513267,0.0023710442938,0.000286470970407,0.285997712828,29.7808760135,0.568953427607,0.000710370110458,-0.00581720451703,-0.217403800072,24.3306675971,0.415008857135,0.000808933465252,0.00579587095676,-0.586339859565,12.977287439,0.617331115175,0.0035538986535,-0.0125480688264,-0.789229044873,28.8453164326,0.491590731137,0.00747473740545,0.00833332634701,0.912486233422,18.6777390885,0.531818973166,0.00847017953118,0.00619923423916,-0.729155713111,21.8391498018,0.562343508692,0.00299262565914,-0.012820555094,-0.199768484949,23.9387209314,6
0.628309152479,0.00143745895561,0.00392685266809,0.724999804807,29.7143012944,0.628612236082,0.000477262777416,0.000130985843229,0.047765433853,29.671818197,0.628360181801,0.00231403317707,-0.0121513427094,0.285283705906,29.7839773106,0.569319883858,0.000703573383331,0.00294935752417,-0.256861546225,24.3614491921,0.414923198426,0.000772555732765,0.00888203359986,-0.598563222523,12.9692636686,0.617779147768,0.00342793167857,-0.0271556406508,-0.860581206227,28.8774976004,0.491708784099,0.00718231097455,-0.0404463722197,0.965316762394,18.6648056391,0.529939035277,0.00843933791679,-0.0756405271722,-0.673136732944,21.6871645891,0.56085073525,0.00298660751707,-0.0371796832718,-0.125996034046,23.8125249985,6
0.62881511928,0.00139582443195,0.0631420739915,0.732874142408,29.7589250756,0.628679502354,0.000379500084439,-0.00898368417251,0.322119778401,29.6709267573,0.630176011598,0.00208713293822,-0.00907502863412,0.407971426612,29.9385832569,0.568198245947,0.000782143857358,-0.0925561104558,-0.335021154266,24.2715721477,0.415432926687,0.000754234272334,-0.0438779336274,-0.650841754885,12.9996520793,0.617169382263,0.00339575112265,0.0971029151321,-0.845207531458,28.8186390633,0.493279019782,0.00702581523457,0.0654354095064,0.953870591361,18.7692246792,0.534147742258,0.00814275515866,-0.04811760055,-0.810095159884,22.0010996737,0.56271686303,0.00292610935841,-0.0107905383593,-0.219023368416,23.9653021879,6
0.628446328725,0.000983310760801,0.0333361335019,-0.033345207524,29.6936241029,0.629023088312,0.000269170572641,0.050921468478,0.873028048846,29.6951720446,0.629198338671,0.00146814908284,0.131598783131,0.842236734637,29.8004342361,0.570446515498,0.00094688994319,-0.0686412836778,-0.0382265951631,24.475761884,0.41647748661,0.000849551937967,0.0845212534768,-0.526265581803,13.0718791074,0.615058757446,0.00344726811506,0.0108952400932,-0.734462084112,28.6273934738,0.492523373553,0.00779741480572,0.19580895503,0.904921420804,18.7704542079,0.533457086214,0.00860003297079,0.116442154505,-0.62589475835,21.9796371522,0.560501734063,0.00302538654546,-0.0463649364017,-0.138985434669,23.786043146,6
0.627544203439,0.000460885750701,0.0378757490521,-0.0272488264644,29.5699850908,0.628392832604,0.000116836389638,0.0130419912682,0.970727866871,29.6244622979,0.628350133491,0.000621302652879,-0.0014571301918,0.738138727953,29.6577681656,0.571231699133,0.00189740900162,0.132294832639,0.466025336249,24.6133323232,0.41468521794,0.000922772313936,0.0279879936203,-0.541200696053,12.9655723996,0.618291369864,0.00343197301315,-0.0463155007197,-0.851126711229,28.9252823566,0.493471963314,0.00624203161674,-0.334206493209,1.33492206843,18.7255037329,0.52865485484,0.0089498772081,-0.180460206553,-0.68110404771,21.6229875793,0.561714269868,0.00308560511332,-0.118006176561,-0.0558773491128,23.8925538514,6
0.628406484336,0.000179848309207,0.0420907820604,-0.121550635618,29.6304119915,0.628331724314,5.83647064846e-05,0.0192706315056,-0.303576727535,29.6143756717,0.628080861609,0.000181108044965,0.0225229312972,-1.21968225082,29.5998196493,0.567397730089,0.00214322576291,-0.0733401005896,0.438776540795,24.3041125147,0.415383789876,0.000903527065641,-0.0107989410545,-0.594368639895,13.0076379697,0.61626874574,0.00341978253238,0.06173734376,-0.782036858128,28.7371014306,0.493626269727,0.00423871715311,0.045394322523,0.0623930763804,18.5886821317,0.538036022165,0.00699393283169,0.231616658294,-0.0961340122567,22.2287581156,0.562319335677,0.00268794356715,0.123695401582,0.229308428555,23.9141354696,6
0.628218173113,0.000362880172885,0.0974130768494,2.08735930165,29.62620861,0.628476029367,4.2752345433e-05,0.0100288325102,1.04382697121,29.6268226352,0.628196941923,8.67860777098e-05,-0.00914710253055,0.572233540599,29.6037770078,0.569204728455,0.00227854300855,-0.0621309829391,0.402667075834,24.4681638998,0.416041058358,0.000810121176267,0.0103945409614,-0.136435387839,13.041711135,0.614597271438,0.00365275645292,-0.0155918917621,-0.536472531584,28.6000394319,0.493050078928,0.00495607427379,0.028353669182,-0.257378708742,18.5991280211,0.527993692925,0.00711306661041,0.202743999664,-0.409219488417,21.4346674118,0.560899291452,0.00251698020783,0.0350956701485,0.198716209534,23.7818576717,6
0.629068077996,0.00144246964507,-0.103956866002,0.716675039696,29.7862412602,0.629880336203,0.000842033149687,-0.00792491617818,2.67137520227,29.8185032982,0.629073551648,0.00070016743931,-0.0190247442445,-0.503610238786,29.7318273942,0.568371796012,0.0021928744919,-0.0261228431044,0.484100646739,24.3907601001,0.414809235599,0.000692179323545,-0.0521066631894,-0.100022737906,12.9562239153,0.618285289248,0.0038714976827,-0.0152226896648,-0.559505616541,28.9572432461,0.491536565071,0.00465733853034,0.0264747523733,-0.265603847784,18.4652576614,0.530641551055,0.007187432157,-0.00375188565914,-0.463646894535,21.6504041576,0.562195316676,0.00248500446879,-0.043457360124,0.131473615773,23.8886583876,6
0.630129827568,0.00178183314149,0.126338626934,0.86349253877,29.9116256217,0.628542241358,0.00101469337153,0.0367859191254,1.69914682644,29.7049884973,0.629593372398,0.00104590340093,0.108187851371,0.0785517289317,29.8064829442,0.569465864754,0.00211096087523,-0.0371016799677,0.479207929678,24.4780639388,0.415882652399,0.000601647899154,-0.00637335716652,-0.24159258163,13.016400487,0.616040867785,0.00393234113536,-0.00339707523163,-0.451783921612,28.7539695527,0.490581870935,0.00354322114003,-0.000205579789772,-0.435495887264,18.3124912711,0.530989230392,0.00713965836761,0.0336595614652,-0.480062043018,21.6745519286,0.562117481234,0.00196516439628,0.0466841049491,0.178884695179,23.8436268685,6
0.628352246491,0.00266883545977,-0.0697373627567,0.57463948803,29.8094847493,0.629295687263,0.00131549344614,-0.0233584371115,1.23454727051,29.7983261656,0.629596375553,0.00194702074088,-0.0241098146472,0.677210547793,29.873449243,0.567937614855,0.00214494077275,-0.00109504975086,0.550663785825,24.3502106947,0.416068540464,0.000577105619541,0.0876268879137,-0.190217147398,13.0261830931,0.618231872469,0.00255391619576,-0.110886105084,0.531546980682,28.8547884087,0.491918950998,0.00455127518104,0.145724595351,-0.5056905592,18.4856134397,0.528273764264,0.00846015877983,-0.04944832238,-0.449885046286,21.5565395005,0.559093527038,0.00169806918714,-0.073481357231,-0.0877693477716,23.569575018,6
0.628775882177,0.00322443445901,0.145720941956,0.534399826925,29.8905414005,0.628862110577,0.00140989505651,0.0456334592302,1.12852208107,29.7643987932,0.629033276759,0.00247113535568,0.173021979102,0.844217040082,29.8590787616,0.569116168156,0.0021284199175,-0.0106760917811,0.501613588061,24.4494940382,0.414782897017,0.000570004395017,0.00191892186312,-0.137520572214,12.9455441995,0.616970657869,0.00205430786005,0.00919031202625,0.220128140819,28.700978232,0.49001768845,0.00610258961463,-0.025895825148,0.3959716401,18.4603917561,0.532015442928,0.00956182588486,-0.0875984955393,-0.374476155193,21.935607479,0.561661849374,0.00182319191645,-0.0786481886534,0.0562108859593,23.79471868,6
0.628658406003,0.00328705322815,-0.001783432528,0.520805298062,29.8840962967,0.628546516068,0.00144656032389,-0.00799793869239,1.08891945597,29.7373496785,0.628452247838,0.00257129638797,-0.00827791922655,0.800143340452,29.8116930186,0.568980746918,0.00220524289777,-0.0463442554833,0.485242180203,24.4436197517,0.415192525905,0.000626265115178,0.0128284347399,-0.254430263981,12.9752061361,0.617492081782,0.0021657662106,0.0115083597996,0.191232914503,28.7575020294,0.493762827159,0.00636638415917,0.0459125037276,0.276714017208,18.7562421391,0.530507641306,0.00981621184842,0.0476164416268,-0.310195667311,21.8342764881,0.561443151024,0.00178899417313,0.0421763983209,0.0622016179984,23.7737664562,6
0.628525483057,0.00334565131361,-0.0102966362076,0.51116329796,29.8758994111,0.628615738449,0.00146922571515,-0.00233036137218,1.06735511524,29.7455536999,0.628500908305,0.00263657126429,-0.018415394046,0.766538256979,29.8211106541,0.569020744295,0.00228064979007,0.0526469845726,0.469767287565,24.4526136423,0.415236131816,0.000679652675771,0.0249320687891,-0.167427361226,12.9818726854,0.617085631598,0.00233009779187,-0.0310413221139,0.147163055049,28.7320279909,0.494090998168,0.00713266767576,-0.0195959875533,0.283412224973,18.8372609933,0.530944883492,0.0100207943448,-0.0357558620812,-0.33179039852,21.8842239795,0.559749497164,0.00196983554137,-0.00942166471731,-0.00043764575918,23.6447302982,6
0.628534445465,0.00335500915815,0.00905906464824,0.508474062379,29.8774368629,0.6284195727,0.001472388236,0.0138199410428,1.07879013692,29.7272936809,0.628557467927,0.00264657712554,0.010195504492,0.758925931639,29.8271834938,0.568606524078,0.00246757359935,-0.0167702505599,0.390888617376,24.4311038881,0.415594354468,0.00068164748918,-0.0524951587475,-0.170583459984,13.0043419741,0.617217757116,0.00272105358808,0.161547314021,0.288205066944,28.773189943,0.492492764996,0.00732385315071,0.00480891887119,0.307274507506,18.7331494011,0.52883317881,0.0101921192976,-0.0819698402332,-0.290767668332,21.7290566538,0.560958711924,0.00250618964844,-0.110309397175,0.0572357239394,23.7860587702,6
0.628392446197,0.00335814876745,-0.00399402546591,0.51527372695,29.8642829916,0.62840301703,0.00147043713425,0.00143481138662,1.08193075543,29.7255887339,0.628416843966,0.00264926694288,-0.00145294509832,0.766119194481,29.8141254873,0.569836525116,0.00237694879135,0.0802881119737,0.591384930633,24.5294191123,0.414265290191,0.000771568354329,0.0242053769782,0.215602194441,12.9282758575,0.61832028192,0.00475172949746,0.0362674547161,-0.900904127543,29.0256258104,0.491328763878,0.00681314648896,0.179576517624,0.291642369876,18.6094694062,0.528435818748,0.012478409872,-0.257935025477,0.0326423116946,21.8667334207,0.561652799924,0.00257269433545,-0.132084346541,0.0729244495978,23.8494194555,6
0.628520762533,0.0033592597486,0.00218049514825,0.508198470358,29.8764613915,0.628594996539,0.00147001629299,-0.00306434676856,1.06707959389,29.7436564312,0.62850688742,0.00265030271021,0.00231801673816,0.760276978535,29.8226904656,0.567199659915,0.00154796476535,0.0592146463855,0.0724631324227,24.2432084582,0.415435154501,0.000701111881934,-0.0191801725268,0.254492365404,12.9958598489,0.616305552945,0.00475537744165,0.0279434742545,-0.840319487324,28.839338025,0.492118453525,0.0061169893292,-0.107640675689,0.512928250055,18.6162001328,0.53494042558,0.011602980724,0.0151698261141,0.0991122858206,22.3207149925,0.562660681241,0.0023900398246,0.0589241853,0.020683738769,23.9208911131,6
0.62841892478,0.0033594228712,-0.0201387293874,0.51357516974,29.8668731691,0.62855959048,0.00146960235366,-0.00529161494761,1.07037985867,29.740287483,0.62843138919,0.00265043927705,-0.00627517263286,0.764736164387,29.8155833255,0.569483183181,0.00118502145351,-0.0757608657216,0.153603387426,24.411023782,0.415252001372,0.000681416820296,0.0400928260002,0.31377091565,12.982991693,0.616871191136,0.00456789183464,-0.138547865335,-0.978469357314,28.8777789798,0.491083144381,0.00592811580824,0.106648167892,0.545410370666,18.525879672,0.527589094325,0.0105871034568,0.115310571421,0.239848463256,21.6597145896,0.559449661171,0.00225580406707,0.0304534361055,0.172417000237,23.6407237548,6
0.627874194301,0.0029157122584,0.142731336974,0.549690354284,29.7827129973,0.62793375149,0.00144073317339,0.066746495297,1.13917790393,29.6791739744,0.627554479268,0.00259078505119,0.115653270515,0.827891111603,29.7285649275,0.569101794961,0.00105102085392,0.0123754313809,0.12717636355,24.3685395203,0.414625015908,0.000592114068953,0.0184217817134,0.274626512764,12.9373592274,0.619317064259,0.00397168929438,-0.0342826571103,-1.31432307186,29.060426964,0.491888132573,0.00480044473877,-0.0301323981217,1.03305661967,18.5017780331,0.530964663206,0.00902466510417,-0.0617640231744,0.345955815143,21.8120857357,0.561965420651,0.00213188550299,-0.0139064146353,0.10796197141,23.8431445778,6
0.628034656776,0.00195555635652,0.0408754598419,0.69900222646,29.7267759287,0.627505953063,0.000634043900673,0.101252012587,-0.375502064669,29.5791983334,0.627358512689,0.0019656951609,0.0355749151858,1.356201732,29.6638642002,0.568922014143,0.00104582002087,0.00484683803861,0.145620894394,24.3528100448,0.415569925274,0.000571379786513,-0.00838598328017,0.197243343252,12.9946593136,0.616086782332,0.00366763299608,0.053639559491,-1.41128824615,28.7386240941,0.49273538089,0.00476236951648,0.000436833105481,1.01121044461,18.5615270127,0.531231154164,0.00890170493325,-0.00609547383784,0.340428129583,21.8242166016,0.561176231459,0.00213390165156,-0.00706918684331,0.158019837104,23.7768159288,6
0.629558988842,0.00125733377281,0.0420599118421,1.41106199079,29.8188817316,0.628960793467,0.000383169827562,-0.0276635431898,1.39387560852,29.6977305461,0.629707848272,0.00137981740386,0.0453046498421,2.32358460108,29.8420045511,0.568671925699,0.00103239822687,0.0292078105529,0.164670310793,24.3304793997,0.415347470958,0.000562790384779,0.0247153943213,0.230868938291,12.9801606108,0.616733991542,0.00358613896505,-0.0464974646745,-1.48204823154,28.7924355077,0.492422395425,0.00472243284655,-0.0735258947617,1.03309675221,18.5354461943,0.531367569033,0.00872915068428,-0.225960496377,0.343551720983,21.8223191571,0.561302357973,0.00207337835875,-0.0593889734947,0.146578028515,23.7829552785,6
0.626898340952,0.000614254767508,0.0981885421921,1.11392885247,29.5205695944,0.628654771694,0.000146463280256,0.0473061944525,-0.217444265072,29.6513499308,0.627406260333,0.000735430957588,0.0998208126011,2.09422999084,29.5773180538,0.568530272125,0.000942763016499,0.0188893992976,0.192283955667,24.3117647374,0.415241311739,0.000466020345146,0.0360793677599,0.55110184065,12.9663865287,0.616023219957,0.00341026334779,-0.101534899632,-1.52108396168,28.7137050522,0.489951731816,0.00250122159056,0.0963914623059,0.5151776457,18.1890428609,0.530843428303,0.00683299279295,-0.143456262694,0.65848546153,21.6402473696,0.560147596765,0.00173487009395,-0.0596748743435,0.0839592440682,23.6607801491,6
0.628731192034,0.000114187104452,-0.0180531070963,-0.465920032041,29.6561682334,0.628536656562,4.0274109263e-05,-0.00214186864915,1.90923481382,29.6323549322,0.628576284593,0.00014361484735,-0.017490287649,-1.07487108603,29.6437384151,0.568404008919,0.00108980823077,0.0519669589221,0.0945098133436,24.3118796107,0.414269653498,0.000486459994776,0.00927905635117,0.542265991244,12.9074489753,0.618343104149,0.0035421213508,-0.106717917432,-1.49367563551,28.9382315636,0.494247807434,0.00206906232489,-0.101853329547,0.731182024878,18.4741777485,0.529388867377,0.00641938295322,-0.151148811747,0.659505402543,21.4939773062,0.560190732274,0.00152221162258,-0.0440184866828,0.154731768429,23.6486678995,6
0.628775710358,4.20531361519e-05,-0.0149387697368,3.06064659918,29.6550289773,0.62877245833,2.60990513536e-05,-0.0039823479594,4.01984147703,29.6535416564,0.628802260568,5.13866116172e-05,-0.0287139830463,2.13326983088,29.6582238264,0.567095690225,0.00148289458106,0.0350412727407,-0.016900291172,24.2295483394,0.4145557442,0.000512059475841,-0.00966723184256,0.587726654754,12.9271272799,0.618477827082,0.00358624300389,0.0567755394511,-1.48381919471,28.9539936767,0.492368564935,0.00176821757874,0.130582629537,0.9538360973,18.312858381,0.531412895999,0.00685722122499,-0.0793944249795,0.617066760865,21.6874093232,0.56125325395,0.00176894015266,-0.0839837716728,0.171343657929,23.7562927015,6
0.628725236823,9.46836656064e-06,0.00559708803589,1.20347829707,29.6478574155,0.628676120003,5.21464582774e-06,0.00583735462622,-0.420730768462,29.6429106734,0.628727863599,1.05152997112e-05,0.00821624849681,1.28464427953,29.6481826172,0.567385460981,0.00170808230549,-0.0291716649952,0.0380302200639,24.2708676905,0.415628880731,0.000530402120909,0.0396944382926,0.546306210552,12.9953022443,0.616196731623,0.00360466419102,-0.0939553958378,-1.37531423383,28.7441260549,0.491555388582,0.00132707126134,-0.0602807434587,0.46959921728,18.2202057766,0.530073162878,0.00695964754861,0.127150831091,0.66372531956,21.5883307689,0.561138669166,0.00162479680341,-0.028163601128,0.0709006076007,23.735980416,6
0.628192729072,3.37271745789e-06,0.00331887557646,-1.97041293059,29.5972074455,0.628431236888,2.9609259241e-06,-0.00534418983283,-1.58490442298,29.6196555708,0.628195278543,3.16836056735e-06,0.00524015731283,-2.02304774844,29.5974325574,0.568448324498,0.00134690241126,-0.0164073902416,-0.174288987253,24.3346831003,0.413940763718,0.000415068143196,-0.0451369121997,-0.0990593596385,12.8817367326,0.61862171923,0.00224444954432,0.158194229286,-0.577915012823,28.868051629,0.494615547314,0.0012126816668,-0.00436917089121,0.963549268178,18.4380789167,0.529481979577,0.00623484391401,-0.350268735587,0.238232251158,21.4877159519,0.561531929697,0.00127977620342,-0.116354358117,0.292353731151,23.7435615442,6
0.628583581897,9.38351311962e-07,-0.00206742706696,2.30380562267,29.6338683953,0.628643172329,7.75287206032e-07,-0.00222640003759,2.44928789293,29.6394752299,0.628576427095,8.14302364165e-07,-0.00192599319792,2.31703737863,29.6331846108,0.56999465157,0.00121027352488,-0.0165889123499,-0.156486487726,24.4566029522,0.416148423731,0.000304873260183,-0.031862378867,0.147903921839,13.0110239143,0.615238639592,0.00127218402277,0.074698664884,-0.0773455971776,28.4830353912,0.492015077894,0.000799737043632,0.0268120836009,-0.315897515829,18.2150933069,0.535978909238,0.00386649138976,0.0436481115108,0.181657155034,21.831624699,0.562693362893,0.00108440782716,0.0487201731835,0.0816765256009,23.8270327275,6
0.62839631434,2.26160896714e-07,0.00183840775431,-2.10112799445,29.6161613266,0.628525734124,2.47003423082e-07,0.000729661332554,0.671688621547,29.6283631625,0.628412205958,2.14695068919e-07,0.00132432606704,-1.84756040303,29.6176584322,0.568509676364,0.00115927374256,0.0137797163536,-0.0747568716601,24.3260301659,0.415136043636,0.00027907073361,0.0230486717825,0.214929114983,12.9459963387,0.616643581698,0.00119976124095,-0.0534327818124,-0.0286277410325,28.6074803456,0.493330117352,0.00080009567924,-0.017524060816,-0.432795875721,18.3123024317,0.528470053205,0.00369313662728,0.0312397164725,0.33711198004,21.2193368955,0.56029524874,0.00105374726156,0.0119169754746,0.257067885738,23.6227847294,6
0.62836867629,0.000160216726534,0.075622085817,1.00966507052,29.6253955384,0.628398617484,2.35574466239e-06,0.00202153627525,-3.08357221368,29.6165360093,0.628654807646,0.000128184653043,0.0752297162544,2.53737018404,29.6500007026,0.569065983207,0.00114521998403,0.0198520160911,-0.12150874826,24.3724532721,0.415477116161,0.00028041514813,0.000231228821682,0.169237344679,12.967343275,0.616344471626,0.00122106888249,-0.0013565522179,-0.00711329549681,28.5813971751,0.492646249459,0.000778832445133,0.00155886005487,-0.431066958856,18.2601581339,0.533378682876,0.00361588998735,-0.00241551215862,0.145101996302,21.6045373101,0.562078810201,0.00106247160322,-0.00433772898651,0.103422139037,23.7735670644,6
0.625604321428,0.000552361629141,-0.119442965843,-1.886581948,29.3944322847,0.62747021079,8.87507686526e-05,-0.0694938879712,-5.37411642319,29.535482464,0.625854014706,0.000543180479624,-0.0671152904327,-2.13455621454,29.4171889348,0.568889610251,0.00113698723339,0.00875573052141,-0.111233453192,24.3567912042,0.415285409062,0.000278271378717,-0.00685849977862,0.200834530173,12.9552399055,0.616970334407,0.00118847753329,-0.00617843346316,-0.0397703530014,28.6368768528,0.492145602908,0.000796075894479,-0.0623243665346,-0.397601269625,18.2244567008,0.529552112969,0.0037545313904,0.0219669334427,0.281387423825,21.3097433492,0.560854211549,0.00106626639436,0.0320758141071,0.184888713613,23.6707122091,6
0.628037782749,0.0021102272094,0.0136693606822,2.24398586878,29.7385160555,0.627382235428,0.000533355959741,-0.0393186324952,2.33448486068,29.5601035408,0.627803640787,0.00195423586234,-0.00467774196368,1.46950287195,29.7049193078,0.569101221722,0.00113593023609,-0.000432709907982,-0.130104250019,24.3747738798,0.41532288941,0.000278521597278,-0.00318489996657,0.194621627939,12.9575932833,0.616648804428,0.00119472857143,0.0129667757963,-0.0132914854766,28.6075910145,0.492913121903,0.000818233901936,5.8305918188e-05,-0.455418446016,18.2828002395,0.53172494072,0.0037911571816,-0.0139268383123,0.1827757224,21.4854015752,0.561489581496,0.00107391685513,-0.00515155900113,0.132407793883,23.7247611069,6
0.62893022131,0.00226980606716,0.0874209859143,2.03658022468,29.8344573948,0.628631209546,0.00068385814177,-0.00560776500987,1.59260556697,29.6888953237,0.628866268878,0.00209596573575,0.0645379490583,1.2969904959,29.8155602744,0.568958884436,0.00113625436563,0.00224676209664,-0.117128525052,24.3626487364,0.41529130666,0.000279045771988,0.00170538754025,0.200068868383,12.9556645912,0.61688456057,0.00120673643129,-0.0140305581731,-0.0326658737202,28.6302905762,0.491865090176,0.000824232877737,-0.00550174519603,-0.342946551031,18.205838253,0.529792346603,0.00381409508571,0.00200456077323,0.274046030222,21.3332378253,0.560929072668,0.00107852017748,-0.00424485246041,0.18231014401,23.6779173355,6
0.628356909634,0.00262932634136,0.00565910999513,1.54785597083,29.8070005906,0.62894601789,0.000905768272135,0.00566591767893,1.35214405857,29.7350088586,0.62861652615,0.00250185332377,-8.43607023641e-05,1.0003058177,29.8220424172,0.568630286263,0.00116310794953,0.063576829871,-0.0769497818343,24.3366001724,0.414790439447,0.000262092969754,0.0171648460856,0.15599329447,12.923228029,0.618222737322,0.00113246624587,-0.0321789877508,0.0190075521412,28.7487539728,0.492501103981,0.000836299767286,0.010826644594,-0.42094611914,18.2536864894,0.527023229332,0.00379780803709,-0.110514398254,0.104179977633,21.1125491139,0.56010308389,0.00107355058223,-0.0144825437101,0.204281038964,23.6081025868,6
0.628701419979,0.00330312229574,0.083372336168,0.941712704163,29.8893417112,0.628660908686,0.00105128838274,0.0231325323447,1.11647139304,29.7188856985,0.628751727399,0.00307772472413,0.0305286331309,0.841911193117,29.8774067326,0.567295806011,0.000969182003151,0.00813882857378,-0.287829135209,24.2085593321,0.415030032886,0.000193669904239,-0.0248686401022,-0.00442756546242,12.9330761877,0.618068751135,0.000828154641613,0.0066084928337,0.0746445760428,28.7119570282,0.493551313548,0.00143536045334,-0.0491566643728,0.130331427056,18.3756841064,0.5324171042,0.00353871076601,-0.0402144559185,0.0432860203255,21.52196256,0.561860771322,0.00104869241081,-0.0342663460583,0.0263885228166,23.7541677147,6
0.628104584418,0.00419175331044,0.103946324265,0.41920341027,29.8988424175,0.628281040199,0.0011651006996,0.0333132104022,0.913087051111,29.6914973623,0.628185333285,0.00383019515307,0.0956731366848,0.435217053045,29.8796954129,0.568382878366,0.000554116448599,-0.0457257239287,-0.00556738051397,24.2704368486,0.416133502986,0.000139217680186,-0.00757411468562,0.446023923404,12.9978340314,0.6159315197,0.000710629901916,0.0719731804163,0.0253213366501,28.5054593848,0.492034755187,0.00150373052662,-0.0848540496203,0.172045462112,18.2686410823,0.529042683877,0.00376847215382,-0.081687877637,-0.318534903979,21.2703290417,0.561623794097,0.000868454155219,-0.0261706886945,-0.220204818146,23.7208620647,6
0.628253478915,0.00431563145883,-0.0175600117423,0.402233119696,29.9220392606,0.628358725219,0.00123710820905,-0.0106556943824,0.863447285907,29.7041475744,0.627934196842,0.00420177808729,-0.0285109648306,0.453953608481,29.8835332457,0.570037811085,0.000335431556582,0.00203847020534,0.52212164068,24.3955548902,0.414872574272,9.96436292521e-05,-0.00851754233216,-0.496075549198,12.9163175948,0.617477229051,0.00057174221696,-0.0234674248468,0.215116644049,28.6381685538,0.494261747438,0.00119979504179,-0.0440637697452,0.312199211722,18.4108854566,0.531626906402,0.0040949311305,-0.063542541822,-0.108493988102,21.5000624745,0.560989999675,0.000774682079538,0.0160551036642,-0.267001174932,23.6605599541,6
0.628747796994,0.00434210953442,0.00954879540361,0.376026043223,29.9706005224,0.628782288143,0.00125046216162,0.00606458635522,0.815595824098,29.7450716411,0.628940746614,0.00426271640522,0.00604222703782,0.401720104829,29.9829257203,0.568593022571,0.000310543678971,0.0420895762088,0.591897232048,24.270332131,0.415365411907,9.81906261426e-05,-0.0236763453264,-0.11608399346,12.946898012,0.617211676596,0.000429653148097,0.0266411931288,0.184516098632,28.6030633625,0.492386431799,0.00119971821363,0.0426262833715,0.291170888908,18.2721090143,0.532812283552,0.00452993690201,0.0244162700545,-0.255946066653,21.6268850435,0.56185667402,0.000734818018937,-0.0243342289669,-0.278990642803,23.730595694,6
0.628816001778,0.00440797327453,0.0184261542341,0.368960520808,29.9819073292,0.628606189396,0.00126355792585,0.00544276078171,0.817962397106,29.7294338875,0.628657222204,0.00434347197393,0.0144262214369,0.406079257035,29.9621596532,0.568987299878,0.000317065194409,-0.0128049721866,0.530259357163,24.304453881,0.415557738872,0.000135121590336,-0.000725968376755,-0.296328265877,12.9616165729,0.615440027683,0.000448173578369,-0.00855281725661,0.403450166843,28.4406469204,0.490864619161,0.00155253059453,0.0206541776646,0.0760215737917,18.1859928398,0.529946140883,0.00446818166022,0.0402382710788,-0.145477594528,21.3938638606,0.561990709881,0.000757007148753,0.0183199346424,-0.112654544478,23.7435353785,6
0.628288068006,0.00442192101816,0.00385122888806,0.39098407715,29.9331643853,0.628446257881,0.0012649387291,0.00815935422167,0.830295292306,29.7144578943,0.628345802944,0.00435475054333,0.00309625182914,0.418574942938,29.933635146,0.569248641374,0.000326652032673,-0.00731277050718,0.495767704619,24.3274734284,0.414792029469,0.000157808077725,0.0408967911212,-0.196276673299,12.9156098761,0.617015521426,0.00105406131534,-0.211531654964,-1.43135363772,28.6311120634,0.491948210736,0.00211685000937,-0.121901906638,-0.217657159249,18.3076250541,0.528847235758,0.00506198613688,-0.0874344858924,-0.169671229703,21.3505418818,0.560531261125,0.000944453362352,-0.0437743501951,-0.170298298107,23.6345366512,6
0.628050249249,0.00422890760709,-0.0322108757522,0.41179895048,29.8964728316,0.628407136411,0.001256415483,-0.00463850095087,0.838458151321,29.7101394277,0.628525593026,0.00423212940146,-0.065059645929,0.415539865375,29.9415091574,0.569765127453,0.000526926441867,0.0586847832964,0.600504423947,24.3864150913,0.415074070798,0.00064901039214,0.0907997000405,-0.734585885689,12.9695130877,0.616941855627,0.00311536421278,-0.182427860205,0.601748324468,28.7768309435,0.491135362562,0.00241152704247,-0.0320682919055,-0.236025799505,18.2694988281,0.528604897153,0.00701631464785,0.0503944855592,-0.229670326622,21.475942581,0.561062598317,0.00120741121701,-0.0109857814531,0.232734043409,23.6986913723,6
0.625882205474,0.0026854291066,0.076060360785,-0.905228923161,29.5783618886,0.627219796235,0.000893254872679,0.0586402296336,0.199582713445,29.5714513198,0.626047992726,0.0028208416453,0.0537225955269,-0.305275817232,29.6039489715,0.568548982106,0.000574252299227,0.0188471708521,0.556970309183,24.2860905492,0.415340716404,0.000675525778326,-0.0123306495061,-0.696413227009,12.9880822103,0.617309618575,0.00319809115825,0.0499162878115,0.563090490962,28.8169961346,0.492695626199,0.00271459213445,-0.0232966990387,-0.0838309427726,18.4070533236,0.5306316273,0.00703842366932,-0.0409493765861,-0.270211552984,21.6385876433,0.56171914536,0.00125692239401,-0.00576572976048,0.182331187393,23.7576421269,6
0.628289916204,0.00235861056309,-0.0119881666084,-0.888680151338,29.7806535919,0.628588081159,0.000711873708089,-0.0518447388879,0.441282252176,29.6869018375,0.628306880714,0.00243457450035,-0.0123629148931,-0.048409261415,29.7878737395,0.569168050948,0.000590440826751,-0.0119399016251,0.477300415888,24.3401128876,0.41545698211,0.000676245861816,0.00649465074055,-0.708920373283,12.9953799925,0.616349060892,0.00319825813853,-0.00803249971803,0.613747926723,28.7281334669,0.492427001033,0.00269803811969,0.0203791616471,-0.0714718989176,18.3859811718,0.530715837508,0.00702676538244,0.0265724697115,-0.274468700075,21.644428152,0.561338304387,0.00126322610743,0.0148315083159,0.208711307764,23.7260306298,6
0.628095032047,0.00197873648211,0.0847607230154,-1.14355026978,29.7341791959,0.62868874048,0.000569941729613,0.0490055002407,0.66852507021,29.6858906185,0.627488413341,0.00228910649465,0.0693613565765,-0.0361094856704,29.7000220464,0.569282670819,0.000590135468115,0.0192953576863,0.477632594068,24.3498769718,0.415336572295,0.000674259690228,-0.0026490135668,-0.698720808318,12.9877303385,0.617114248847,0.00319196233261,0.00012191190994,0.574564397908,28.7984549224,0.492446725367,0.00268319943704,-0.0141096957225,-0.0762603282842,18.3863400577,0.530383894793,0.00688025781552,-0.0237163742818,-0.293023648359,21.6071697676,0.561098721621,0.00124222692146,-0.000899159491287,0.219406365396,23.7043079475,6
0.627927243444,0.0018051379981,0.134393235121,-1.25667273914,29.7055269413,0.628335676096,0.000379281131095,0.042831259894,-0.0964637906364,29.6384959428,0.628694708011,0.00187525129098,0.0881146563703,-0.089750070288,29.7830462867,0.569594062077,0.000498596006536,-0.0643786307471,0.409827807489,24.3697007709,0.415565947405,0.000678024606358,-0.00556314023733,-0.693914677419,13.002303069,0.616171488083,0.00319806269249,0.0437306989841,0.607539070957,28.7117043437,0.493322223981,0.00278473668688,0.0662900618732,-0.0231555671002,18.4585817654,0.531913791529,0.00646077546758,0.0863739330359,-0.337306424799,21.698018506,0.561543240149,0.00118096407361,0.06449373208,0.181104239703,23.7372021332,6
0.627019700873,0.00112413833133,-0.00107326719642,-1.81214418256,29.5697141328,0.628180430856,0.000233195421685,0.00867901567554,-0.357783238275,29.6130554895,0.627438272442,0.00133458134121,0.0112323464475,-0.509881483909,29.6246679486,0.567739248887,0.000571533744414,-0.0182806747964,-0.280430386117,24.2168826016,0.414788832417,0.000679289040172,0.00956029205036,-0.606586297891,12.9540005513,0.617300070914,0.00321220332828,0.0095520726297,0.549046775756,28.8171563625,0.491822049449,0.0025053024924,0.0186560581257,-0.121046238495,18.3270620088,0.531427785154,0.00637089660552,-0.0792939305944,-0.342168653149,21.6526081613,0.561824223441,0.00122987273733,-0.0213489717149,0.317982398082,23.764494936,6
0.62754160654,0.000235027016354,-0.00388640912462,-0.077158975817,29.5530270946,0.627852019975,7.75343604939e-05,-0.000449412809499,-1.01386294477,29.5705994667,0.627071257958,0.000390051229121,-0.0129972191875,-1.01793435537,29.5202409827,0.568894805775,0.000666328290546,-0.0382339697914,0.102408545299,24.3224057964,0.415536451615,0.000674769318092,-0.0241778692158,-0.691198713249,13.0002236261,0.616444857299,0.0032747612517,0.0658162468037,0.578882478928,28.7426519894,0.492710990118,0.00256001381448,0.0530043126179,-0.121090386672,18.396750006,0.534890584692,0.00615321254592,-0.0617829316643,-0.303023208076,21.9134330478,0.562701892351,0.00125763598533,-0.0142964442025,0.215576617011,23.840571537,6
0.629077994282,0.000173339121565,-0.0211853703673,0.530910055757,29.6932613117,0.629046258046,4.82040130714e-05,-0.0152742763452,0.210257469989,29.6810067041,0.62947900475,0.000221961811842,-0.0398694980171,0.411269591968,29.7347114806,0.568909267523,0.000674763483139,0.030736363957,0.100964670823,24.3242640983,0.415477336013,0.000661914437029,-0.0282709417597,-0.696474862471,12.9955879239,0.615568544542,0.0033763919641,-0.0011480744338,0.608028687035,28.6692004825,0.491528532804,0.00269814726418,-0.022466433573,0.0225621486612,18.3196852896,0.530523510326,0.00494045298978,0.111870527486,-0.343531941357,21.4747331469,0.56121109972,0.0010993917561,0.0369044666518,0.265819680299,23.7031973737,6
0.628199626374,0.000147035855189,0.019742270644,0.753529995666,29.6084884465,0.628333830372,3.53007003074e-05,0.0101236108845,0.143868664046,29.6128674311,0.628064442827,0.000162408245229,0.0258401285188,0.333225162956,29.5968890359,0.569136883474,0.000658356899941,-0.0304786838996,0.0682225783112,24.3424778204,0.415547361804,0.000631915498533,-0.0134811456332,-0.725730992487,12.9977324896,0.61661714993,0.00349389498302,-0.0207498998143,0.546389238692,28.7748014478,0.489513134871,0.00282876628892,-0.109284366238,0.00364002406135,18.1810618963,0.528760469844,0.00445234258975,0.0581703435182,-0.351186709096,21.2985459369,0.561517432613,0.00108621531706,0.0146317464653,0.259137419227,23.7280169681,6
0.627993852372,9.57840992391e-05,0.00715941169385,-0.126258877918,29.5853089197,0.627954994146,6.56480812346e-05,-0.0432417960416,-3.42516930228,29.5794185584,0.627790701535,0.000116092075175,-0.0156246996053,-0.73877096367,29.5676781836,0.569529153984,0.000674369174273,-0.0292563973867,0.0164423766531,24.3771626117,0.41492010703,0.000645996841622,-0.0357220363037,-0.683526606528,12.9597059076,0.618119113852,0.00369551966146,0.0397342103373,0.446004978685,28.9288113731,0.491791353586,0.00285294698548,-0.0630266672904,0.0338960040803,18.3505232365,0.534242039997,0.00440900773667,-0.0661008346128,-0.564993143488,21.73235837,0.562566294921,0.000909449635052,0.00407160286514,0.293136092806,23.8033619866,6
0.62963532431,0.000278564821425,0.00950593304147,2.77377604724,29.7536619182,0.629113971933,0.000126195402035,-0.0100665546874,-0.146903763966,29.6931676859,0.628885920725,0.000132640578943,-0.021628102144,-0.425019852832,29.6721279993,0.568559411401,0.000662344736667,0.0578165111654,0.118098716209,24.2934988324,0.414385542675,0.000572443388986,-0.0097594038775,-1.18621942902,12.9210141591,0.617774463561,0.0029290217071,0.0186442699605,1.16472592452,28.8401441934,0.491906250736,0.00230633740863,0.0513390952497,0.214985616188,18.3185509317,0.531845724529,0.00440621470094,-0.0443865764674,-0.48303907226,21.5405504903,0.562674924578,0.0010393996047,-0.0414528313584,0.275514254586,23.8221458769,6
0.629374583411,0.000864875424884,-0.0218571992947,1.95748404819,29.7724282498,0.629069301845,0.000336473738279,0.045069356489,0.622790504864,29.7045130459,0.629204448422,0.000378483825626,0.00548007813519,1.95844076681,29.7203756467,0.568477444432,0.000458110647654,0.0436813456549,-0.353197011887,24.27139555,0.415219016795,0.000203892893843,-0.0111155159404,0.106186879423,12.9456004673,0.617170916407,0.00132529382224,-0.00563968520098,0.195899880015,28.6655672472,0.491495405185,0.00182273225069,0.0293204242596,0.205774339396,18.2524621854,0.529999022882,0.00318158531732,-0.0767870560266,0.00144736881048,21.3028596327,0.561669591839,0.000860764760907,0.00518873039134,-0.203554100344,23.7241513721,6
0.626969569878,0.00154174917966,0.034706350953,0.383325227838,29.5959025558,0.627289241156,0.000443997599612,-0.00467117891748,-0.210702385516,29.5447402276,0.626961694755,0.000467968162806,-0.0101226884444,1.03796086284,29.5157021458,0.568991742796,0.000407032838927,-0.017883049431,-0.33159533326,24.3114906828,0.415492283966,0.000193063292037,0.00182812519024,0.0829890511024,12.9618245362,0.616432405066,0.0012645822037,0.0188817053288,0.237030647079,28.5927473342,0.492863680635,0.00174823683582,-0.0170465956241,0.171717703153,18.3479651025,0.531177719396,0.0031472911384,-0.0174582717408,-0.0836912906471,21.3941322629,0.56131936891,0.000819841524552,0.0166375840612,-0.23933582638,23.6916258163,6
0.630907220535,0.00221256133989,-0.0268728703528,0.760845072515,30.0170236084,0.628602494434,0.000630737441244,-0.0758422998891,-0.26709353012,29.6822567713,0.629555363538,0.000610097967741,-0.0340969782703,1.11468779004,29.7706439316,0.569461123153,0.00046774987499,0.0608037470978,-0.0180710043188,24.3560612995,0.415457223551,0.000279351514214,-0.0400150843645,0.256274327598,12.9660248571,0.617478757621,0.00167301243926,0.130658528394,0.454525386911,28.719804129,0.492303754604,0.00200716452471,-0.00241456258016,0.154169056584,18.3257541846,0.529082166632,0.003462802568,-0.139240518619,-0.113581455712,21.2508428186,0.560563155616,0.000888764030663,-0.0552819570364,-0.248870281591,23.6330973958,6
0.630059094792,0.00372219697448,-0.041931827075,0.565370686507,30.0485272959,0.629211944161,0.000763913851884,-0.0311153139487,0.0200843266978,29.7496049256,0.63063826496,0.00149478478201,0.0351765350511,0.695368157027,29.9384606663,0.569545606213,0.000527175779281,-0.00604443979788,-0.174981488789,24.3676758244,0.41552862187,0.000330903898551,0.011190914382,-0.187780185737,12.974289558,0.616633279439,0.00183915331395,0.0271291379455,0.393515466557,28.6538424436,0.494333631656,0.00261447803553,0.15976100623,0.0663860493554,18.5209018286,0.530501486267,0.0051086886051,0.119063785459,0.141965502716,21.4854299766,0.561804050773,0.0011516594598,0.0504096061992,-0.184683970203,23.7570071599,6
0.629603138138,0.00439746852085,-0.0252043167612,0.528966346919,30.055421037,0.629283811858,0.000939072550523,0.00350741149403,0.0772964961692,29.7693500587,0.629596172428,0.00215714572995,0.0209333680707,0.347008060335,29.8889793092,0.568708968086,0.00056072430322,-0.00390746819458,-0.119867606925,24.2987353771,0.41521022937,0.000321385319294,0.00534702826373,-0.186181020599,12.9537476067,0.616226448575,0.00185311479786,0.0602019435963,0.412927481688,28.6172581893,0.493367634955,0.0023773069381,0.022408669173,0.0939295679753,18.431792455,0.529187157179,0.00576433741992,-0.0166539456382,0.125438161915,21.4294895183,0.560996366717,0.00123584706574,-0.0341493220714,-0.175350350665,23.6952219431,6
0.628509605207,0.00458000322732,0.0313903683278,0.518579980855,29.9657445266,0.628424090166,0.00097556811885,0.0129002744523,0.126615820821,29.6909548234,0.62839997189,0.00226606956868,0.0343563777896,0.368690077598,29.7841784985,0.568595859858,0.000330952321607,-0.0508378308578,0.272048727939,24.2720843603,0.415537673567,0.000324095592364,-0.003950531993,-0.222519555041,12.9743499353,0.616272720563,0.00189744613622,-0.0133749185716,0.383550792041,28.6248159723,0.492158299431,0.00222670712069,-0.0152530963298,0.0764207882941,18.3312607044,0.532611249251,0.005355760315,0.00155383926581,0.0557990836681,21.6719319754,0.562338726154,0.000972379495609,0.0100728362157,-0.196096362636,23.7888193026,6
0.628195004242,0.00462009092064,-0.0190228919377,0.52696629889,29.9390589797,0.628510988949,0.000984300502251,-0.00919286492922,0.118862126296,29.6997929794,0.628267796829,0.0022970009363,-0.0205959437382,0.371291143651,29.7740099092,0.569430692291,0.00028081523801,0.0188782045136,0.146522149067,24.3396288268,0.414806693185,0.000339436854674,-0.0238808400081,-0.165071422578,12.9299627806,0.616956256649,0.00185300792449,0.0401914365232,0.335028630674,28.6847492828,0.491732182787,0.00198197954389,-0.0363527862453,-0.0270183228246,18.2817069554,0.529320570117,0.0055447164212,-0.0829625518492,0.117080483352,21.4238289613,0.560595531428,0.00100961320535,-0.0540755543692,-0.135151947455,23.6447626164,6
0.627951532402,0.00472519095175,-0.0779254256896,0.501981940761,29.9238986589,0.628350546449,0.00100061843152,-0.0298191503243,0.121741994568,29.6858764556,0.62836827086,0.00232744713991,-0.034235099326,0.35522629326,29.7857323751,0.56862121135,0.000289447477272,-0.0152905397652,0.282733876986,24.2711752631,0.41507637193,0.000408578724603,-0.0315172819712,0.0571128817736,12.9518644157,0.617148298022,0.00188728077602,-0.010967743154,0.282227091975,28.7050604088,0.492242122487,0.00202341396282,-0.0279560755111,-0.175154041676,18.3224056696,0.533433441836,0.00633126341356,0.17909264755,0.173353253389,21.8098562578,0.561677114702,0.00112084705026,-0.0210041508536,-0.136932430895,23.7440312702,6
0.628115770277,0.00514538694723,-0.0559192729628,0.482503040636,29.9704651994,0.628488011048,0.00107686906906,-0.0306794200654,0.132535501397,29.7044768135,0.628270231165,0.00260175222193,-0.0525925432259,0.364242963176,29.796790917,0.57004075554,0.000309986496366,-0.0156501003317,0.388053529416,24.3939237239,0.415103356935,0.000398534240029,0.00880262525776,0.0576365820101,12.9528013042,0.617490382254,0.00169599713064,0.015706825306,0.261943962082,28.7225817009,0.491161645889,0.00192909567246,-0.0621404795459,-0.0616370572156,18.2357352592,0.527667162555,0.0072339601324,0.0535042808071,0.129376165015,21.4177606327,0.561407038746,0.00117378659468,0.0438771437069,-0.0554510726165,23.7251999445,6
0.62943526872,0.00516935013875,0.039384761371,0.426278579709,30.0966887234,0.628921841164,0.00102298984179,0.00304348483859,0.138492489166,29.7414024203,0.628878025939,0.00260141551896,0.0104617347028,0.332736645009,29.8540726116,0.568833187748,0.000326869661561,0.0105222068627,0.388015706952,24.2920280163,0.415488389859,0.000369933605153,-0.0490387409528,0.0688702558052,12.9746702449,0.615913704624,0.00160099083159,0.0276852507024,0.324666515885,28.5697001873,0.491543319954,0.00193439799757,-0.0370086686319,-0.0840665981047,18.2642581061,0.531439811265,0.00813917352311,-0.0156166477302,0.229755450942,21.7844193155,0.562292644271,0.00112280919306,0.0240781470016,0.072164034238,23.7960642154,6
0.629152352698,0.00485380656306,0.0574995477135,0.474333322835,30.0466329036,0.629299330273,0.000915713763986,-0.0424196980334,0.218090326576,29.7690863497,0.628582668964,0.00258227547902,0.0582032467021,0.355012827136,29.8248012646,0.568554006971,0.000441104747824,-0.0295136175984,0.419822583973,24.2766661645,0.415769328098,0.000592881615498,-0.0467181727517,0.784456661416,13.0086833036,0.615653016139,0.00131564286352,-0.019077103004,0.437929069198,28.524505293,0.491786144898,0.0023319540164,-0.0811721425016,0.148848761538,18.3115855207,0.530529621199,0.00771443322193,0.0951750580253,0.21621538027,21.6804939811,0.561566285483,0.00142957107192,0.0947770988659,0.204089138291,23.7575402337,6
0.628750997386,0.0043598715503,-0.0500114396965,0.411681469156,29.9722167482,0.62783688324,0.000760968058041,0.0211247269346,0.0714286588077,29.619748033,0.62806918987,0.00231787195825,0.0326827166735,0.307988250271,29.7568405697,0.569062928711,0.0004641480963,0.0176061026123,0.359813104527,24.3217932216,0.415519495526,0.000630434107675,0.0319315929769,0.733883675029,12.9958859611,0.617200805908,0.00129975485453,-0.0259716301662,0.395981001861,28.6664444702,0.493143352766,0.00237535892202,0.0230072957653,0.0729179412992,18.4150540385,0.530251553897,0.00747221428396,-0.0339897493642,0.27295272053,21.6404471378,0.560172336823,0.00147047942185,-0.0288255990149,0.278341001311,23.6432939979,6
0.630084866768,0.00363529256655,-0.0940351113843,0.647467374789,30.0445320997,0.628934589478,0.000630667993071,-0.0440952156439,0.411515321621,29.7135732696,0.629210364839,0.00220831104984,-0.0261758270214,0.315650921096,29.8563412592,0.568721181863,0.000467971137103,-0.006725454682,0.40506930221,24.2929135667,0.415196751405,0.000632713307988,0.0234828248632,0.768826065217,12.9759464631,0.61674191795,0.00130914299202,-0.00214963015098,0.425531976714,28.6246710831,0.492274849341,0.00237947965898,0.0522186197657,0.125155687677,18.3511710418,0.531083443928,0.00750133248621,0.0287341215313,0.243307490805,21.7088204351,0.561908538082,0.0015334786129,0.00595658117356,0.168470245499,23.7940678051,6
0.629762992267,0.00241425973923,0.0884721671391,1.3220828899,29.9237622029,0.628897203044,0.000452043834264,0.0243687915604,0.866726494774,29.6968281435,0.630037040547,0.00169377430611,0.0466936464116,0.964797681818,29.8963397333,0.569047075524,0.000341753041075,0.036806397484,0.29095696054,24.3113827873,0.415800185537,0.000505101754779,-0.0221044737605,1.11224174361,13.0041121018,0.616908963045,0.000800020051067,-0.0114196847474,0.0421305757403,28.6024516351,0.494121520451,0.00197197619958,-0.0502920891834,0.251159363833,18.4576320117,0.527974330509,0.0062490237778,0.131918836431,0.12804822921,21.3691947853,0.560097654791,0.00136027867993,0.0604240741257,0.25295427936,23.62886434,6
0.628793761869,0.00128281876076,0.0814784937371,1.0896473825,29.7485482107,0.628799842604,0.000272554351122,0.0406403068166,1.36952504811,29.6743621764,0.627821256136,0.00100554485166,0.102867899667,0.436661194935,29.6363750433,0.568850619906,0.000328544244694,0.00311292468028,0.382537856752,24.2936393567,0.415503774537,0.000530464359277,0.0215697216945,1.07077498591,12.9875083617,0.616834514448,0.000728783600062,0.0488854665772,-0.0333486980882,28.5902913525,0.492166492092,0.00145627552953,0.0764078707165,0.179089627542,18.2748535845,0.527989648518,0.00539186595349,-0.0587777662343,0.298699728347,21.3069782512,0.560496627396,0.00124832270824,-0.0702911373712,0.32718287213,23.6541110796,6
0.629162572644,0.000682254856054,0.0217068376696,0.647290318376,29.7389025705,0.628598138887,0.000130978862671,0.0146430836032,0.616125153618,29.6448639518,0.62852997061,0.000433892709186,0.0374536806678,0.817849282218,29.6608523571,0.568461740942,0.000373593853288,-0.0597148147258,0.397145065092,24.2638022637,0.415334397121,0.000542530922107,-0.0137964461063,1.05233469067,12.9778468956,0.616716409665,0.000872424277268,0.0573843440649,0.39310544007,28.5899941428,0.493594658944,0.00150187670647,-0.028582185876,0.142430317303,18.3838154266,0.536278412978,0.00537390560598,0.0158266898787,0.206579529225,21.9672592318,0.563524996586,0.00126517846611,0.0350021905101,0.268800295179,23.9106548398,6
0.627729794533,0.000611578523107,0.00077342641099,0.816103303246,29.5986089316,0.628353121515,0.000114234874685,-0.00486228986229,0.808920457885,29.6205267795,0.627957259211,0.000367919999003,-0.0127396849822,1.11945645728,29.6020000346,0.570846686782,0.000667507846668,-0.0146693793213,0.570113485451,24.4893410664,0.415685006583,0.000607627273614,0.0190342657456,0.888641091648,13.0045162706,0.615880977916,0.00132196177791,-0.0466668536534,0.182815753329,28.5460285935,0.493869397441,0.00176743745316,0.0321338413574,0.115448299693,18.4238140012,0.527508831339,0.00743601736458,0.0724052277563,-0.274980752456,21.4201828205,0.559241566707,0.00204684539183,0.0687282863107,-0.618859705034,23.607801304,6
0.628847783515,0.000590549842367,-0.00589494978944,0.745904358965,29.7024158007,0.628727907837,0.000110627172771,0.000797967082733,0.757799752476,29.6555950678,0.628824277199,0.000349766155037,-0.00615063408096,1.09825241653,29.6823805651,0.568318542472,0.000870626387418,0.068665095335,0.226952382115,24.2883737815,0.414781972152,0.000593018473463,-0.0296556353065,0.884911742236,12.9471896987,0.619339490533,0.00166060936053,0.104229652609,0.508533392377,28.8914904327,0.495047634935,0.00193085003021,-0.0291461739134,0.0845259955169,18.5232949664,0.535371041589,0.0093192762782,-0.244804373371,-0.110557793353,22.1862878575,0.563029773461,0.00247601334574,-0.135488824042,-0.423193291913,23.9584144229,6
0.628608426572,0.000273565578627,-0.09781923966,2.05775884436,29.6563853996,0.628739814616,6.35631516949e-05,-0.0464009661259,2.54371408743,29.6532352594,0.628990815841,0.000233147845363,-0.100144210005,3.29846116311,29.6894614215,0.569130901297,0.000955605034091,-0.068784694424,0.23518481919,24.3639634834,0.415132459777,0.000589396152338,-0.00360192752639,0.848222864634,12.9687372523,0.616567883499,0.00213727236394,0.000508607840073,0.0328403768094,28.6698547771,0.490871843188,0.00188383900896,0.0115713359719,0.15255054791,18.2110415693,0.527779497591,0.0102051395379,0.262207843478,-0.245845640359,21.6465201816,0.561738078014,0.00258810418548,0.0382828223467,-0.42075637132,23.8577448315,6
0.629481922679,5.11738340093e-05,-0.0108046009889,1.82845484317,29.7223486872,0.629160138508,1.89719267845e-05,0.00633943304745,0.817977573186,29.6895899142,0.629267016847,3.56557385791e-05,0.00675306630163,1.92186857401,29.7009119116,0.569020582504,0.000925438565663,0.023606882909,0.221180016607,24.3523142023,0.414912912377,0.000585409881734,-0.00855319521555,0.883341152838,12.9547746955,0.620013432749,0.00227688328266,-0.0184006299139,-0.0365744362716,28.9997386221,0.49399921099,0.00195168984,-0.0700884055887,0.179405990337,18.4470665825,0.531586582475,0.00898429402721,-0.2275146839,-0.402850474479,21.858659858,0.561531369116,0.00254873657694,-0.0173815370281,-0.445731924554,23.8374173943,6
0.628066211022,3.59208769094e-05,0.00220776329827,0.533292612053,29.5876955519,0.628496909233,4.71580148669e-05,0.000391254146117,0.354461814302,29.6291170618,0.628310369421,4.47136625275e-05,0.000896408402606,1.68539776053,29.6113528352,0.569281103266,0.000908639777855,-0.0713463683539,0.20656219174,24.3733124337,0.416737974986,0.000608928729729,-0.0739131904702,0.69448501113,13.0703512106,0.61521552272,0.00271177539247,0.0955394788929,-0.0165034872772,28.5874318337,0.491010148959,0.00159408859675,-0.00084950566113,0.059491912309,18.1997850347,0.534769844519,0.0102106679203,0.153963196615,-0.407799830794,22.2039984217,0.56358564235,0.00276808585153,0.132255454878,-0.453894888737,24.0269965728,6
0.628252921069,0.000177611931062,-0.0220268580435,0.142579085027,29.6157732452,0.628254653305,0.000129060041955,-0.020536019192,0.467722287299,29.612343648,0.628050185773,0.000294540868569,-0.0432039235099,0.771077480631,29.605323713,0.569472255693,0.000800819394386,0.00805260154882,0.168918374557,24.3816593855,0.416313028865,0.000343885003453,0.0248073101411,-0.00450306372683,13.0241878405,0.615229037776,0.00315682276852,-0.0626607950601,0.0912065122254,28.6216125541,0.493243041259,0.0014720540018,0.017053055484,-0.0168956320418,18.3555843274,0.528256300513,0.010525366844,0.0416397332962,-0.265791100199,21.7079810739,0.559286548434,0.00250005287985,0.0424125097756,-0.474659928211,23.6451121576,6
0.629162113026,0.00079763159422,-0.0378025590183,0.3177041639,29.747397073,0.628777156936,0.000285723130716,-0.0429329733796,0.603371433907,29.673196993,0.628078136328,0.000868765771002,-0.121779832427,-0.504699857698,29.650449567,0.568537284413,0.000807013696077,-0.0115773099313,0.265118538486,24.3023172961,0.414891248531,0.00032768495271,0.0147345684163,0.117333174184,12.9343547946,0.617897739039,0.00325223985238,-0.0206413972644,-0.0109049972901,28.8754869423,0.492269741457,0.00145109356988,0.0361906032515,0.0436028664611,18.2820933007,0.532526295167,0.0106550275233,-0.0719802952697,-0.363147503597,22.057291165,0.562518796069,0.00239153924339,-0.0488326602888,-0.663708272274,23.9090285988,6
0.628779786251,0.00138012231333,-0.0379394940194,0.6430798884,29.754430521,0.628972901392,0.000363901076726,-0.0115032312243,0.284811587495,29.6974469811,0.628801197256,0.00110997335805,-0.046575535812,-0.101553167133,29.7364589538,0.569650262142,0.000955460836885,0.0226332687832,0.196749590225,24.4083106888,0.415080722272,0.000373053775535,-0.00188133360192,-0.0754313055499,12.9495064296,0.617069572697,0.00340347491065,0.0291883575415,0.0201511965824,28.8099714595,0.493002769988,0.00192917839293,-0.0466723384584,-0.00397710103008,18.3716390423,0.531119884601,0.0112191025341,0.0721410932835,-0.349686375764,21.986838474,0.561239700173,0.0023899847436,0.0199283775476,-0.596568668252,23.8011089498,6
0.626128892877,0.00166125949349,-0.063868523176,0.322480187864,29.5257374897,0.627464346233,0.000428552395777,-0.0217103059483,0.0576102369302,29.5600758118,0.626857988816,0.00130465010346,-0.027077161319,-0.257538730323,29.5678644683,0.568880227118,0.000986851291854,0.0336935217956,0.221255025023,24.344880456,0.415053804118,0.000388298090078,-0.00783248273472,-0.0317284204505,12.9489585821,0.616919301558,0.00345359699356,0.0227353164064,0.0249641769683,28.7997730252,0.492004360612,0.00197324185465,-0.00302923680543,0.0517614265243,18.3011417118,0.529132323713,0.011419129224,-0.0273709107021,-0.287395901232,21.8435917624,0.561004477261,0.00240927246114,-0.0445343115534,-0.578077786282,23.7827379251,6
0.628446957521,0.00209959638839,-0.0311909668676,0.479635665856,29.7762885141,0.628527259057,0.00050929017787,-0.0178228696886,0.199812212611,29.6661761265,0.628339518811,0.00155322233793,-0.0309836732476,-0.0666581900617,29.7257297705,0.568365953806,0.000945726305117,0.0331010311041,0.247994256761,24.297973055,0.414906311454,0.000387496533536,-0.0310619736172,-0.0114709804701,12.9397182898,0.616969285495,0.00347561815639,0.0437709487341,0.0255477857404,28.8060281869,0.494972829602,0.00216592800129,0.0622908506114,0.0563603146103,18.5351363254,0.534807403088,0.011471456199,-0.0256871126612,-0.427257346788,22.3003096385,0.56310946425,0.00242429416462,-0.0225904439293,-0.653644127415,23.9613179227,6
0.628824210917,0.00216462955294,0.0223579678752,0.421487994751,29.8166742045,0.628714005645,0.000520096466267,0.00961287176546,0.162405002948,29.6845847055,0.628782276548,0.00159161360834,0.0175132025403,-0.102440966211,29.7703157546,0.570410571858,0.000844820154706,-0.0368061369238,0.36322592018,24.465133228,0.416215704515,0.000351725534851,0.00205909571358,-0.0819067660093,13.018691141,0.613730896708,0.00317662557395,-0.0076777939264,0.0374702498544,28.4849913106,0.492293101135,0.00291828624122,0.202189837941,-0.00115774691501,18.3923904887,0.528635767538,0.0112405001702,0.356268744345,-0.271240633768,21.7909801167,0.558089583333,0.00230802199931,0.106112737465,-0.455229127787,23.5305923548,6
0.628194730151,0.00217365483009,-0.00787883609806,0.459342088188,29.7579968816,0.628478347206,0.000521480973699,-0.00395426317133,0.192926936439,29.6624670601,0.62822891104,0.00159842617323,-0.00581850715364,-0.060239221165,29.7186508868,0.569202038749,0.000605726102274,0.065392476411,0.0209656432098,24.3441458003,0.414290321852,0.000327671233069,0.0406646103427,-0.00390567183071,12.8969829798,0.618534237954,0.0029559391328,-0.0834181386693,-0.0751537423827,28.9125847599,0.490710456279,0.00418406011096,-0.0125963869007,0.484727597544,18.3693768409,0.529006706061,0.0110373022844,-0.16623588984,-0.28219777203,21.8053674984,0.562475968898,0.00150844927291,-0.0832397363238,-0.039753335377,23.8400664153,6
0.628578960283,0.00217606710671,-0.000392689732406,0.433369192285,29.7943921642,0.628568257643,0.000521785292192,0.00088429119792,0.18071305361,29.6709662004,0.628569873752,0.00160023841626,-6.27010898736e-05,-0.0862278817154,29.750924107,0.567829182751,0.000416811509084,-0.00473312186197,0.29193700007,24.2130926105,0.416026009696,0.000338944836518,-0.0437921085137,0.274965989165,13.0059049737,0.614920135923,0.00289870988791,0.170719113067,-0.155944154706,28.574012549,0.493507174056,0.00456853386866,0.0884602536593,0.437982981772,18.6042713196,0.537344471981,0.008714338916,0.116111914209,-0.35368530978,22.3002921975,0.562881366756,0.0014752704449,0.0638457048529,-0.353177976728,23.871827491,6
0.628356894123,0.00217667202521,-0.00115207723133,0.447837835513,29.7735027092,0.628518812434,0.000521743580373,0.00173207246376,0.187379146438,29.6663013437,0.628382249045,0.00160070211402,-0.000382659860857,-0.0717582946255,29.7332707751,0.569919241209,0.000544763548569,-0.0762024270168,0.294713076968,24.4009081151,0.415666352716,0.000549897764177,0.00483476484148,0.352546298002,12.9990811931,0.616227823792,0.00397208501111,-0.0220201568696,-0.786069373264,28.774189102,0.492003567844,0.00495653234219,-0.115532898038,0.240924855805,18.5218467011,0.530064126378,0.00918380539004,0.0196153102512,-0.313399966991,21.7521999543,0.56133903349,0.00144496720505,0.0207111791002,-0.284624918509,23.7395408621,6
0.628678129531,0.00217356504714,-0.022838823013,0.428034358919,29.8035581047,0.628863596151,0.000503555135198,-0.0301353714429,0.18299679538,29.6974697723,0.628762172132,0.00159330478179,-0.0301344411158,-0.0994001146142,29.7685447366,0.569194061558,0.000602492966537,0.0187572873714,0.181883301387,24.343225458,0.415779244507,0.000554305523351,-0.0136260664687,0.319359596407,13.006447121,0.615937015224,0.00392987178769,0.0817444245291,-0.747799138089,28.7441910166,0.492743146398,0.00486920570987,0.000361568523398,0.211000678019,18.5700068467,0.532791032154,0.00827271153326,0.0658821295777,-0.293421524543,21.9021519493,0.562067147105,0.00126883564638,0.0793146372289,-0.18381202108,23.7878546769,6
0.628702364824,0.00211599159028,-0.0642310806767,0.457264013404,29.8015831428,0.62902109547,0.000459150395166,-0.0506780517425,0.243712620256,29.7090425202,0.62924385892,0.00148721317707,-0.0930900572951,-0.0508930085038,29.8061413243,0.569224121502,0.000596893484994,-0.00904240057141,0.189390736291,24.3453776554,0.415546993981,0.00049893731138,0.00736824169522,0.388015578148,12.9878691765,0.615316547111,0.00320623162078,-0.0197385857101,-1.04095960978,28.6333451261,0.492547936445,0.00486559777873,-0.0101973892305,0.219190865391,18.5553144628,0.528101564207,0.00694122787241,0.0987794588414,-0.495202867136,21.4304955214,0.559813915966,0.000986327340817,0.0376240616554,-0.37244228067,23.5773597614,6
0.62773005137,0.00184713513072,-0.0296490581555,0.415521325577,29.6900643042,0.628382813259,0.000363592250893,-0.0170388959616,0.0144682911662,29.6417778265,0.628012553519,0.00117925801567,-0.0360486487719,-0.469567882061,29.6672476464,0.568940586906,0.000588670051154,0.0142879084138,0.218781035638,24.320565941,0.415153992706,0.000478560949849,0.00565264710064,0.445761818297,12.9618763348,0.61784357738,0.00295749592738,-0.0175690597173,-1.21502163321,28.8486561569,0.492485696684,0.00483465362148,0.00773210200471,0.225057346963,18.5484264759,0.531373259293,0.00636154966776,-0.0508390689778,-0.589626426837,21.6475702273,0.561432355499,0.000910102679186,-0.0150332341945,-0.478727630785,23.7078193334,6
0.629848793512,0.00120178765433,0.0437792755082,1.08857624728,29.842144988,0.628984578166,0.000203795515623,0.0107858494684,0.286565662219,29.686700836,0.629349855887,0.000693945938254,0.013749891869,0.492484272922,29.7574450823,0.568765779197,0.000511180066189,0.0231706418992,0.0379130931962,24.2999156938,0.415414427762,0.000467935084264,-0.0217488301324,0.43513424183,12.9773132057,0.616833633872,0.00281175104242,0.0900562803877,-1.28721987348,28.7443494678,0.493174085841,0.00469571561175,0.1140395572,0.226126945045,18.5890338762,0.531672454372,0.00578614787883,0.00513676597385,-0.608893267141,21.6288448483,0.561548855843,0.000885533963776,0.0409619178794,-0.511886463676,23.7158133257,6
0.627648688726,0.000776680890506,0.0549425775262,0.536550900034,29.6031901204,0.628151136671,0.000163078360168,0.0347731023499,-0.0430490099929,29.6051065862,0.628063620111,0.000485229790837,0.0529694120837,-0.173063888595,29.6207003226,0.571332936686,0.00063433288515,-0.00936659463945,1.04882679232,24.5285399742,0.416622522955,0.000519421674042,0.00227706508546,0.755313601086,13.0565117014,0.615433592446,0.00273815402525,0.0109048247992,-1.25889084233,28.6095114012,0.493072133211,0.00492186124268,-0.0676202196839,0.256942966384,18.5982273731,0.53093070862,0.00579905022829,0.118263658841,-0.519867008262,21.5706860186,0.560224487659,0.000917998966993,0.0398245521821,-0.416368675761,23.6067926665,6
0.627814543188,0.000176811382116,-0.0300932073865,-1.19132563989,29.5744165902,0.628254947647,3.3051105777e-05,-0.0179009578143,-0.93717985161,29.6052667251,0.627894406953,0.000114891727814,-0.0315627516522,-1.14446597653,29.5773559591,0.5700281904,0.00166497090403,0.0755038622161,-0.793376166475,24.4931181857,0.41537939802,0.000619049860516,-0.00314657817004,0.356227174023,12.9863130122,0.617066596519,0.00272536416352,0.027217981793,-1.3487856206,28.7595157885,0.49535309592,0.00587098714375,-0.0270107545872,0.241285833977,18.8375547714,0.53088180736,0.00609243312501,-0.0979458825474,-0.514841455765,21.5885020552,0.560837055927,0.00142537465446,-0.00447991144303,-0.292497039667,23.695842972,6
0.629245568942,3.98673799842e-05,-0.0022851440907,2.42572962476,29.6991991386,0.628895772897,7.66921681466e-06,-0.0008338363992,1.93536016272,29.6638095097,0.629151670675,2.87466138036e-05,-0.0050662554963,2.03600930137,29.6895141029,0.56820244994,0.00173001429444,-0.00394798288486,-0.655525241695,24.3420728666,0.415277398524,0.000639218322368,-0.030412000764,0.389883206361,12.9814509852,0.616011143827,0.00269558247268,0.0325442665646,-1.32362386376,28.6597028019,0.493331745915,0.00648889602696,0.207475498353,0.100954962112,18.7333941706,0.533761183926,0.00619101405884,0.214849493378,-0.49818310236,21.8257101503,0.561422353605,0.00138829305396,0.0232670717083,-0.379845408324,23.7423631205,6
0.628045744979,1.14114916384e-05,0.00329804145792,-2.06203999145,29.5839537844,0.62837097409,2.64914954744e-06,0.00168416439871,-1.23670574462,29.613952118,0.628107334413,8.67526909249e-06,0.00517456054131,-1.88136623786,29.5895537357,0.569373583826,0.00170181634713,0.017066922937,-0.750439366736,24.4399052566,0.415264397121,0.000637696948208,0.0433145991515,0.386400995674,12.9805285379,0.61657176081,0.00271165263439,-0.114346340482,-1.36005013468,28.712717512,0.486897499502,0.00511194653492,0.0785867204484,-0.151267798909,18.1584721702,0.524366169722,0.00510963730945,-0.0771772517785,-0.815197523989,21.0001041571,0.5618524134,0.001315637006,-0.0768948935551,-0.457955288176,23.7732172217,6
0.62866430642,3.59194497799e-06,-0.00816753583696,1.9127661946,29.6416765664,0.62866815353,1.30136794492e-06,-0.00119479751287,0.499260462762,29.6418698459,0.628625091471,2.75325174396e-06,-0.0067035579104,1.81136311404,29.6379166626,0.568543937986,0.00166630921508,0.0276253367361,-0.727610742251,24.3664725884,0.415204785067,0.000663378371514,-0.0199841217403,0.310727748388,12.9787160152,0.61747277916,0.0029240949908,0.0886545347201,-1.04334759664,28.8118305046,0.491966349466,0.00437615101017,0.0258412817473,-0.283273121266,18.4761518503,0.533850799027,0.00461217573041,-0.100516562694,-0.194045529616,21.7160516757,0.561914324155,0.00096151087503,0.00895877097868,-0.11180661688,23.7522298816,6
0.628377737094,1.24616870567e-06,0.00516229331626,0.125059543528,29.6144857522,0.628452737726,2.44890926609e-06,-0.00106932465833,0.465455643569,29.621644486,0.628394953035,1.01916104553e-06,0.00401160917003,0.308177268204,29.6160916929,0.570196524833,0.00164105722523,-0.0374775976993,-0.8481158803,24.5057440045,0.416184048076,0.000565178303056,-0.0281679600517,0.639337019291,13.0325103349,0.613789694021,0.00269448712104,0.0249272157379,-1.55562361757,28.4547261834,0.490350438364,0.00409226121748,0.0424130568719,-0.215525908345,18.3360937604,0.533469037377,0.00523788429743,0.366818183642,0.0797588933719,21.731794476,0.56210102847,0.000992496812767,0.101022069643,-0.0169462100849,23.7702622297,6
0.628413463279,8.43623926863e-07,-0.00483018495994,-0.51564954884,29.6178234904,0.628565301809,3.51267041423e-06,0.00127237909979,-0.0917267675441,29.6323353355,0.62833281714,1.97303896044e-06,-0.0057963390237,-4.4466485667,29.610305687,0.570035898266,0.00145835193907,0.00518461022077,-1.01080730755,24.4784874419,0.415749066319,0.000466016855435,0.00491430056308,0.00739913753849,12.9980317082,0.614640908096,0.00188309328274,-0.0500207050802,0.340475707507,28.4731073458,0.492968503811,0.00346756412628,-0.0211741710686,-0.0926483765635,18.4829456766,0.527304319426,0.00594885202922,-0.00632052764436,0.126763116771,21.2939534466,0.560549857252,0.00111728138926,0.0453138711866,-0.0661465892268,23.6488895077,6
0.628563652737,3.79709200752e-06,0.000197146935483,1.35912140583,29.6322009005,0.628617935852,6.29461393101e-06,-0.00241180452576,0.147603962924,29.637503997,0.62858213301,6.86915274195e-06,0.0045604385886,0.941611496195,29.6341706628,0.568764758406,0.0014468194104,0.0178775150072,-0.930652610047,24.3690659168,0.415605368617,0.000522661210787,0.0218492097674,0.012245641273,12.9932636114,0.616865846202,0.00215993137821,-0.0513620561089,0.238669525139,28.6990953378,0.492603883338,0.00343019904219,0.00257435091983,-0.0816445854812,18.4532286701,0.531235724849,0.00668621780815,-0.0810060168787,0.101481448746,21.6606347695,0.560691771032,0.00121874059672,-0.00843797426658,-0.0310937836703,23.6683314619,6
0.628818668446,1.69004693753e-05,0.0294728857794,4.88109472954,29.6572194687,0.628695454795,9.39661061519e-06,0.0142646429244,1.05862106336,29.6450434652,0.628749783908,1.62426564921e-05,0.0257616569765,3.5429713522,29.6506737639,0.569255446963,0.00144826075089,0.00658319677664,-0.968429917744,24.4110535879,0.415216091328,0.000531286616526,0.00584527853825,0.0546545193316,12.9696453969,0.6170485331,0.00229710576247,0.000918292542385,0.200260410755,28.7261527415,0.492336359033,0.00345474881544,-0.0154947333587,-0.0670876563561,18.4352831943,0.530270272677,0.00670085608738,-0.0270149133238,0.135018016388,21.5848555068,0.561229762548,0.00122886183423,-0.0158410068652,-0.0740925410975,23.7143492534,6
0.628779088924,0.000166115590717,0.031267347034,-2.39930230136,29.6645282538,0.62858521819,4.90674048894e-05,0.0291355506585,-0.334280810365,29.6375842274,0.628768236842,0.000148274050291,0.0297225829298,-2.41729827339,29.6621844544,0.568843387041,0.00147651153218,0.0139912050045,-0.914945049781,24.3779717769,0.415358321873,0.000586992420615,0.0435582346386,0.0869907272633,12.9826276053,0.616636135755,0.00234866411125,0.0189674231088,0.210736783967,28.6918104382,0.491234234071,0.00404268680421,0.0179562399213,-0.132390901278,18.3974892778,0.529511005777,0.00772249909721,-0.0891577158001,0.0845076924123,21.6001078261,0.560252515676,0.00145272003815,-0.0283227681275,-0.150518011866,23.6487173819,6
0.626595966883,0.000606752998213,-0.0196396541555,-1.12005985521,29.4915876505,0.627755174614,0.000161295734282,-0.00865686850858,-0.479107688703,29.5676778284,0.626595067324,0.00057390145782,-0.0231874850712,-1.21612234975,29.4890720875,0.569453684693,0.00149985225859,-0.0575602735893,-0.953022711286,24.431801493,0.415427609571,0.000627409015245,0.0378847050956,0.0880676557727,12.9899356766,0.616065092455,0.0023726874777,-0.0254565780281,0.241429750925,28.640793734,0.492994392778,0.00429702496094,-0.0446902088123,-0.107017058161,18.5462401954,0.532730497774,0.00796285412347,-0.0617758503337,-0.00510037413915,21.8743849495,0.561661772192,0.00154744638912,-0.00664260209864,-0.191125852992,23.7743070084,6
0.62937480324,0.000773637335051,-0.0262139115446,-0.621679815947,29.7656973843,0.628962515171,0.000195056272534,-0.0100693849438,-0.26423296949,29.683972576,0.629403745379,0.000737652578568,-0.0242858486477,-0.671115434708,29.7657668931,0.570748101624,0.000702023947225,0.0687306812517,0.976249834671,24.4834544351,0.415234026542,0.000497911977797,0.0555035698525,-0.168854056926,12.9682927462,0.616544589514,0.00232093585906,-0.00199056143796,0.207605491896,28.681291568,0.494488746734,0.0035280389061,0.090258776593,-0.196065252298,18.6000089275,0.530210155475,0.00806925946856,0.196224189748,0.0421973695099,21.6813358733,0.560658945313,0.0015298730479,0.0303062768751,-0.309577177454,23.6885945775,6
0.628057524391,0.000822334678075,0.0113119829884,-0.491356719747,29.645071812,0.628352179087,0.000204624052195,0.00285976660579,-0.163566216039,29.6271267521,0.628044515196,0.000785791215903,0.0121452876068,-0.528581149702,29.64114203,0.567820658392,0.000270923421923,0.0437115447279,-0.608294917437,24.2015708405,0.414521110699,0.000413073284598,-0.012681774463,0.0999708445468,12.9176487642,0.616767953537,0.00230680224696,0.0213567385535,0.192673456823,28.7009065046,0.493794916662,0.0022386857034,0.000881265685374,-0.222897984847,18.4531692211,0.532498458975,0.00814584308977,-0.157711054191,-0.0303861436854,21.8693880495,0.562181224863,0.00135920932437,-0.0518465817143,-0.13139284458,23.8041612091,6
0.628563102887,0.00083622946096,-0.00756977950031,-0.524206319394,29.6937490534,0.628607911779,0.00020755096797,-0.00344697761237,-0.207770337211,29.6514517779,0.628586235056,0.000799360667127,-0.00719935916387,-0.564627775002,29.693201807,0.56836140465,0.000328787477859,-0.0151818379049,-1.08960511606,24.2519317455,0.41627578873,0.000515258590112,0.0623150078508,0.169765674409,13.0345440569,0.615862002741,0.0024929502102,-0.115969043276,0.0876551748737,28.6309287971,0.494402238307,0.00351391624845,0.203322247997,0.560463878941,18.5925477956,0.526017220873,0.00921102655499,-0.1592447305,-0.0654988726959,21.4336747142,0.55892531455,0.00159411108282,-0.0730171228262,-0.181441580507,23.5477772635,6
0.628435836413,0.000838917056701,0.00278376248782,-0.508749179954,29.6819498988,0.628508152726,0.000207973599573,-0.00146643634253,-0.186406620932,29.6420773996,0.628440766897,0.000802159771818,0.00320220243803,-0.546538713561,29.6796946354,0.570010390853,0.000403449621427,0.0185817463466,-0.679186251861,24.3982436981,0.414119464705,0.000552707236092,0.000348989023304,0.295655145569,12.903020164,0.62029975771,0.00288826425324,0.0290321777865,-0.196179514194,29.0716157609,0.489909269319,0.0037871550831,-0.135192649141,0.381287607287,18.2810813885,0.530441635576,0.0119306907148,-0.291527851809,0.463686331718,21.9854957694,0.562265582271,0.002576581728,-0.151883154457,0.314968696285,23.9013609234,6
0.628466285482,0.000841679207402,-0.00651666531011,-0.508828496493,29.6850246604,0.628669068329,0.000208841256565,0.00457715484347,-0.217426194019,29.6573140635,0.628453850529,0.000804107681236,-0.00581966577866,-0.545644349584,29.6810721368,0.569007678376,0.000731070192783,-0.0651380050517,-0.210377265955,24.3368295481,0.416148053766,0.000560473446404,-0.00529745636078,0.300095965982,13.029915234,0.613591807173,0.0037160714598,-0.0778945830919,-0.897172196331,28.5121072253,0.492184288058,0.00430851725862,-0.138267668849,0.194060081953,18.487233283,0.534634475414,0.0131077561491,0.343516880482,0.608346061755,22.4075256276,0.562418162318,0.00309652777653,0.0800995582858,0.0423851965739,23.9527072533,6
0.628463693295,0.000842367551854,0.00237542940909,-0.507957639333,29.684831233,0.628554939629,0.000215040105649,0.00625678676415,-0.194427739502,29.6470113777,0.628475259697,0.000804634222181,0.00156107758271,-0.547436735838,29.6831293363,0.569595635427,0.000790479366216,0.0407067344141,-0.277009171735,24.3914345654,0.416000136847,0.000599898239761,-0.00123084971094,0.125737974894,13.023601009,0.615942747949,0.00380038838983,-0.00990565732987,-0.74135860801,28.7351388972,0.493166466189,0.00437594730811,-0.014826187308,0.149905661664,18.5648073538,0.525311071123,0.0133089375677,-0.0542067797882,0.667924866848,21.6812404883,0.558989509408,0.00337177416616,-0.0222644940578,0.175936714955,23.6847066604,6
0.628391390069,0.000841845857035,0.00683298054195,-0.500793395768,29.6779770269,0.628605906749,0.000213973707988,-0.000117809466885,-0.200771444045,29.6517380044,0.628355185433,0.000801331842977,0.000687616604426,-0.538032289898,29.6715664859,0.568833797106,0.000784670219491,0.00353892832597,-0.199023169587,24.325957251,0.415402508741,0.000557909952782,0.0291085758604,0.177523167971,12.9832286567,0.6168977921,0.0035376785472,-0.0386866320485,-0.827470889473,28.8040046548,0.492275292067,0.00435323757424,0.0267137626056,0.191644804622,18.497261819,0.531317201299,0.0119340470347,-0.0345696758225,0.692825230301,22.0554671103,0.561860542907,0.00331691340574,-0.0113317254019,0.0766275285601,23.9219968177,6
0.628456539827,0.000838254003343,0.00401437384031,-0.511189771993,29.6838524801,0.628531963816,0.000213233691559,0.00850127687167,-0.191277048431,29.6447115086,0.628423425317,0.000797993575754,0.00671464682041,-0.549467930493,29.6777516361,0.568938929452,0.000780347396317,0.0160507863453,-0.217368496048,24.3346086158,0.41502876872,0.000504389246295,0.0178138274348,0.243139561934,12.9559907191,0.61807482481,0.00326668326638,-0.0526587662564,-0.976471778413,28.8929712415,0.492850767647,0.00433550244022,-0.0354790085113,0.167091088488,18.5384681184,0.530794158296,0.0116946634697,-0.0532945963601,0.738314364325,21.9960879829,0.561136314583,0.00330065536452,-0.0182157015739,0.119423994746,23.8597957628,6
0.628954199191,0.000749554370807,0.0447072861653,-0.397363984273,29.7242208744,0.628767419249,0.000195962518146,0.00452992444023,-0.0991148246735,29.6656362895,0.628679972335,0.000743570284791,0.0608981154075,-0.535295146981,29.6979122723,0.568953205267,0.000772783620763,-0.0246943314774,-0.220420446536,24.3352672217,0.415273793092,0.000493855906967,0.00238119851964,0.217862395108,12.9704695793,0.616873727043,0.00317117505812,0.0177891122803,-0.973006442958,28.774656588,0.492596121211,0.00423376651855,0.0715720249274,0.188495687713,18.5121191198,0.532209412337,0.0116609784518,-0.0645374765632,0.701633789286,22.1064267989,0.561709551714,0.00329260005245,-0.0215862685805,0.0892300308871,23.9074739404,6
0.626372433694,0.000533738801777,0.0283429561121,-1.30887882726,29.4651785982,0.627543209353,0.000129209566883,0.00928294432174,-1.3888867031,29.5453474783,0.626373552909,0.000522300850262,0.0277864202918,-1.25782964627,29.4644373467,0.569156950714,0.000740370171437,0.0010332294338,-0.239967214953,24.3502599836,0.414990895059,0.000423161109241,0.0219616857587,0.156427254827,12.9476221457,0.616351335608,0.00311399753902,-0.0190006260424,-0.97265461674,28.7221084858,0.491799817025,0.00348876252981,-0.00280553111574,0.324610437347,18.3981979291,0.532756881841,0.010640123298,-0.0400474498338,0.825916373993,22.0746112602,0.561374977903,0.00305138049108,-0.0152171182813,0.171359477409,23.8614420925,6
0.629455237581,0.000204003539987,-0.0773035882585,2.15469100903,29.7311384708,0.628977044959,5.68160886455e-05,-0.0403322999337,1.50125583603,29.675113622,0.629463386216,0.000198216958634,-0.0749617183715,2.14591689788,29.731479649,0.569154217692,0.000669299747588,0.0215582063468,-0.210864548314,24.344767445,0.415409072237,0.000400722508071,-0.007001099953,0.153801797776,12.9720057629,0.616823261055,0.00309381052524,-0.0436646247656,-1.008047177,28.7642621322,0.493984610038,0.00344686450924,0.0572572313109,0.247535730361,18.5566275953,0.532125699377,0.0102624679361,0.0511834114407,0.890222355054,21.9962546226,0.561599560961,0.00293997025601,0.00308326949765,0.17916913586,23.8721128143,6
0.628353885895,4.08296506989e-05,0.0301360130724,-0.873880597137,29.6151668381,0.628486305225,2.27798315152e-05,0.00924902903845,-0.46913564082,29.6263133967,0.628343866595,4.02496106083e-05,0.031449026749,-1.03982743519,29.6141795727,0.567835221843,0.000935257330256,0.0272381793589,-0.454187102167,24.2519719798,0.415583028132,0.00039654804464,0.0221649149296,0.178788878726,12.9825385507,0.616473030229,0.00310769220525,-0.0154495192584,-0.980522177246,28.7328939982,0.492663826713,0.00354108905421,0.0322045171382,0.267855110711,18.4658640513,0.529599530075,0.010070231549,0.0548591292528,0.977801845639,21.7808718038,0.559946804565,0.00291779361837,-0.00681695110764,0.203213198486,23.7314485235,6
0.628369048402,1.11606047828e-05,-0.0129038211557,0.817673326549,29.614400459,0.628509473491,1.67282578434e-05,-0.00560750624666,-0.391418413709,29.6280497612,0.628365561444,9.84488974296e-06,-0.0132562378693,0.693806488327,29.6139744325,0.569516199927,0.0010143470454,-0.0643920908287,-0.448081471167,24.4012143298,0.414900124994,0.000390613101648,0.0395289867951,0.215192742352,12.9395638985,0.616410092287,0.00305745216427,0.0268453223968,-1.00037775798,28.7233566006,0.491672285361,0.00395214147371,0.249283021583,0.154643302336,18.4230811834,0.532229084494,0.00957362306393,0.0773113163914,1.0141359651,21.9535329854,0.561592040678,0.00279655151544,-0.0884938191899,0.169338024403,23.8608663236,6
0.628535328415,4.80140876401e-06,0.00517306509998,1.3700575632,29.6296047341,0.628623273579,1.61540649102e-05,0.00776926313961,-0.462260373641,29.6387369072,0.628551107087,3.73771656796e-06,0.0050075636154,1.00512010939,29.6310136576,0.568675232632,0.000897423581919,0.0449277248785,-0.281004779209,24.3207733607,0.415125419932,0.000270784545448,0.00333604946373,-0.199181879378,12.9447216269,0.617850302356,0.00270669589001,-0.0787023731943,-0.990476151426,28.830720205,0.491170553861,0.00267127629824,-0.127861355556,-0.230493085234,18.2913129196,0.529117057541,0.00605120756015,-0.251705164104,0.852263652368,21.445153903,0.562491606577,0.00237236955401,-0.106116925868,0.132072790245,23.9053159072,6
0.628477663351,3.43352579202e-06,-0.0107894818702,2.39045146102,29.6240670807,0.628588984033,2.15945883296e-05,0.00215781359386,-0.662449592351,29.6359063131,0.628458057126,2.5619956787e-06,-0.00843700877335,1.71204586445,29.6221543051,0.569145803881,0.000862456784073,-0.00795197889592,-0.304413552851,24.3583427577,0.415671221075,0.000267197806286,0.00939191693428,-0.0976713632294,12.9784649399,0.616423969702,0.00274833712671,0.0231089255897,-0.855225993285,28.7017652291,0.495235708674,0.00263321708208,0.0349531958164,-0.130746199682,18.5892386,0.535206626637,0.00441867376944,-0.000489892417211,1.29456162938,21.8104418486,0.562563947535,0.00130742302244,0.0667317192744,0.228216756066,23.8326139336,6
0.627185877343,0.00014971825539,-0.0568659859321,-5.40937964849,29.5132385063,0.627837105351,4.93673476092e-05,-0.00615137312301,-3.23211746926,29.5671104979,0.627152474498,0.000146635843693,-0.0461291247637,-6.13898919539,29.5098680226,0.569634129617,0.000564584030891,0.0164645480262,-0.708251284809,24.3780073401,0.414921484439,0.000197344645774,0.0185251979896,0.424132573525,12.9265913725,0.61852470837,0.00117868328567,-0.0161462688632,0.36165613173,28.780183678,0.491976576421,0.00234886920689,0.0232878804485,0.147528253607,18.3268877023,0.52649716432,0.00242579841479,-0.201677041349,-0.602104379534,20.9694538854,0.55885771108,0.000925783150984,-0.0460789184126,-0.222979441332,23.4926535457,6
0.627942684423,0.000405222994908,-0.0441278638538,-0.757473601434,29.6033876207,0.628248571294,8.79101575221e-05,-0.0165223135521,-0.686839546365,29.6087254016,0.627894295092,0.000399124922694,-0.0311488672595,-0.138287084848,29.59837868,0.568724479844,0.000518973828751,0.017876063352,-0.785690852518,24.2969691114,0.415087343559,0.000178042892527,-0.0145549777216,0.447326425585,12.9354878828,0.61701123706,0.00100953131809,0.0606005185096,0.209189797203,28.6274203169,0.492390919051,0.0023168092342,0.0229788159864,0.119197235071,18.3551051706,0.534957008115,0.0014302243374,-0.00919035341052,0.0247567386295,21.5692616408,0.563357172761,0.00068978116277,-0.0305557882563,-0.023463159274,23.8538916137,6
0.629427934276,0.000496299111069,0.0370849376743,-0.595523324753,29.7501904677,0.629011484847,0.000100411326599,0.0169164066585,-0.681922005946,29.6815890434,0.629117047645,0.000461935065312,0.0271161953313,-0.153560322515,29.7183026677,0.569217700152,0.000512514017866,-0.00502546785233,-0.853668538417,24.3385852998,0.415616966461,0.000177197924994,0.00822260838988,0.337366939303,12.9684223572,0.616062606937,0.000996128533287,-0.022594547755,0.293848059601,28.5386986864,0.492375632278,0.00228299930579,-0.00999516679753,0.127489225974,18.3514741932,0.528551086829,0.00126611681503,0.0696335583425,0.0475512730507,21.0461614984,0.560403049703,0.000573405507006,0.0352422141353,-0.0540195685767,23.5963003663,6
0.628846977406,0.000883282339686,-0.0154862563906,-0.161534830833,29.7240019676,0.628515184307,0.000166040352764,0.00212609849643,0.0322561864556,29.6396372539,0.628726437622,0.000684123376521,0.000631522200604,0.106813635082,29.6978951322,0.568769249185,0.000535203747766,-0.0176787517813,-0.761736830786,24.3019894887,0.415822594345,0.000232346319055,-0.0113861557914,0.590614841805,12.9853258752,0.616629320893,0.00103002222686,0.00111400020405,0.212126870674,28.5936005987,0.492545688008,0.00240992036236,0.0754920630141,0.12424997961,18.373428215,0.528814766171,0.00242485893059,-0.00925342185755,-1.04861526853,21.1528188299,0.560493832854,0.000971257529217,0.048225126949,-0.798964517679,23.6333733072,6
0.628769935389,0.000985176393466,0.0393704546238,-0.237006028413,29.7242754268,0.628678665701,0.0001817740567,0.0181842531407,-0.0580827580493,29.6562161332,0.628673735928,0.000740574523455,0.020763378116,0.0141800369839,29.6971024832,0.569023491622,0.000586884207352,0.0182410806805,-0.7278350981,24.3275094827,0.415891616894,0.000317533129349,0.0365614545772,0.140212942129,12.9959352268,0.616940338228,0.00106473336712,0.0107135072409,0.174624971121,28.6249438391,0.492823952827,0.00258377751196,0.0606308028927,0.152380621081,18.4068581719,0.529570697456,0.00431443891609,-0.214402888427,-0.689506348677,21.3526527501,0.560798781801,0.00126991643643,-0.118160367453,-0.943315875216,23.6811193415,6
0.628045782054,0.00101516162393,-0.0225204616585,-0.169363420037,29.6582347869,0.628276026472,0.000192304070579,-0.00955913628117,0.00396786433422,29.6190379092,0.627967837802,0.000788531673482,-0.0261859709403,0.0586627269981,29.6341217423,0.568972505507,0.000594102997142,0.00809288231616,-0.710025806277,24.3236920235,0.415371646011,0.000330380212579,0.00208301846638,0.176878210785,12.9644684589,0.616979202145,0.00110221294419,-0.0122715533581,0.14851262682,28.6313139489,0.492597228828,0.00260303365657,0.000806991290897,0.162221389387,18.3915267292,0.532964087847,0.00482120649938,0.0802226656147,-0.650309819492,21.660573201,0.562309767301,0.00145847417526,0.048184032727,-0.785202200988,23.8223476691,6
0.628690118171,0.00102306172464,0.00179640258581,-0.226141743011,29.7195514191,0.628738033404,0.00019271182688,-0.00616106142767,-0.085510469645,29.6626242738,0.628733621524,0.000801806807594,-0.000944319039944,-0.0164176836475,29.7072812163,0.567704859898,0.000538014656639,0.000375942732635,-0.925786220112,24.2114736809,0.414789838088,0.000328554753082,0.0051895951119,0.268908350243,12.9281087853,0.617735099701,0.00113331369502,0.00329420999145,0.100994766614,28.7036142186,0.4930781873,0.00250391700323,0.0303907717363,0.184718671116,18.4197472676,0.529993503196,0.00497031124694,-0.0672076324339,-0.552854925759,21.4347865395,0.560908884367,0.00150273802145,-0.0653188975362,-0.683728107875,23.7076108557,6
0.628366436625,0.00102666177982,0.00237544597001,-0.194824358741,29.6893013725,0.628505184512,0.000193062630342,0.00286037347817,-0.0357803708991,29.6406941565,0.628321040171,0.000805824677073,0.00109069650261,0.0267249551504,29.6686807402,0.569921649641,0.000369674836987,0.00881780636503,0.200481123759,24.3881574426,0.415302122504,0.000550229115705,0.0431339443066,-0.361196258441,12.9764059263,0.617619994878,0.00165035108814,-0.0793657056611,0.429367019633,28.731210336,0.493849826933,0.00350715619907,0.21598719544,0.668831926316,18.5511034259,0.531379234888,0.00534211359509,-0.0895638461454,-0.516931512262,21.5726082513,0.559182212944,0.00206492974286,-0.107247865923,-0.740374834997,23.6041608464,6
0.628488584667,0.00102712826497,0.000390145439324,-0.206374928498,29.7008500708,0.628554739967,0.000193222527555,-0.000191834070304,-0.0465315693127,29.6453780521,0.628521237801,0.000806691677544,-9.00055074919e-05,0.00516241261974,29.6876161617,0.56914839627,0.000781128242005,0.0419084607206,-0.983301465239,24.3525457631,0.415961725706,0.000597385029701,0.0586567233193,-0.28742267906,13.0210182861,0.614144854379,0.00280405033723,-0.0936794902714,0.0305338614899,28.495542387,0.485756041824,0.00496127352009,0.00379331111034,-1.49046541578,18.0640541532,0.532373080333,0.00788864653523,0.252087705009,-0.0892493347768,21.8403420934,0.564227741756,0.00231225636075,0.0798383341595,-0.737246574734,24.0475778132,6
0.628433311507,0.00102722112293,-0.000589801158894,-0.201035993413,29.695646389,0.628515015176,0.000190119416325,0.0125122326262,-0.0381299945858,29.6414031594,0.628426028586,0.000806849474587,0.000466275157855,0.015478047049,29.6786523664,0.567685961771,0.00112435803793,-0.168776735184,-1.19030779014,24.2532538342,0.415358183236,0.000743442242577,0.0151228112509,-0.254785521798,12.9941962545,0.616759366711,0.00383479911816,-0.143713079571,0.352973203066,28.8131838667,0.495664278087,0.00602126912414,-0.0364429859619,-0.871622160048,18.871804658,0.530552275246,0.00832647707287,0.0147788816024,-0.0209529755147,21.7275880611,0.559293824278,0.00258538668705,0.0857752308461,-0.550038940606,23.6520372555,6
0.628439303263,0.00102724776863,0.000481775472828,-0.201603977407,29.6962131763,0.628475439792,0.000186767736239,0.00125087134157,-0.0185705441952,29.6374241941,0.628443371976,0.00080690775214,-0.00166668069697,0.0135978072246,29.6802915572,0.569980271121,0.00116936266392,0.0378170547044,-1.1578442114,24.4523460472,0.41482385682,0.000693969682575,0.0180129518299,-0.304090422773,12.9572661706,0.617856359018,0.0033499697168,0.00794987161422,0.350095795712,28.8788837875,0.489904237372,0.00581546547366,0.0992426273248,-0.819444314102,18.4308065796,0.530464436428,0.00835616210572,0.0139428017153,-0.0322853892704,21.7227948694,0.56142557187,0.00249329221305,-0.0253243180476,-0.674671457055,23.82440408,6
0.628302240571,0.000786472231968,-0.0562805570656,-0.068935056572,29.6654768581,0.628493824587,0.000136012765146,-0.018699689342,0.262724860258,29.6354015104,0.627942249208,0.000506731238266,-0.0243756561889,-0.0611856544229,29.6108582371,0.568465229149,0.00120614037242,0.00976897093924,-1.00099302038,24.3257081439,0.415237688167,0.000659771124171,-0.00863911409582,-0.347243027339,12.9804983888,0.616696635787,0.00316755985391,0.0416561590195,0.400467068364,28.7580049735,0.493333247433,0.00571359534897,-0.00732982394191,-0.941755392275,18.6761330325,0.532003056598,0.00819468146875,-0.0623106137303,-0.0697796759772,21.8334503459,0.561682445574,0.0024563899028,-0.0166422723977,-0.70054854411,23.8433105777,6
0.629190815276,0.000593635094728,-0.000787808120649,-0.0237025299013,29.7350101491,0.628785192804,0.000106355559945,0.000852266917685,0.433884631256,29.6606817132,0.62910421286,0.000389278168371,-0.00840422905768,0.206799390746,29.7117148823,0.569255723757,0.00121417044392,0.00212568287183,-1.05728286142,24.3937545401,0.415537149903,0.000652002937235,-0.000394844978713,-0.388269261116,12.9985824386,0.616466487633,0.00311255235712,-0.0070084181262,0.426952442343,28.7326486525,0.492429657948,0.0057208262309,0.0180620321254,-0.903966397488,18.6098637431,0.530839603381,0.00803370425256,0.0467332557186,-0.0398264958111,21.7287954535,0.56110642715,0.00244048212774,0.00393090760596,-0.672728703627,23.7936273717,6
0.629570469749,0.000341694577445,-0.037346280993,2.54940823909,29.7522086273,0.628908391283,7.1894210769e-05,-0.00918806651373,2.2502084244,29.6697525185,0.629036752398,0.000250161563217,0.00361961988461,2.11805032237,29.6950546457,0.569403780893,0.00134799847211,0.0872878477473,-0.772823545037,24.4163018141,0.415927767443,0.000665793185165,0.0473550559385,-0.391090594463,13.0239617755,0.616159450542,0.00313748923406,-0.061594111339,0.430638031722,28.7061093402,0.491733935179,0.00572161061704,-0.00753615378115,-0.876815172227,18.5585689112,0.528874812761,0.00781666205622,0.0131504852281,-0.0126264208726,21.5565755601,0.560498081702,0.00236622210399,-0.0159165536523,-0.700081117614,23.736957905,6
0.629122320551,7.77488559033e-05,0.00739034088336,1.19706215003,29.6903704815,0.628820029846,2.24955079389e-05,-0.00599582765878,0.222147732824,29.6577619127,0.629001390347,8.38418840104e-05,-0.00504825551223,-0.377913113799,29.6794104788,0.570854926404,0.00191162072799,0.000805750259715,0.213217749104,24.5821109588,0.416995295875,0.000753270263161,0.0241887684636,0.00457477492803,13.0971227581,0.615639718558,0.00323208151415,-0.0751404220619,0.426443780635,28.665093762,0.492019768559,0.0059289045079,-0.0956636024277,-0.885664724387,18.5949978825,0.531949362546,0.00707122857902,-0.0411143690351,0.154921366216,21.7460302383,0.560938443879,0.0022001714488,0.0764907204813,-0.467959574077,23.7617080238,6
0.627982376322,3.83214369328e-05,-0.0163548847191,-1.31160011125,29.5799756592,0.62831425233,1.38774180543e-05,-0.0103022112737,-1.27311437199,29.609436905,0.627968471977,6.01799552724e-05,-0.022808094141,-1.16171493478,29.5802834515,0.570841649878,0.00334572515679,0.0316788246357,-0.398776108843,24.6870978543,0.41487874717,0.000788465677655,0.00258968838731,0.0238324174347,12.9676745741,0.618503102228,0.00327449940664,-0.0331175801377,0.2950282275,28.933269516,0.493862173063,0.00626090172126,0.0310285831734,-0.883166383619,18.7557951761,0.532344859913,0.00628514841825,-0.0563983570721,0.385325754623,21.7194297237,0.561775270351,0.00238478534822,-0.0115993540437,-0.228157236187,23.8458331941,6
0.628872126413,1.17670880841e-05,-0.0104949386251,1.38734336252,29.661882118,0.628729376596,4.27445919465e-06,-0.00819344365552,1.59005193584,29.6478634846,0.628963712477,1.74080709689e-05,-0.0171626249054,1.9588129537,29.6709395682,0.568127071992,0.00350606922581,-0.0121905876386,-0.283522232029,24.4670768674,0.415204451132,0.00083018994009,-0.00492020253324,0.0288916043854,12.9910392736,0.617301304005,0.00343444119267,0.0477459733729,0.29939637417,28.8337161427,0.491699946483,0.00646085046453,-0.0102709959145,-0.790032478874,18.6107657372,0.532231063119,0.0061916816769,0.0286593836767,0.360222681767,21.7034272853,0.561911744906,0.00243424105505,0.0456612717904,-0.20164820733,23.8609945178,6
0.62824806442,4.06248982946e-06,0.00832423195897,-3.16579617584,29.6024729078,0.628549426264,2.05272893056e-06,0.011152966587,-0.407609411984,29.6307304962,0.628246726894,4.73285119954e-06,0.0104203954196,-2.6955657901,29.6023964699,0.569736814204,0.00351994209395,-0.0351573370993,-0.35486118341,24.6054785244,0.41438141189,0.000812949627993,-0.00169229696503,0.0316643437547,12.9385548615,0.6172637005,0.00345038284158,0.0111245679209,0.294821454059,28.8314140269,0.494514891885,0.00650682655266,0.0489992352137,-0.877443206635,18.8223785371,0.529814168919,0.00631614761159,-0.155316139156,0.428112686133,21.5201239423,0.560365990531,0.00240091714253,-0.0948763919663,-0.164800096385,23.7284211193,6
0.628638421115,1.52118499387e-06,-0.00179674801101,4.63821583408,29.6390824053,0.628440145294,5.47893135502e-05,-0.011086678365,1.40532183534,29.6243306255,0.628792787782,3.27974045078e-06,0.00192581556086,3.78847935832,29.6537704483,0.570237140573,0.00323165910811,0.0856489722522,-0.263727360222,24.6269225107,0.415327031641,0.000651058112708,-0.0286738205157,0.428657042566,12.9854190412,0.618527970404,0.00298367746314,-0.00741797314436,0.18517464743,28.9140558952,0.491427900686,0.00654107498701,-0.0499649701989,-1.06004543141,18.596643167,0.531215265899,0.00744206247928,-0.0504056498707,0.612347474593,21.7149370278,0.563151373141,0.00206021731088,-0.103604283843,0.200362609051,23.9379162613,6
0.627691190488,0.00043866585916,-0.0949953698253,0.648228817819,29.5821785698,0.628247986481,0.000144377119953,-0.0401241094537,1.14892547688,29.6128488457,0.62812845168,0.000512633336342,-0.0785763394198,1.25763835433,29.6288362527,0.568238061575,0.00303045167902,-0.0908057233993,-0.235487624493,24.4413405209,0.416220913906,0.000532861534997,-0.0336340992088,0.731340493284,13.0324204415,0.614643016743,0.00117319164579,0.0546315257071,-1.37268691996,28.4207690341,0.492308132658,0.00375577184633,0.0344128357266,0.265049383037,18.4554744277,0.529213716756,0.00534485440133,0.191313040627,0.498137510986,21.4005560759,0.559903585089,0.00187296155646,0.147708709133,0.281707196085,23.6505009998,6
0.62956963318,0.000988871418251,0.121390275005,0.380493012089,29.8000207116,0.629055416867,0.000253690770325,0.0476298866715,0.622082098485,29.6970769287,0.62965378188,0.00117700670681,0.137944026668,0.880955436934,29.821889874,0.570236303033,0.00270559356635,-0.0363235755549,-0.195957478117,24.5879220212,0.415294362503,0.000457202870598,-0.0200480634461,0.679684437234,12.9690385769,0.616286165275,0.00092092972586,-0.0780692823289,-0.649003708265,28.5537966129,0.490183474664,0.00323156128154,-0.0776318331191,-0.587635192465,18.2601234474,0.535372913659,0.00635305148412,-0.166798446933,0.561818066085,21.9669375608,0.562217508485,0.00181118330864,-0.09336676412,0.380310828643,23.8406670784,6
0.6277440537,0.00128411580623,-0.0109953421724,-0.0276931215081,29.6497193413,0.628173557226,0.000324450215153,-0.00600247580926,0.343526430677,29.6191606657,0.628009850702,0.00184552459711,-0.0247578041483,0.0682187335454,29.7162967635,0.568059861017,0.00260469679768,0.0451254187714,-0.123471333533,24.3946479904,0.415204876054,0.000468589759551,0.0128167205987,0.678374368356,12.9643073246,0.616478784718,0.0010108533351,-0.00490380047798,-0.507201329938,28.5782600473,0.492913637778,0.0046836525371,-0.0548706797864,0.26339643058,18.5688793608,0.534021576002,0.00967321910878,0.220312832786,0.0517490144379,22.1042464867,0.563055214699,0.0024648166762,0.100211191936,0.127504027329,23.959734544,6
0.628652657656,0.00132818497946,-0.0203671405051,-0.0767466195751,29.7385979868,0.628687315784,0.000337503716355,-0.0106085611264,0.266968006644,29.6685558521,0.62856810188,0.00191233962673,-0.0212310090684,0.0349794249144,29.773852535,0.56904720364,0.00258763023545,-0.0422518270974,-0.177204953654,24.4775886352,0.415590320722,0.000487610017195,0.0149170668952,0.596408611719,12.9897317421,0.616275183615,0.00111265774678,-0.0533205664021,-0.483278579751,28.5669693188,0.492633189624,0.0047362869537,0.0352999700134,0.266602490014,18.5520446985,0.527221301181,0.0109732136331,-0.0468439992383,0.0702419021891,21.6591903403,0.559750662982,0.00269838980223,0.000422948731958,0.193074624771,23.6987411985,6
0.628331539534,0.00133942197527,0.00375737819869,-0.0514287936487,29.7091564941,0.62846531032,0.000341065931745,0.000934091484804,0.295600637725,29.6478873496,0.628361725135,0.00192773952173,0.00310448876701,0.047070280076,29.7555370457,0.569010935969,0.0026305961122,-0.0422688125052,-0.171986101307,24.4776725062,0.414943584649,0.000520365377123,0.0113778058685,0.581156457168,12.951870421,0.617611559033,0.001300136102,-0.0298483785419,-0.366128775616,28.7045129104,0.491539261271,0.00479539581744,-0.0144451871395,0.297602183715,18.4756726933,0.532845383108,0.0119798341668,-0.0119295237956,0.0293073577347,22.1808229008,0.562509499288,0.00286525786354,-0.0431378553986,0.0726913710876,23.9432993411,6
0.628112950409,0.0013633427635,-0.038188795816,-0.0461245211053,29.6903282498,0.628276128387,0.000354189285722,-0.0295107522871,0.259306923267,29.6310270197,0.627942975787,0.0019735998392,-0.051300864675,0.0545165084472,29.7194749511,0.569031338311,0.00246997325091,0.0236088003501,-0.210833261776,24.4675278191,0.416098278258,0.00056822124648,0.0617164900405,0.409469510936,13.0273816599,0.614736068897,0.00182893344133,-0.0703656732633,-0.200186262076,28.4778736548,0.492455689682,0.00649971837741,0.13020899706,-0.0341584945482,18.6694246325,0.531447488106,0.012956581342,0.132817703604,0.0496297572424,22.1415194653,0.561805723208,0.00318469288189,0.0869740373507,0.0464881479674,23.9075925704,6
0.628242895944,0.00139780397079,0.003356355168,-0.0383911837092,29.7051227166,0.628321977864,0.000387921805463,-0.0021132171591,0.34795743288,29.6378443036,0.62823766904,0.00204246070114,-0.00206729093646,0.0612589411276,29.7523347519,0.571769202575,0.0010799084578,0.0650871344367,1.48342431998,24.5989148019,0.415248266856,0.000414805213708,0.0666621659553,-0.0482188847387,12.9630298204,0.61744377268,0.00205890736022,-0.0903988191278,-0.139661190948,28.7451200763,0.494175273569,0.00601490239497,0.00508785712506,-0.0269393105304,18.7607928527,0.524490706871,0.0128706721236,0.0474256114761,0.138110091979,21.5842173567,0.55734811711,0.00286961452646,0.00699703430635,0.0499379161037,23.5101207484,6
0.627063475246,0.00156353581215,-0.0575753921961,-0.140319197725,29.6063467992,0.628089313353,0.000407896929101,-0.0179871715962,0.333094957472,29.6173982888,0.627443636255,0.00213280693993,-0.0545671259547,0.0699728998268,29.6842414644,0.56717218997,0.000560921237787,0.0376763979792,-0.169277156971,24.1678301523,0.414489215192,0.000403594416458,-0.013255501889,-0.129122932171,12.9149642001,0.618023994931,0.00212016981081,0.0260152315682,-0.101237946351,28.8034169393,0.48888295263,0.00671462773756,-0.10290740838,0.0179781329035,18.4223730555,0.533668551772,0.0138406242507,-0.210877560351,0.0825783975211,22.3843654308,0.563022743957,0.00298764701755,-0.119342615682,-0.0753415086251,23.9956816453,6
0.628054685831,0.00186250877522,-0.00670481596175,0.142337096505,29.7217772789,0.628435306697,0.000435396387295,-0.00216242065168,0.323628717586,29.6520394354,0.628099553549,0.00228416748927,-0.00979111895164,0.0941966191138,29.7572070818,0.569079964008,0.000441746728801,-0.0408650537935,0.345656001554,24.3215896656,0.415467029199,0.00050289975554,0.0240173209302,-0.591442522145,12.9831785083,0.616981938959,0.00211209727966,-0.01528043029,-0.0229196517173,28.7062986738,0.493040682472,0.00739682199781,0.129042410467,-0.0081460213577,18.7790484208,0.53148619625,0.0147392138585,0.0232520912639,0.0752287053205,22.2765200858,0.560342412956,0.00321357479068,-0.00565919561555,-0.0596099707534,23.7865760163,6
0.628833399644,0.00189293587333,0.0107289898028,0.0877020462026,29.7974355927,0.628854550863,0.000429291358778,0.0123402088908,0.292281827947,29.6911210211,0.62877313067,0.00230022766976,0.00824429449385,0.0513743022383,29.8218905865,0.567936559722,0.000456492950159,-0.00907420684404,0.401435648248,24.2251756685,0.414986536445,0.000539018371411,-0.036028596226,-0.616115036545,12.9559242668,0.617289355761,0.00219258808169,0.0440882534626,-0.0751209587407,28.7407126732,0.493006939958,0.00708481399651,-0.0886612286273,0.111585058022,18.7534644492,0.534490440881,0.0150475581704,-0.0668175927055,-0.0183606379453,22.5395216591,0.564307573452,0.00346759965078,0.00870751546304,-0.106686196136,24.1398301833,6
0.629451194176,0.00181561178448,-0.111962824683,0.118855505089,29.8500157108,0.629089395468,0.000375177343375,-0.0482425519113,0.244956990778,29.7092731852,0.629820181298,0.0021718940776,-0.108363968821,0.0772304020962,29.9112297196,0.566055558127,0.00206836052389,-0.0415733518074,0.659151775537,24.1844757952,0.415183957697,0.000587347749447,-0.00128175657795,-0.590504739666,12.9717926381,0.61739822865,0.00336799404093,0.0525829256197,-0.759446482066,28.8377745146,0.49353021841,0.00844834478871,0.119480189621,-0.115511962637,18.8930832506,0.534917791098,0.013994080749,-0.0187554827848,-0.135987739665,22.4958402179,0.561849972031,0.00336466113065,-0.0376980737989,-0.127370270312,23.924639254,6
0.628635263118,0.00141711871497,-0.0453592218289,0.0218716883884,29.7435388375,0.628635996334,0.000283845756755,-0.0199011374374,0.1286295266,29.6597457775,0.628672435266,0.0017457179892,-0.0391801908981,-0.113177245046,29.7713604459,0.570027939281,0.00223039075915,0.000395175114387,0.428276762031,24.5349377833,0.415404504677,0.000615104788259,-0.0194643549375,-0.5176805004,12.9875854423,0.61653162727,0.00337729690162,-0.00568715235858,-0.711364384243,28.7582635275,0.492619678475,0.00849121730573,-0.0641114974538,-0.091463599287,18.8289111522,0.529455187926,0.0142650245948,0.114376670211,-0.0222483634842,22.0798215216,0.560625785055,0.00335954910041,0.0295413741935,-0.0741319582382,23.8212019486,6
0.627047168233,0.000872905372101,0.0653641674453,-0.120507411015,29.5537063367,0.627889559277,0.000164981439761,0.0217278574747,-0.0717235578127,29.5806060252,0.626593408363,0.00109061357933,0.123577418869,-0.762091423325,29.5271528602,0.568590349622,0.002205483911,0.00181026155263,0.519948455323,24.4103297357,0.415080283833,0.000605901936825,-0.00480448877366,-0.503346457136,12.9667098953,0.617464457988,0.00322935912312,-0.0548456781457,-0.7820510605,28.833649341,0.494077027131,0.00749235236611,-0.24020255399,-0.080371246425,18.8628422305,0.534331632701,0.0112658836197,0.0350150140307,0.164943176053,22.2469474157,0.562317654965,0.00297038846486,-0.0293752088233,0.0656573273855,23.9348946278,6
0.62877474935,0.000598268123724,-0.0362974775045,0.835609886402,29.6960982476,0.628832023784,0.000110833649175,-0.0212748176662,0.887986224435,29.6654302503,0.628903261026,0.000424158724483,-0.0324975069527,0.497300345519,29.6953361253,0.569214543322,0.0021968823953,-0.0292061562674,0.483685844539,24.4629590219,0.415414298527,0.000596380440578,0.0164279541885,-0.550273046734,12.9868101091,0.616474534843,0.00315837022106,-0.0287909578076,-0.765634090486,28.7367833046,0.493004766807,0.00641552370224,0.00181660988242,-0.439846801768,18.7037762611,0.527307038916,0.0092733940853,0.110436478323,0.0688128473992,21.5401846591,0.560179802601,0.00258891882612,0.0703594219013,-0.0543096263709,23.7266858363,6
0.628395081782,0.000568378203027,0.0145612576373,0.91844083464,29.6580883976,0.628489682351,9.96459256997e-05,0.00733341779906,1.03376639515,29.6323198601,0.628268440097,0.000389520968562,0.0190607594861,0.58494096585,29.6329170133,0.569404674952,0.00217619076184,0.00957993278091,0.479646575531,24.4776644057,0.414707943851,0.000574499117828,0.0144959971229,-0.507182920005,12.9412138367,0.618155491784,0.00303555704983,-0.0241950055356,-0.878274179012,28.8833471234,0.492271442985,0.00637920632201,-0.00967994531698,-0.417663684995,18.6468992862,0.532028419662,0.0077651117271,-0.188192733949,0.0775226925661,21.8036862174,0.561441378188,0.00232353150214,-0.0602732498561,-0.0691124560582,23.8131729168,6
0.628483397169,0.000560686761838,-0.00445153135933,0.929939944441,29.6658443591,0.628558098814,9.74410169115e-05,-0.0019320756478,1.05783692802,29.6386069041,0.628497488636,0.000376366518323,0.000667806232041,0.603211525087,29.653533114,0.568841507345,0.00211058685541,0.0130167206746,0.537381434077,24.4247329632,0.415062758728,0.000528063805377,0.0245187991988,-0.621856885644,12.9598587478,0.617100020789,0.00279272132257,-0.114399443372,-0.928779881757,28.7675940522,0.489943913476,0.00581285900097,0.126052468182,-0.532050269699,18.4335294425,0.532396512837,0.00663746484128,-0.0201035864085,0.0665131367327,21.7496259143,0.562322732601,0.00204823060071,0.0203776491838,-0.00018468783216,23.8670832345,6
0.62814639846,0.000512789254795,0.00268353447704,1.08231604708,29.6305387473,0.628249247424,5.94767985996e-05,-0.00464382954229,0.687042578486,29.6066850497,0.628107713756,0.000280584326543,-0.00442224494954,0.7059679622,29.6097107462,0.570520908668,0.00214495522757,0.0480985705283,0.434734215989,24.5707847289,0.415545158238,0.000469400913756,0.0629725707093,-0.72851718065,12.9855690577,0.616857919963,0.00218294870188,-0.0878414470368,-1.34700715363,28.7000652105,0.492611355161,0.00469666567286,-0.0335560679194,-0.349019285165,18.5474993023,0.528391003576,0.00589027547778,0.0546986315096,0.0559887666979,21.3756593349,0.559077045338,0.00189602779418,0.0450515387152,0.109919037829,23.5828417536,6
