cap1_mean,cap1_std,cap1_freq,cap1_skew,cap1_power,cap2_mean,cap2_std,cap2_freq,cap2_skew,cap2_power,cap3_mean,cap3_std,cap3_freq,cap3_skew,cap3_power,accX_mean,accX_std,accX_freq,accX_skew,accX_power,accY_mean,accY_std,accY_freq,accY_skew,accY_power,accZ_mean,accZ_std,accZ_freq,accZ_skew,accZ_power,gyroX_mean,gyroX_std,gyroX_freq,gyroX_skew,gyroX_power,gyroY_mean,gyroY_std,gyroY_freq,gyroY_skew,gyroY_power,gyroZ_mean,gyroZ_std,gyroZ_freq,gyroZ_skew,gyroZ_power,label
0.628488739722,0.0161241856588,-0.138280656527,-1.35818608205,30.8180469356,0.628481650498,0.016128252406,-0.138569404214,-1.35669086081,30.817679554,0.628451190782,0.0161207493244,-0.138379717135,-1.35868598905,30.8142528896,0.370621552322,0.0162540438652,0.134540293727,1.34555691208,11.5048243744,0.552040366424,0.00174130664094,0.0971305108745,1.03648992211,22.9849991536,0.441939659054,0.012717881295,0.112410397177,1.34613654532,15.5894228842,0.592312532242,0.000502260990149,0.104623252605,0.94798760294,26.3497275021,0.460210859844,0.000312839822619,0.0340110212542,0.243111632403,15.9077028107,0.541472438883,0.000724469696116,-0.00954788164119,0.0664867493364,22.0430409128,7
0.627263635038,0.005211977055,-0.366489152452,0.769237336223,29.8951613902,0.627253761832,0.00521602857109,-0.367836346796,0.771247160641,29.8945322442,0.627235213493,0.00520978692754,-0.366241349474,0.766932742462,29.892325211,0.371798898086,0.00528600550424,0.380073136029,-0.787196877275,10.7587459537,0.552281147976,0.000833595612871,0.148699630301,-0.728755570813,22.937771056,0.443332582184,0.00415059588325,0.336296474074,-0.819251333702,15.0479274773,0.590332373397,0.000919265942978,-0.0707270745764,0.584851558364,26.2049490108,0.457785697329,0.000492290894047,-0.0350493926814,-0.549639291619,15.7540103771,0.541620257114,0.00265332897212,0.0020939697601,-0.293394458737,22.1977840626,7
0.632853249486,0.0011858622618,0.0288178123418,1.91730825795,30.1254964613,0.632877281011,0.00118805881118,0.0291457187369,1.91118933212,30.1279403135,0.632805995654,0.00118491981366,0.0290366258885,1.91633315102,30.1209411764,0.366617647123,0.00122699172721,-0.0278999273237,-1.85561208127,10.1714348265,0.550102245462,0.000482389399205,0.00659109551555,-0.601890872927,22.7316328502,0.437148610618,0.00106718690359,-0.0256612773644,-1.56582204936,14.4113899132,0.593001902472,0.00104210811288,0.0283784402652,0.437271181444,26.4509602255,0.460305392642,0.000873298705186,-0.0741237109344,0.279511486801,15.9557031913,0.539409131576,0.00273966025009,-0.0522166372482,-0.182513682147,22.0249007006,7
0.625714972527,0.000332120698832,0.0520282597765,-1.95554723486,29.3885189451,0.625716622184,0.000333293312933,0.0528341695159,-1.95982168305,29.3887605509,0.625683217398,0.00033193733693,0.0522183128383,-1.96072876136,29.3855250029,0.373305033185,0.000383731018059,-0.0463034955106,1.5361915611,10.4801446804,0.552215354547,0.000417436761075,-0.0188562254646,-0.777244149691,22.9015251551,0.444542880182,0.000481409022324,-0.0496285581106,0.527652601841,14.8570021917,0.590400948657,0.00119903570482,-0.0343651300566,0.423623720628,26.2317246553,0.459173707711,0.00103821944477,-0.00632036004516,0.0724477337826,15.8898652779,0.541056590083,0.00331345886554,0.0212582110866,-0.0839188921249,22.2008634814,7
0.62971518063,8.19235233116e-05,-0.0284039001848,2.11719742561,29.7466529944,0.629734205174,8.23230450344e-05,-0.0274719760424,2.11391387491,29.7484795928,0.629670986275,8.19757491441e-05,-0.027751939203,2.0965892307,29.7424825272,0.36943678772,0.000140389839333,0.0156098964077,-0.717992362577,10.2466543572,0.550763366332,0.000418032756121,-0.0273532180979,-0.644714238731,22.781455851,0.440474215088,0.000301186294678,0.0108529887966,-0.115253220647,14.5736028476,0.593800722898,0.00151489581808,-0.0613503443623,0.305458069855,26.5570496791,0.460198947398,0.0011514486638,-0.0532459274975,-0.00764547734649,15.9689375401,0.536975642499,0.00376515495452,0.00445336593992,-0.0522956656766,21.9043345144,7
0.628005177407,1.94781068109e-05,0.0162410262252,-2.22060333533,29.5807290937,0.627994566512,1.97958058728e-05,0.0168441939844,-2.1523032332,29.5797530573,0.627963488193,1.97162737756e-05,0.0160482104268,-2.22030630786,29.576819692,0.371101385958,0.00011596448694,-0.022071839022,-0.206086676824,10.3372992715,0.551587831708,0.000494341753567,0.013793878563,-0.526583153785,22.8552664964,0.442521072653,0.000334728849469,0.00259479369335,-0.210205601661,14.7116374155,0.592507958284,0.00204171600582,0.0770962783313,0.219079399471,26.4810130317,0.459881152239,0.00147506191956,0.0050314575601,-0.125634727599,15.9709551459,0.539849855733,0.00484952242139,0.0948183680655,0.126768792807,22.2167046643,7
0.62868022591,4.60118787736e-06,-0.0110909278896,2.32347453376,29.6432524716,0.62867851023,4.92007394313e-06,-0.011507478354,2.04685588974,29.6431142773,0.628641849698,4.67738651036e-06,-0.0110084072825,2.21988733733,29.639639266,0.370398301465,0.000102343615578,0.0159384127276,-0.228290107553,10.2971910572,0.551190023216,0.000519730535957,0.00919355551089,-0.475003629304,22.8242431866,0.441730376715,0.000330427670078,0.0147021249041,-0.119305185476,14.6588810761,0.591406242989,0.00218162709143,-0.0291994426736,0.196284772369,26.3935412232,0.459289761951,0.00150074454024,-0.0369682874167,-0.0880223052566,15.9320865035,0.539051740386,0.00527503914938,0.0728745599004,0.108471915579,22.1836113081,7
0.628447222481,9.540339673e-07,0.00469220000945,-1.53203459456,29.6210139569,0.628444403185,1.387975832e-06,0.00410611066582,-0.569155882685,29.6207803023,0.628415464788,9.97616587976e-07,0.00477517214459,-1.39018494289,29.6180235525,0.370520934081,9.75345464334e-05,-0.00601970953271,-0.239283216964,10.3036497509,0.551795365107,0.000540971096102,0.0211720954274,-0.508932277827,22.8758912326,0.442162265979,0.000333766930308,-0.000651761547319,-0.186858140537,14.687758962,0.591784294559,0.00224874691079,-0.00459296001985,0.179658805506,26.4320561179,0.459122716713,0.00154182329533,0.00250926805317,-0.0716146411822,15.923620099,0.540819548249,0.00548737390921,0.00499785446075,0.053187909826,22.3424994519,7
0.628495478287,2.16867033893e-07,-0.00153053598823,-0.137368926449,29.6255085152,0.628495715549,6.41672628418e-07,-0.0025277572244,0.401003490367,29.6255623185,0.628459141861,2.72229752086e-07,-0.00189858933994,0.369854436425,29.6220871191,0.370786916397,8.76714062556e-05,0.00641574070744,-0.140441038092,10.3177079869,0.552096386402,0.000444435095109,-0.0396392888386,-0.273810347257,22.8936696879,0.441725004657,0.000315556073016,0.00111874858126,-0.13525034959,14.6574246298,0.59150577571,0.00218954996691,0.0332024345433,0.173837067754,26.4029579,0.459395155182,0.0014415773477,0.0375966569076,-0.144013015056,15.9349698691,0.540642813168,0.00545364423283,-0.181643790248,0.125405140848,22.3256685305,7
0.628510478456,8.07129974784e-08,0.000914769780767,-0.0785652965342,29.6269125874,0.628524291236,5.05773830086e-07,0.000173738145306,0.367115914829,29.6282462778,0.628473327755,1.00487922776e-07,0.00114730183647,0.00727985233064,29.6234117135,0.370410536151,8.32215643735e-05,-0.00551841251242,-0.0828727934806,10.2964557927,0.55124153861,0.000403592876386,0.0156761816531,-0.248721726024,22.8199084146,0.442027107576,0.000312199156009,-0.0192205687585,-0.18403911362,14.677200025,0.591796788831,0.00205287441643,-0.0268362486671,0.210075397074,26.4186706521,0.45958414833,0.00138344579231,-0.010363039285,-0.150987966714,15.9436941934,0.540058347855,0.00518335326833,0.0440288126803,0.09375603996,22.2582945735,7
0.628488113012,4.41172254605e-08,0.000172771901941,-0.708499453406,29.6248013795,0.628504608054,5.04758797974e-07,0.000503692106924,0.450728133202,29.626390528,0.628448767653,6.21574102575e-08,8.36204512075e-05,-0.238435331389,29.621093617,0.370847628937,7.438471417e-05,-0.00575743651966,-0.101973639195,10.3201017605,0.551698489373,0.000395008607433,-0.0164605914429,-0.313044124134,22.8570723752,0.441853889831,0.000292312743361,-0.0116907281403,-0.191943988235,14.6642456399,0.592768210922,0.00196114663149,0.00610654332673,0.199172665661,26.4981862417,0.460384662419,0.0013188241247,0.0167992622145,-0.198107933177,15.9941457895,0.539286022922,0.00513338973382,-0.0404921978044,0.12790529882,22.1920769293,7
0.628501648143,3.3241849544e-08,-0.000349892305132,-0.26689273937,29.6260765887,0.628477745722,4.03774707363e-07,-0.00123572320038,-0.285505476359,29.6238506444,0.628469582894,4.67761042951e-08,-0.000655025167269,0.202624268372,29.6230547081,0.370435062364,6.6531138766e-05,0.00568322606446,-0.196564561051,10.2965834614,0.551283027449,0.00029624108391,0.0660170646839,-0.469316968558,22.8153950667,0.441990091519,0.000285952995696,0.0134237167567,-0.217502296935,14.6728035967,0.590127782415,0.00160004310556,0.0272891823706,-0.0229202067434,26.2372131582,0.458468850739,0.00124815171766,-0.00849433731408,-0.0878627223404,15.8568897594,0.542675867411,0.00411967657937,0.0791212093834,0.668007529794,22.3921383472,7
0.628496864092,3.26560213485e-08,-1.90376203637e-05,-0.212675500313,29.6256255295,0.6285103848,3.68861925418e-07,-0.00136496234175,0.0163863674477,29.6269250809,0.628456961809,3.44594235825e-08,0.000205755343506,0.127296106151,29.6218640135,0.370683128429,6.32065265498e-05,0.00109223603487,-0.288706756968,10.3101259106,0.551213460781,0.000184555405589,-0.00059428880141,0.0834357585572,22.801378051,0.44130976074,0.000259502891212,-0.00705712793586,-0.237233007518,14.6257760833,0.593022983013,0.00129883604063,-0.0463091783297,-0.0287307753453,26.4718332456,0.46046296785,0.00106101718666,-0.0589291620174,-0.229861726533,15.9804761289,0.538737967232,0.00306821759391,0.00688026204372,0.45352380102,21.9949429023,7
0.628496919444,3.49817352141e-08,9.55743507624e-05,-0.243672983394,29.6256309199,0.628503595746,3.576242419e-07,0.000501561538285,0.039677589243,29.6262842042,0.628452882166,2.2117334527e-08,-0.000472553528036,0.217619797456,29.6214785194,0.37059271271,4.61375745023e-05,0.0160284041852,-0.689666420716,10.3038360841,0.551437092988,0.000170189918222,0.0182572311834,0.0848436346577,22.8188091182,0.442084382932,0.000169735058135,-0.045136164072,0.345871232484,14.6704555167,0.591070785691,0.00121067459917,0.0606709825261,0.0686149584386,26.2919404477,0.460961635101,0.000702159460224,0.0285987767746,-0.543800879235,15.9883819777,0.542273752389,0.00283212279598,-0.00208516591137,0.423051695045,22.2641387767,7
0.628499467385,3.02450458901e-08,-0.00035725244458,-0.195516404938,29.6258707759,0.628516944832,3.40143722986e-07,-0.000529544198521,0.0453990564451,29.6275414162,0.628460802321,1.61811292131e-08,6.73704992508e-05,0.38908185117,29.6222247015,0.370530599481,3.81648230939e-05,-0.00578527244568,-0.753424871445,10.2997935833,0.551180468078,0.000157540355024,0.00133601740353,0.103757461358,22.7966511156,0.44178685429,0.000115963680112,0.0124710669115,-0.227841231245,14.6467531591,0.592931331178,0.00103285658501,-0.0592265551825,0.0363612219149,26.4439986492,0.459263468404,0.000651130280334,-0.0492381025712,-0.504216143979,15.8674036465,0.537419642851,0.00242937663363,0.0650232546823,0.498729575834,21.8412643101,7
0.628495658543,2.52281140333e-08,-5.60259050858e-05,-0.0126268894974,29.6255113274,0.628495564664,3.28781275835e-07,0.000931936875835,0.123972794492,29.62552494,0.628456007412,1.86947137557e-08,-7.08823444916e-05,0.400511899619,29.6217728773,0.370322371995,3.64930874944e-05,0.0310061654524,-0.738440599567,10.2880999285,0.551836346736,0.00013326624103,-0.0508894148319,0.146461957165,22.8491132202,0.44211131755,0.00010955046033,-0.041882289565,-0.403121012766,14.667788017,0.592766479754,0.00057434871468,0.0480567317493,0.788060453175,26.3954092689,0.46119015219,0.000385517059681,0.0227930458132,0.738842329496,15.9807549982,0.537862355531,0.00134273778082,-0.0130189891123,-0.306667581028,21.796556108,7
0.628493358563,2.99696097567e-08,-0.000471137369422,-0.181871076784,29.6252948496,0.628489606937,2.51865764124e-07,-0.000976121662158,0.0804708570368,29.6249575901,0.62845852384,1.99860587639e-08,-0.000377818224202,0.256797702511,29.622010193,0.370612086206,6.8518259283e-06,0.00440226915514,0.429893136684,10.3020059183,0.551358338217,6.29924115197e-05,-0.0205448764393,-0.614734939923,22.8043627225,0.44202708945,3.5120928195e-05,-0.00603245555576,0.0684766341994,14.6566950343,0.59138739032,0.000267722739992,-0.0352166495367,-1.14066050234,26.25023989,0.458671783522,0.000277344638208,-0.0138198689007,-0.250310579045,15.7990088782,0.538248729773,0.000860910515306,0.0541027501637,-0.263826133905,21.7920845108,7
0.628495727208,3.22000226971e-08,-0.000177368628248,-0.1464221112,29.6255183167,0.62849763721,2.34040962808e-07,-1.64528710309e-05,-0.138829221258,29.6257133174,0.628460135509,2.18881675302e-08,0.000374159632899,0.332893541262,29.622162264,0.370576255102,6.7845584879e-06,0.00256125363662,0.305383957377,10.3000091207,0.551312361174,3.58021586051e-05,0.0108955591379,0.513044123922,22.7985483285,0.441882328682,2.98381410583e-05,-0.00609211035996,0.31030831203,14.6467074526,0.592627670936,0.000168553039944,-0.0718992617462,0.574281168173,26.3530396519,0.459779005951,0.000282707589689,-0.0462756992345,-0.176573381586,15.8756754352,0.539570347868,0.000502465295228,0.0593715720008,0.589657621121,21.8723944542,7
0.628499211346,2.89169077914e-08,0.00016103462611,-0.27329325959,29.6258465396,0.62849608748,3.14012909064e-07,0.000454234689386,0.175091382413,29.6255731353,0.628462078894,2.22099961849e-08,5.04980205142e-05,0.234403944482,29.6223454892,0.370570513138,6.07782995997e-06,-0.00662575414065,0.14029246248,10.29963765,0.551435541903,1.57827534315e-05,0.0142278608081,0.0102786915419,22.8072546893,0.442017564831,3.04258815431e-05,0.0165321987946,0.302608313512,14.6557160866,0.591890250891,0.000147867717018,-0.0386810065136,0.18688533466,26.2859973935,0.45919567536,0.000242451369332,-0.00218543400624,-0.239238248024,15.8324915215,0.539622641052,0.000278245512706,0.0532025792844,0.937692177433,21.8600347731,7
0.628498214662,2.85651986389e-08,-0.000273040074774,-0.227971427279,29.6257525513,0.628521063991,8.57674219482e-07,0.00168502930855,-0.083153576732,29.6279680589,0.628459722486,2.285070115e-08,-0.000132619074069,0.199864276843,29.6221234,0.370583241954,5.90966789066e-06,-0.00133206399684,0.170292213461,10.3003327567,0.551527246506,1.39967133983e-05,0.00556007014409,0.425283886303,22.8147085297,0.441806680284,3.1315301698e-05,-0.00509254130189,0.371271312648,14.6418030381,0.592134592111,0.000139627876234,-0.00307278420921,0.117260776807,26.307085601,0.459400467339,0.000245587877479,-0.0140252131851,-0.275990849833,15.8468327072,0.540001452951,0.000102297748731,0.00285565845735,0.0930856481787,21.8776877226,7
0.628495312831,2.89935383543e-08,-5.54171140694e-05,-0.167450035481,29.6254790144,0.628495098538,9.04956708642e-07,-0.000149578211011,-0.0356799559987,29.6255236333,0.628457449768,2.43227113684e-08,-2.5422522541e-05,0.23155041737,29.6219092625,0.370582609356,5.96305535618e-06,-0.000531662238551,0.251661221419,10.3003015429,0.551389942213,1.4901991093e-05,0.00518166969126,0.382825223901,22.8034178754,0.441982396885,3.72543187263e-05,0.000841727404761,0.499877476518,14.6538897563,0.591948454077,0.000145385354877,-0.00568507556566,0.140178951927,26.2909814376,0.459378604731,0.000252896989178,-0.00900292045885,-0.257190651009,15.8458670636,0.54016435477,0.000142161372913,0.0375146020407,0.529733114395,21.8938347039,7
0.628500877204,2.49225250701e-08,0.000124484114064,-0.253026022044,29.6260032927,0.628523665894,9.25411174539e-07,0.000661795902839,-0.0350386555233,29.6282183746,0.628458134998,2.29788562218e-08,7.22141171206e-06,0.308090045392,29.6219737588,0.370565528838,5.84276420885e-06,0.0025378057306,0.27687827301,10.2993432018,0.551337479114,2.08070274991e-05,-0.000206117025911,0.438407120544,22.7995159107,0.441880421936,3.85349618098e-05,0.00541342159001,0.513686690435,14.6472246339,0.592076393458,0.000157236412644,-0.00488045923125,0.0916466736068,26.3032196713,0.459541837921,0.000260804707814,-0.00652085489287,-0.269839838651,15.8577021084,0.539855811167,0.000227234452821,0.0257985809558,-0.191557637002,21.8751376133,7
0.628495375234,2.52033833289e-08,0.000223407983363,-0.269626341823,29.6254846169,0.628506629309,9.50137184029e-07,-0.00132785545674,-0.0477932968002,29.6266140415,0.628458803162,2.21883067686e-08,2.81201779526e-05,0.124985598541,29.6220366874,0.370558256874,6.1775338417e-06,0.0015155861725,0.134437207605,10.2989637678,0.551482316143,2.36892530429e-05,-0.00199790249811,0.474412556284,22.8117088811,0.442027279561,3.8014576597e-05,-0.000192040504004,0.469818155708,14.6569217694,0.591864868692,0.000181383509484,-0.0393015381168,-0.176824175848,26.2862240891,0.459396567655,0.000251936066548,-0.00844617920569,-0.318487009588,15.8470337469,0.539390242083,0.000233744842757,-0.0187054781853,-0.121981901016,21.8379346124,7
0.628497337766,2.60155587302e-08,-0.00034221029275,-0.267968518788,29.6256696936,0.628504753271,1.01616009255e-06,-0.000808009432238,0.0220728228905,29.6264420622,0.628460470021,2.38411628352e-08,-0.000222773052658,0.0779894744754,29.6221939427,0.370547860566,7.88340460434e-06,0.00320722447187,0.292658144699,10.2985121447,0.551655418294,3.71656706972e-05,0.0210392192087,0.579189475661,22.8270277996,0.4419633305,3.8279110756e-05,-0.0173376786557,0.516370268275,14.6527015672,0.592353789556,0.000245520775487,0.0217840775445,0.086735595319,26.3343944375,0.459908947503,0.000164622464769,0.0368211942446,0.281248931709,15.8759000619,0.539643930584,0.000308552965458,-0.048196839343,-0.000892629593584,21.8640008057,7
0.628498178707,2.58773125919e-08,-0.000200595491803,-0.127872925115,29.6257489627,0.628525230758,1.15351952964e-06,0.0018137851635,0.0904762376906,29.6283827879,0.62845972525,2.40818346292e-08,-9.883895888e-05,0.0961152383135,29.6221237517,0.370554488128,7.80430093921e-06,-2.71071863445e-06,0.265467354245,10.2988746686,0.551296371285,5.33131750212e-05,-0.0124413424373,0.314585839353,22.7985218493,0.442016080169,3.95351174717e-05,0.00597189176324,0.527096170332,14.6562917333,0.592237856711,0.000252785252907,-1.60989100909e-05,0.0769877325023,26.3246320278,0.459650290924,0.000142300562888,-0.00332580370433,-0.0721126859082,15.8564094876,0.53989600725,0.000387123478874,0.0378422314373,-0.0391533382044,21.8902245358,7
0.628490625209,2.44294444605e-08,5.88688991949e-05,-0.0928948763744,29.625036756,0.62849636136,1.26218868335e-06,-0.00031252485655,0.0168851782018,29.6256691201,0.628456037293,2.42684413698e-08,-0.000416973564656,0.0330353778746,29.6217761066,0.370555846909,8.31347294797e-06,-0.00569183587179,0.184990965875,10.2989878729,0.551555984234,6.01950191405e-05,-0.0047299349309,0.222742954078,22.8205047122,0.441867836851,3.56079281026e-05,0.00196948659071,0.482808864163,14.64617388,0.592017756798,0.000250096176708,0.000448001948967,0.116970409788,26.3048839444,0.459414717978,0.000136122954097,0.00555032752695,-0.0788228879493,15.8397143307,0.539425929783,0.000409693709842,-0.0217323743822,-0.0122630361024,21.8538423637,7
0.628498598987,2.20960254421e-08,-0.000368629178896,-0.247346155285,29.6257883048,0.628525038321,1.29846901462e-06,0.000814107629452,-0.0419161034366,29.6283753715,0.628460763214,2.20470922934e-08,-7.07647059117e-06,0.00971555825293,29.6222214489,0.370595444622,7.41158112367e-06,-0.00482446106372,0.00638650237229,10.3011222251,0.551492444869,6.00752449903e-05,-0.00753798511491,0.251296216621,22.8152393242,0.44189913587,3.35102794497e-05,0.0114108730927,0.572984832668,14.6480932319,0.592034396378,0.000231132736841,-0.00318531684496,0.131080338394,26.3049583096,0.459362003037,0.00011687431615,-0.0068126477587,0.0448545783431,15.834657437,0.539463715287,0.000398614801655,0.0130427804938,-0.00334323881391,21.8560800037,7
0.628500980477,1.7155109792e-08,-0.00032470275949,0.173264775005,29.626012454,0.628513336355,1.51025060843e-06,0.000575224120777,-0.0215810617697,29.6272878067,0.628460013276,2.11898673108e-08,-0.000265099628792,0.0983104984085,29.6221506896,0.370639756686,7.10211259814e-06,0.000890638046931,0.014750196731,10.303562749,0.551357533485,5.70859405476e-05,0.000876618925293,0.243123616196,22.8038590894,0.441871960535,3.19072501955e-05,0.00346224627408,0.61122156539,14.6461733495,0.592757471996,0.00020695138039,-0.0294101006117,0.147500552465,26.3674209477,0.45980177301,9.12016696579e-05,-0.0325173234026,0.209588459037,15.8630742083,0.539411048503,0.00037930817162,0.0332960008042,-0.0500318046295,21.8503897482,7
0.628499140136,1.60523688747e-08,0.000327363248467,0.103203121876,29.6258388743,0.628522146419,1.65196041977e-06,-0.00185190119202,-0.0306693301662,29.6281288855,0.62846176872,1.92983377452e-08,0.000128724245241,0.0284914144642,29.6223160338,0.370630328971,6.967519048e-06,0.000403277471658,0.0670307969413,10.3030286529,0.551528878265,5.57559562663e-05,0.00398818091461,0.210791399914,22.8179337077,0.441789716071,3.1701509504e-05,-0.00402733969098,0.617980645331,14.6407074037,0.592570909367,0.000145100473201,-0.0167024848441,0.0662774348319,26.3462586321,0.459632390343,5.81860146802e-05,-0.0096179206961,-0.32736055683,15.848950834,0.539546484922,0.00035713983563,-0.00264755403786,-0.0409880584494,21.8597090523,7
0.628497975168,1.47757050161e-08,0.000132245781287,-0.113361705584,29.6257289527,0.628469168213,1.37023340345e-06,0.00473742168576,-0.613563086045,29.6231135519,0.628459606759,1.93907493783e-08,0.000410372575628,-0.0101237900365,29.6221122345,0.370598718324,6.87818838722e-06,0.00259365513103,0.097615339327,10.3012647377,0.551492559385,5.6056530817e-05,0.00537024280892,0.224773642919,22.8149514126,0.441864529959,2.83622347925e-05,0.00700645413532,0.704494650458,14.6454185181,0.592187785798,0.000120317227311,-0.00179465733746,0.135824818123,26.3103814985,0.459517698102,4.74032641925e-05,-0.00385826911529,-0.326677178048,15.8402464567,0.539455198591,0.000353556455036,0.00477880455793,-0.0312245420074,21.8520565242,7
0.628495506609,1.40808022057e-08,8.85962737809e-05,0.017757027296,29.6254961791,0.628510302134,1.20039520531e-06,-0.000947601795069,-0.0813497056935,29.6269788209,0.628453681999,1.88495731269e-08,4.0687423694e-05,0.0331025426434,29.6215536762,0.370630038047,6.66029373569e-06,-0.00250065800394,0.0486890287571,10.3029897445,0.551341816209,5.52361669647e-05,0.00203652396989,0.276991629439,22.8024223489,0.441734696708,2.19688037806e-05,0.00963628255825,0.435771120134,14.6363413622,0.592286181469,0.000115417508242,-0.00697772605298,0.119213602061,26.3187599526,0.45965562564,3.77011262395e-05,-0.00635174320143,-0.301224168421,15.849036947,0.539915270723,0.000338312784015,0.0117389024087,-0.086424074374,21.888172613,7
0.628497601793,1.3614560037e-08,-8.05910993835e-05,-0.0873448169521,29.6256936669,0.62851828539,1.14002520722e-06,-0.00137853810386,-0.111265367719,29.6277269921,0.628460389892,1.80394066852e-08,0.000112643921051,-0.0493988858589,29.6221859597,0.370570699883,6.63697202099e-06,0.000594379998695,0.0050372842219,10.2996894068,0.551268620887,5.16313261779e-05,0.00807653397168,0.228811680268,22.7961026463,0.441967811416,2.14898626389e-05,-0.0107772919101,0.471727373398,14.6517562245,0.592193379751,0.000108333057387,-0.016506569487,0.146507943659,26.3099915728,0.459648345576,3.20828121258e-05,-0.0152894049971,-0.299832388677,15.8481192474,0.539441254397,0.000271216571187,0.0502919013619,-0.0530826726841,21.8448350471,7
0.628498736765,1.55252116195e-08,-6.22569227131e-05,0.130898560685,29.6258008075,0.628522660538,1.09325721776e-06,0.000231986323859,-0.102490177983,29.6281360118,0.628462143866,1.77182504456e-08,0.000122709383649,-0.274870215347,29.6223512816,0.370530548628,6.58996476989e-06,0.00531688518786,0.0370425922282,10.2974542174,0.551459213137,5.15099700125e-05,0.00811701072934,0.126909618222,22.8118565193,0.441987948589,2.04119660877e-05,-0.00419578748673,0.519917119571,14.6530114878,0.592294970803,0.000100288955397,-0.00269342788078,0.184450105906,26.3184213156,0.459780416486,2.61987707657e-05,0.00015501938778,-0.511317313501,15.8567910628,0.539369067427,0.000222948330294,-0.0256886234638,0.108394790416,21.8354224937,7
0.628496056944,1.54050962989e-08,-0.000196027404466,0.127126621625,29.6255481595,0.628513718547,1.05860461304e-06,-0.00176770741646,-0.0695534189991,29.6272904169,0.628460544437,1.76621592972e-08,-0.00042029227877,-0.22444638507,29.6222005006,0.370611343669,6.34919454781e-06,-0.0106515252433,0.225139786561,10.3019274446,0.551585006151,5.28216633111e-05,-0.0196057722683,0.10959796944,22.8223602289,0.442107399218,2.09591980571e-05,-0.00938976595958,0.501887795816,14.6609724139,0.591945049035,4.55952717983e-05,-0.0196647370838,-1.37081157948,26.2832946309,0.459576532528,2.62958981804e-05,0.017584812409,-0.416986086831,15.8427400902,0.539672710618,0.000216590984624,0.0157206302932,0.0707545389296,21.8595253268,7
0.628500696187,1.47482429462e-08,-2.24372159654e-05,0.167570361719,29.6259854744,0.628520569203,9.92277967544e-07,0.000352866422836,-0.160594551875,29.6279313719,0.628463715994,1.94606484789e-08,4.05847510561e-05,0.0532211165246,29.6224996141,0.370610647603,5.11880947529e-06,-0.00188199468953,-0.161333131353,10.3017977007,0.551592423575,3.78703410333e-05,0.0201122142961,0.200307802152,22.8218675361,0.442123541356,1.83157905796e-05,-0.00804978970855,0.158335097471,14.6618473051,0.592213480798,9.85961502808e-06,0.00456154745726,-0.0473296971263,26.3044901244,0.459535933576,1.92206696002e-05,0.0230126915566,-0.668618534753,15.8394178981,0.54013730114,0.000124551017557,-0.032071705979,0.393387898129,21.8903395815,7
0.628493762833,1.34917046054e-08,0.000138559702551,0.0626464936835,29.6253317424,0.628522802795,7.7054641701e-07,-0.0012054865078,-0.180994889709,29.6281255429,0.628457763611,2.05984454039e-08,0.000183825435439,0.122982814326,29.6219385725,0.370552855346,6.00916586083e-06,0.00484604179834,-0.238250677911,10.2986510736,0.551273080202,3.36426437485e-05,0.00908025475277,-0.221529990485,22.7951402273,0.441984717099,1.94162636063e-05,-0.0110900442827,-0.430226322912,14.6527235647,0.592377850734,4.18428567225e-05,0.0302270231458,1.50571875398,26.3214602244,0.459853690853,5.42694100669e-05,0.0272117476045,0.125558621282,15.8639222107,0.539642245197,0.000119116774093,-0.0249815398269,0.331325094832,21.8498461014,7
0.62849753925,1.92482341332e-08,0.0003196818049,-0.286439847021,29.6256881876,0.628513682575,7.36610487585e-07,-0.000697019267175,-0.16392837312,29.627263198,0.628459697369,2.14457007526e-08,0.000264894372459,-0.00127720991865,29.6221209283,0.370544333996,5.85232818112e-06,-0.000786711425771,-0.167439477548,10.2981658315,0.551617258083,3.70822510929e-05,-0.0144130279728,-0.0238369722177,22.8238640427,0.442100619584,2.18811573218e-05,-0.0140952969,-0.315157635649,14.6605910434,0.592489337112,0.000116769505657,0.042161848783,0.250330880568,26.3369120377,0.460116526081,0.000116100162952,0.0431805365175,0.980110318078,15.8866327301,0.538879748406,0.000321867078312,-0.0872780314108,-0.873265325283,21.803171907,7
0.628499049623,1.92006741905e-08,-5.41795936675e-05,-0.312252848269,29.6258305741,0.628512607418,6.79139241569e-07,0.00167101702216,-0.178579938563,29.6271575826,0.628461934747,2.0866630505e-08,-0.00019891865675,-0.0108692853692,29.6223318011,0.370655646695,7.74863396125e-06,0.00381504807148,-0.229492038426,10.304494031,0.551241819971,4.97920264789e-05,0.000259271835472,-0.119502829103,22.7937504163,0.44192010667,3.10729061538e-05,0.00239750186502,-1.09856764385,14.649302946,0.592375456508,0.000131134955214,0.00164773941006,0.104822963084,26.3278550972,0.459767802614,0.000153581616025,-0.00329524783484,0.272960762958,15.8653474636,0.538931879233,0.000461657026537,0.021979343991,-0.152949574786,21.817730404,7
0.628495603618,1.88090117058e-08,2.90487483446e-05,-0.284732275487,29.6255056744,0.628486472455,3.63442473671e-07,0.00172347077065,-0.863543626012,29.6246703491,0.628459775765,1.99755572065e-08,-8.62898297451e-05,0.0722209035492,29.6221282098,0.370578705922,9.16809055365e-06,-0.00388347909997,0.0355802620442,10.3003217349,0.551124457062,7.05724805568e-05,-0.00449868819048,-0.267506984036,22.7855849015,0.441815150469,4.00759262684e-05,-0.0022738473588,-0.691955888359,14.6430126574,0.592295247358,0.000199935859265,-0.0205747172472,0.32330150815,26.3258197568,0.459554206457,0.000215581530675,-0.0357214511681,0.246699657956,15.8552081837,0.539312373115,0.000734075647139,0.0584842818198,-0.443026005401,21.8686592825,7
0.628493953129,2.21033195066e-08,0.000406489914885,-0.346509450348,29.6253503196,0.628501546955,2.87211442746e-07,0.00133581533235,-0.788194608827,29.626085843,0.628456661292,2.17488612369e-08,0.000389897810948,0.0777134066264,29.6218347436,0.370513746274,9.81608358764e-06,-0.000480621481824,-0.0133414328545,10.2967591036,0.551546367644,8.32773629924e-05,0.00523636815535,-0.15005353714,22.8214171995,0.442020936731,4.58652618266e-05,0.0146292721573,-0.508135911438,14.6570821675,0.592049213589,0.000209422407123,0.00457512731172,0.33105507749,26.3046676064,0.459499378595,0.000244817114367,0.0036172629656,0.22553503086,15.8535923861,0.539846498078,0.000835055217414,-0.0139370579686,-0.290972608779,21.9193621976,7
0.628491872871,2.11510370384e-08,3.55122656017e-05,-0.282022819153,29.625154135,0.628495661303,1.88074168348e-07,-0.000430923972028,-0.545089922898,29.6255236383,0.6284529989,2.00550834513e-08,-0.00016768239141,0.144259420215,29.621489371,0.37057406889,9.31500412054e-06,-0.00036893325111,-0.0516955229146,10.3000748503,0.551489255709,8.32202531243e-05,-0.000110360820276,-0.133335117865,22.8166882359,0.441892269918,4.76891587161e-05,0.00630364137904,-0.448819240318,14.6486873638,0.592289909836,0.000210599924815,0.00334663099057,0.278966991338,26.3261346915,0.459605380414,0.00024550589157,0.00189178933014,0.205597665568,15.8609503639,0.539533054485,0.000841806941184,-0.000819727216013,-0.25803526979,21.8944874798,7
0.628499280402,2.07183920474e-08,-0.000111286506722,-0.416786189216,29.6258524431,0.628510763642,5.87504436698e-08,0.000777725734604,0.0476379539383,29.6269378486,0.628460782272,2.05965411596e-08,-5.60861409032e-05,0.137923192996,29.6222231382,0.370536012212,9.42745565145e-06,0.00185430534163,-0.0134305377404,10.2979678577,0.551398973464,8.30826100675e-05,0.00447203807527,-0.104072913054,22.8092102084,0.441950618386,4.86575996344e-05,-0.000444101031821,-0.456330769091,14.6526268442,0.592144052016,0.000210984621856,0.000519360786302,0.30799595659,26.3132062373,0.45952024091,0.000247730181018,-0.012094982415,0.214763001661,15.8552459188,0.539551594232,0.000842968543609,-0.00565973517351,-0.259572695047,21.8960738851,7
0.628500167916,1.98207817388e-08,-0.000182142461144,-0.425856215462,29.625936047,0.62850866834,2.90963203587e-08,-4.59427658699e-05,0.245086420412,29.6267381165,0.628461670022,1.99251360169e-08,-0.000142064213066,0.230533824747,29.622306776,0.370519023134,9.5863924773e-06,0.000125057486387,0.0173623526344,10.2970353808,0.551304453729,8.27877438789e-05,0.00751901348729,-0.0705839379605,22.8013713456,0.442058809846,5.24770776026e-05,0.0049790123105,-0.473956202526,14.660082656,0.592202964256,0.000210862070011,-0.0020593669605,0.297033315742,26.3184301087,0.459535123192,0.000254047291973,-0.000107144256341,0.209876793826,15.8567392081,0.539512668456,0.000842054389767,0.00757799594828,-0.255861971909,21.8928559817,7
0.628496104471,1.83082267408e-08,-0.000231005116681,-0.567663383271,29.625552855,0.628507926782,1.99495666383e-08,-0.000129071033272,-0.153993761267,29.6266675284,0.628461190714,1.88566936643e-08,-0.000172536334891,0.259689488871,29.6222615129,0.370569721175,9.45595854083e-06,-0.00191889578903,-0.0207185484989,10.2998436098,0.551579061344,7.70206628292e-05,0.00220131901172,-0.146094227031,22.8236590976,0.442083684242,5.25687370966e-05,-0.000858396275267,-0.480218848515,14.661738877,0.592053977867,0.000210572940177,-0.00027900483487,0.328698428802,26.3051758507,0.459703609358,0.000253401726525,0.00120571406117,0.178246764278,15.868307362,0.539948953491,0.000831404226574,0.00928024321585,-0.306156206849,21.927389341,7
0.628498835726,1.76462002056e-08,-0.000128152720634,-0.59707628963,29.625810294,0.628501776836,1.92209407675e-08,-7.92636042863e-05,-0.126837299909,29.6260876838,0.628465594058,1.84005349899e-08,-0.000184196964857,0.23891025337,29.6226765802,0.370562625466,9.03714335616e-06,-0.00518553095142,-0.0438282421126,10.299418203,0.551549385912,7.7149093388e-05,0.00344298249118,-0.140189308456,22.8212134154,0.442022139638,5.26584851238e-05,-0.00378976301812,-0.423739875719,14.6576646226,0.592097241094,0.000213510042774,-0.00334171837215,0.31023541622,26.3092354615,0.459497385783,0.000256351183472,-0.0114809709452,0.207204862485,15.8543085532,0.539796037804,0.000837762609361,0.0134763556734,-0.284190240658,21.9154766152,7
0.628495415237,1.83886363801e-08,0.000210326359577,-0.540207451562,29.6254878838,0.628508401135,1.68994983362e-08,-0.000304592488049,0.0892301449726,29.6267120228,0.628461272238,1.46714549308e-08,-1.6114334852e-06,-0.0118025211958,29.6222688884,0.370576173089,1.03460819482e-05,-0.00309660462913,0.103321585635,10.3002681147,0.551311758638,9.18326590918e-05,-0.00552921226894,0.010207776185,22.8026447577,0.441866984182,5.44167302476e-05,-0.00610475581862,-0.392763856708,14.6475092163,0.591488775361,0.000215255683814,0.0108876158581,0.373804382325,26.255351774,0.459110232161,0.000264291896741,0.0115099316093,0.265530056972,15.828222996,0.540085960927,0.000915226807724,-0.0276363613541,-0.200816798568,21.944690173,7
0.628492742829,2.18474733699e-08,-0.000600649543728,-0.536632321104,29.6252362008,0.628509184263,1.75477889106e-08,-0.000297699244927,0.0579798114617,29.6267859013,0.62845745269,1.53069403938e-08,-0.000394313926871,-0.103309675708,29.6219088708,0.370538760827,1.21002622961e-05,-0.00698590668725,0.113409895774,10.298318415,0.551699737239,0.000111468105149,0.011886577512,-0.113591325488,22.836193645,0.442183935331,7.42026709522e-05,0.0120328698627,-0.214832892612,14.6699884475,0.591347831069,0.000241869242475,0.029962450971,0.390433079841,26.2448176222,0.45898762579,0.000295318719576,0.0314564943608,0.195146552001,15.8220766324,0.540915623435,0.0010714301118,-0.0436794106521,-0.102501490214,22.023514204,7
0.628498291758,1.68460310951e-08,0.000105639429444,-0.566037002093,29.6257589523,0.628514485827,2.37276782164e-08,0.000327613232954,0.504267515087,29.6272861729,0.628461747101,1.31142423205e-08,3.53720560133e-05,0.0231603628124,29.6223135381,0.370482589041,1.22133167403e-05,0.00235633685829,0.104754878437,10.2952049441,0.551573709617,9.97540949715e-05,-0.0198258474137,-0.0135900707738,22.8248985886,0.442120722284,6.32341557178e-05,-0.0100796071625,0.0585229806239,14.664984308,0.59197554381,0.000178063032104,0.00962914614162,0.521191116213,26.2958049996,0.459529957998,0.000224526226019,0.024384898473,-0.0387664256849,15.8541986131,0.539849064038,0.000857731128458,-0.0407794050973,0.119748963999,21.9212479992,7
0.628497302565,1.78557956311e-08,0.000135916747731,-0.508727523727,29.6256657712,0.628506837339,2.85751769463e-08,0.000109259909289,-0.0670010237474,29.6265654582,0.62846124973,1.36243850332e-08,-1.2325982407e-05,0.00653731304039,29.6222666892,0.370548241537,1.05832744615e-05,0.00308400738254,0.199916436753,10.2987331103,0.551557488131,9.236104092e-05,-0.0257312087848,-0.0579926276694,22.8230094205,0.441937931097,6.11124752318e-05,-0.0208421490957,0.0989765546187,14.6527074439,0.592767460124,0.000147011102013,-0.00586449748337,1.00327969085,26.3638734551,0.45997138826,0.00019452063568,0.00225071770089,0.0239735619821,15.8824203784,0.538955932959,0.000711927975075,-0.0320637055986,0.0935063149795,21.8381949956,7
0.628496617358,1.85777404837e-08,-0.000221902621777,-0.496388886423,29.625601227,0.628506250094,3.702828673e-08,-0.000765232952755,-0.366415981997,29.6265107207,0.628458330519,1.32504280101e-08,-6.8883428592e-05,0.0289263212696,29.6219914704,0.370598864116,8.6764428295e-06,-0.00567486661096,0.200661186037,10.3014059131,0.551311923773,6.30360112322e-05,0.00992671406902,0.0178617832434,22.8005274619,0.441864406724,5.11892314232e-05,0.00876663911034,0.0408084315162,14.6470995479,0.592222140259,0.000100243915737,-0.0157126200632,0.530683104197,26.3119478057,0.459825098719,0.000131135561831,-0.0287242304117,0.0340467226503,15.8676381375,0.539289411049,0.000429831351175,0.0479106030563,0.701462144683,21.8442876852,7
0.628495852764,1.50757422913e-08,-0.000214426525084,-0.371416052954,29.6255288862,0.628511153128,4.33163120176e-08,9.60534397639e-05,-0.0087065923846,29.6269734259,0.628459468285,1.16234548382e-08,2.62795191321e-05,0.100653292459,29.6220986059,0.370586567264,8.53204655952e-06,0.00219166221352,0.192327869787,10.3007116592,0.551497395335,5.80580115413e-05,0.00120638418823,-0.0280037549589,22.8154995724,0.442011580295,4.78648608192e-05,-0.0118225655841,-0.0146594545595,14.6566097833,0.592179915754,9.30239944094e-05,-0.00291674864943,0.636350813133,26.3076627222,0.459687851989,0.000112917585425,0.00504060595201,-0.116263073074,15.8568249963,0.539750885662,0.00038349347982,-0.00642034999798,0.864506550154,21.8782049104,7
0.628497330257,1.4749083556e-08,8.01119009011e-05,-0.321502798607,29.6256681519,0.628509255719,5.47708798332e-08,0.000658521977137,0.0247207224173,29.6267953924,0.628457924364,1.13519030523e-08,0.000152083981289,0.118687171903,29.6219530422,0.37047822574,8.89333351109e-06,-0.00131828412315,0.238354939558,10.2947167877,0.55141755714,5.85487010526e-05,-0.00197733501068,0.00267778399039,22.808931778,0.44207205796,4.71634025574e-05,-0.00370348776307,-0.0221557142364,14.6605679239,0.592172175118,9.19535348583e-05,0.000865639133205,0.651103065483,26.3068959353,0.459518507679,0.00011370335317,0.00754975114662,-0.0701656310902,15.8452084656,0.539677890476,0.000381668663061,0.00208392593409,0.883092711906,21.8721603912,7
0.628501283152,1.45846643522e-08,0.000107106488523,-0.35170236836,29.6260407985,0.6285056198,6.34061395052e-08,-0.000591790258788,-0.112271689031,29.6264532511,0.628461607392,1.11115157619e-08,-4.1876468303e-06,0.0511745594514,29.6223002197,0.370543751341,9.73330336354e-06,-0.00865259025563,0.135476125288,10.2984206388,0.551384371072,5.84232528177e-05,-0.00017177756024,0.0148789044688,22.8061776704,0.441873384458,4.7341210973e-05,0.00523105538052,-0.0246538185087,14.6474098416,0.592114947894,9.13026063076e-05,-0.000189002042827,0.673261662585,26.3017647568,0.459555791797,0.000113091392421,-0.00583478614776,-0.0846539203979,15.8477331961,0.539620179066,0.000383289248388,-0.00355008193108,0.8844906029,21.8676087285,7
0.628496172485,1.55227164524e-08,0.000140923018633,-0.196185861756,29.6255590608,0.62850814901,6.66002926274e-08,0.00014164025268,-0.115714113626,29.6266919314,0.628460760514,1.10535249346e-08,-4.94703273812e-06,0.108891577415,29.6222203809,0.370597809065,9.52797092583e-06,-0.00233084754637,0.127146529186,10.3014102761,0.551446817455,5.85854305255e-05,0.00425439646731,-0.00802974235852,22.8113547579,0.441982624295,4.53018802111e-05,0.005988959566,-0.0508475367059,14.6545003526,0.592219462185,9.11573499923e-05,-0.00484241107286,0.641910483813,26.3110374982,0.459619475503,0.000109239088424,-0.00465366580987,-0.100685788357,15.8518383622,0.539573458532,0.000382056521796,0.00746093607178,0.895862140876,21.8637359691,7
0.628497660208,1.53404649267e-08,-0.000220324120819,-0.183754660277,29.6256993017,0.628509452555,6.82037453293e-08,0.000144132349784,-0.0817942801091,29.6268149434,0.628460983798,1.05931983914e-08,-0.000107549607951,0.120641694814,29.6222413956,0.370487777834,1.01044528783e-05,-0.00222166779436,0.131505027214,10.2953372439,0.551500138026,5.86544796854e-05,-0.00157904221485,-0.0285021073486,22.8157705997,0.442046370149,4.44568419273e-05,-0.00871040926879,-0.0863126591177,14.6586643084,0.592295117044,9.06482775339e-05,-0.00281972284893,0.623774890932,26.3177208981,0.4596090305,0.000109262057227,0.00824463108368,-0.0949430113867,15.851119961,0.539407941301,0.000377571040007,-0.00147222898638,0.931079391561,21.8500097924,7
0.628494145056,1.39164846159e-08,8.20752910814e-05,-0.266789889407,29.6253678076,0.628502461926,6.64982822102e-08,-0.000356255591015,-0.053962108005,29.6261557694,0.628455730224,1.06183992923e-08,-9.5417851393e-05,0.152955692533,29.6217461496,0.370556122965,9.17615398525e-06,0.000615349670636,-0.0653938793276,10.2990670554,0.551406323612,5.44112279021e-05,0.00863692661799,0.0159035953355,22.8076964598,0.441978703809,4.28916794707e-05,0.00372603724175,-0.102345126325,14.6540620808,0.591894522698,8.27735879417e-05,0.0145590054622,0.774035911953,26.2815596955,0.459494704178,0.000100373599528,-0.0107767420403,-0.155506941756,15.8425813839,0.540235239161,0.000348479802407,-0.00870174814073,1.0208194372,21.9148460278,7
0.628496860241,1.29357529658e-08,-0.000421308182411,-0.260207096423,29.6256237072,0.628508537828,6.63584153929e-08,-0.000215236474683,-0.0572314025553,29.6267285697,0.62846014631,1.02459844671e-08,-9.24465553246e-05,0.175388319901,29.6221624207,0.37067837263,8.13459778737e-06,-0.00269126853005,0.127515745259,10.3057861554,0.551323073899,3.30243834516e-05,0.0299751553541,-0.528528779694,22.7992286903,0.441688497096,2.83628865364e-05,0.0233134462285,-0.996296629611,14.6337534887,0.591599932588,4.35875306406e-05,0.000928162129719,-1.9375177643,26.2525114952,0.459396750049,7.95482072779e-05,-0.0388765371178,-0.741165114628,15.834289614,0.539934321454,0.000254467559245,0.0724650040548,1.20575541666,21.8835109607,7
0.628498642364,8.48609328085e-09,-1.19819597939e-05,0.257164442751,29.625791387,0.628514444443,6.50733606426e-08,-2.60672493924e-07,-0.103863006578,29.6272853309,0.628461176894,8.82616986326e-09,6.37253549451e-05,0.373185594878,29.6222594678,0.370561688941,6.33967078928e-06,-0.00158184678995,-0.0265730103997,10.299166534,0.551439659455,1.04762205567e-05,-0.00208663203663,0.137034801943,22.8072025918,0.441970398716,1.41777605903e-05,-0.0106275589089,-0.664816715627,14.6513866548,0.59223055847,1.29108352925e-05,-0.0149094734138,0.111536001266,26.3062329807,0.459663549492,1.56394791893e-05,0.00507129828531,-0.0126522909585,15.8479507263,0.539557802847,4.1883401276e-05,0.00944013828369,0.125692435313,21.8372960676,7
0.628493360171,9.35249927012e-09,0.000105766933337,0.454768153796,29.6252934756,0.628507982322,5.71065664843e-08,-0.000278938128748,-0.0279808057508,29.6266755141,0.628457573501,9.52063549865e-09,-0.000414315299343,0.15341857003,29.6219198314,0.370627023686,1.07570379287e-05,0.0115472494856,0.283154905937,10.3031253223,0.551485217256,3.53993389567e-05,-0.0142959063166,0.360000789526,22.812815415,0.441764924837,3.9091436022e-05,-0.0235485521689,-0.150218852562,14.6396114275,0.592373481782,3.75564869346e-05,-0.00097214599233,-1.49637228901,26.3207548239,0.460068923586,5.76102644987e-05,0.00556991517621,1.22035639605,15.8790192433,0.539089614965,0.000108407765412,-0.0355263603218,0.109856876103,21.8043431469,7
0.628495672261,8.82700310149e-09,-0.000106969404035,0.493540931095,29.625511407,0.628507541267,5.6420292224e-08,0.000482469634234,-0.0167882476982,29.6266338824,0.628460506113,9.91522095576e-09,0.000214567408216,0.177436921055,29.6221963145,0.370523539919,1.36413073789e-05,-0.00748430197869,-0.0951294631677,10.2975864793,0.55150730517,4.96813893027e-05,0.0139538334349,0.16765706354,22.815699497,0.442128229728,5.65651910197e-05,0.0165810958258,0.167358445544,14.6649886883,0.59169788372,6.19067604643e-05,-0.020132967762,-1.48277898136,26.2625600202,0.459009712364,0.000130015203299,-0.0323374335034,-0.402029212863,15.8113648284,0.540286822133,0.000220803359725,0.0533734611962,0.592620522369,21.9095782114,7
0.62850034548,9.26467640922e-09,3.10809120196e-06,0.502647400512,29.6259520058,0.628515101389,4.92136592644e-08,0.000261413902625,0.129138465333,29.6273460924,0.628459655703,1.0216499927e-08,-8.48477549747e-05,0.138022243269,29.6221161695,0.370533071408,2.46532038838e-05,0.009818343162,-0.376000569726,10.2989311126,0.551520968748,0.000131533760891,-0.0325862100403,0.308047924827,22.8228869209,0.442107165594,0.000130327254288,-0.0237635723521,0.0989829966765,14.669050157,0.591875001218,0.000167402847708,-0.00235600050351,0.086173270585,26.2860890907,0.459759321518,0.000406689386727,0.0564194779803,-0.426892751351,15.8834925438,0.539325434786,0.000748598160756,-0.0902637838774,0.345545570291,21.8707906095,7
0.628496983346,8.71396754532e-09,1.55814548771e-05,0.522475716196,29.6256350005,0.628505659164,4.2887333866e-08,-0.000129254554234,-0.0529889306913,29.6264554438,0.628460780216,9.95682032981e-09,-2.42368527775e-05,0.20171411057,29.6222221571,0.370463909117,3.01825448143e-05,-0.00380425432115,-0.210653200724,10.2954966052,0.551589915599,0.000177396157953,0.028207183155,0.181524388965,22.83198494,0.44222584933,0.000149907213034,0.0103890409481,0.00153695299882,14.67837077,0.591794525479,0.000222245647891,-0.00545743251385,0.210328659697,26.283003207,0.459146711877,0.000461803848681,0.000206038762375,-0.433204893732,15.8453512118,0.540588279822,0.000931106847943,0.0239245423545,0.420497030791,21.9865785278,7
0.628500154288,8.83371760783e-09,2.91787545863e-05,0.425955230955,29.6259339492,0.628511884737,2.61553713493e-08,0.000191333701581,0.0641600248446,29.6270411296,0.628460409403,8.99268063136e-09,-0.000108667956866,-0.0329410814661,29.6221871295,0.370542762131,3.02021077971e-05,-0.00236888930425,-0.25024795553,10.2998803485,0.551342865557,0.000185259143704,-0.0116861201322,0.210163337363,22.8121308317,0.442076678537,0.000153585754019,-0.00909581128432,0.0194736227544,14.6687495738,0.592396123261,0.000232569525486,0.00501296119862,0.123428817202,26.337197659,0.459673143164,0.000496050083405,0.0100117956874,-0.390740954914,15.8841625971,0.539169573892,0.00102139112712,0.00372201604853,0.377323047947,21.8783701493,7
0.628494882984,8.87923159666e-09,6.43297461282e-05,0.464930620787,29.6254370023,0.628505180985,2.14039241747e-08,-0.000112330516712,0.432318739834,29.6264087732,0.628459776307,8.73245262493e-09,-0.000164663296572,-0.00722230673803,29.6221274289,0.37059735199,3.00012685222e-05,-0.000997811412354,-0.264768815309,10.3028998915,0.551563158539,0.000185649511169,0.00192404728051,0.160896854338,22.8303819031,0.442038566536,0.000152811130432,0.00534374681886,0.0357031953914,14.6661650965,0.59221688348,0.000235886793672,0.00199314720912,0.147284546887,26.3215184036,0.459571556759,0.000496540423159,0.00345528407293,-0.377516124492,15.877195175,0.539576796264,0.00102847380903,-0.00339699170723,0.338209496934,21.9118409918,7
0.628497843944,8.89046225883e-09,1.75151387938e-05,0.344683163496,29.6257161461,0.628509764872,1.86940036889e-08,0.000313512955323,0.435921511591,29.6268407238,0.628462383132,9.83030890446e-09,0.000179544001272,0.0492628884461,29.6223732534,0.370636036994,2.97767953561e-05,0.00420116161296,-0.280618412087,10.3050338768,0.551379754416,0.000186425771019,0.00382420627817,0.199077386551,22.8152680255,0.441922303868,0.000152831536102,-0.00383011323138,0.0644009916621,14.6584587329,0.592124659442,0.000236525652707,-0.00546853509522,0.16483273784,26.3133738222,0.459594564236,0.000496203617157,-0.00613861428982,-0.38101758641,15.8787563283,0.539625495279,0.00103479045419,0.0172314276541,0.33045980725,21.9162501302,7
0.628494401043,8.90762381239e-09,-0.000103502849973,0.354650081169,29.6253915698,0.628508034282,1.77013303406e-08,-0.000464390872799,-0.0873494841387,29.6266774967,0.628457393492,1.08460916311e-08,-0.000313823690701,0.0556219152573,29.6219029602,0.370624370688,3.0092283838e-05,-0.00102171073048,-0.270477539766,10.3044086401,0.551424825792,0.000186945059009,-0.0056712442239,0.188703675291,22.8190343218,0.441932757395,0.000154479874907,-0.00944945552499,0.059097375803,14.6592736651,0.592038533093,0.000240539287781,0.000275719734815,0.177230536417,26.3060217573,0.459596036235,0.000499569971561,0.0145712537762,-0.377748891648,15.8791069171,0.539643900114,0.00104263547506,-0.0119765742144,0.326015586487,21.9183204449,7
0.628498895947,9.6162475097e-09,-3.96064974162e-06,0.338589813594,29.6258153771,0.628507054302,2.74222503001e-08,-0.0011219985169,-0.947957229504,29.6265858273,0.628459238285,1.0315925666e-08,-0.000166165580151,-0.0764204200991,29.6220768273,0.370683280901,3.53117605329e-05,0.0227675610204,0.058715038358,10.3080701758,0.55113541121,0.000210477846955,-0.0349682226064,-0.0130998915235,22.7968434724,0.441659176407,0.000184975404258,-0.0379118108864,-0.166456881011,14.6434002878,0.592613351756,0.00029745670639,-0.0224673402714,0.290445282051,26.3613056472,0.460477518958,0.00055830057025,0.0169067434673,-0.234176870624,15.9442801521,0.538112991488,0.00118010737085,-0.0182158318712,0.158299272644,21.8047473161,7
0.628497488314,1.01280894916e-08,-0.000144130119493,0.244704682459,29.6256827108,0.628510063842,3.56372860391e-08,0.00038146127188,-0.585273603746,29.6268701635,0.628460759416,1.38846783074e-08,-0.000154157300276,-0.255174017688,29.6222204869,0.370588416526,4.01342455318e-05,0.00902826102243,-0.0710191890449,10.3031530189,0.551530453032,0.000273613145373,-0.000569391986155,0.202600845111,22.8341854194,0.4419185581,0.000206276339098,-0.015031200799,-0.0962406971494,14.6621653486,0.592617423452,0.000378291849559,0.00719115526639,0.0334361740852,26.3676493903,0.460073981393,0.000684116631518,0.0328467178077,-0.387220979471,15.9257297573,0.539351620762,0.001824725888,-0.0107187616866,0.284654395125,21.9525425271,7
0.628492451298,9.75450620713e-09,0.000181947703642,0.160408516095,29.6252078222,0.628508724919,3.55171694537e-08,-0.000156479135943,-0.586721367567,29.6267439257,0.628458130368,1.36410157888e-08,-9.55138590071e-05,-0.252464794857,29.6219726313,0.370511158447,4.03439618445e-05,-0.0134162342993,-0.0522906198419,10.2988743432,0.55165872629,0.000288939991007,0.0335681005149,0.17957008977,22.8459328312,0.442114369688,0.000211724332638,0.00809386656971,-0.136316997848,14.675551292,0.592398729449,0.000461782344812,0.0753342187665,0.224073374023,26.3543909925,0.459837702968,0.000766957447911,0.0667049942706,-0.287910269297,15.9155583314,0.539466678774,0.00193138962796,-0.0542401305597,0.235993332675,21.9697451456,7
0.628497456602,1.24061881027e-08,0.000268914889506,0.222797384866,29.6256798897,0.628508639455,3.43369554188e-08,0.000157550824117,-0.625713149438,29.6267357812,0.62846029349,1.19785389457e-08,-3.32478414444e-06,-0.213179924316,29.6221764234,0.370665403549,3.99825535939e-05,0.0131687360099,0.0569419486305,10.3074218131,0.551490241297,0.000287382638718,-0.0310634491333,0.123108000886,22.8318777837,0.441922502612,0.000193463593367,-0.0108153823039,-0.181291003725,14.6614786795,0.592517544232,0.000498534075222,0.00720071001519,0.152184006307,26.3676695383,0.460231745306,0.000768057605015,0.00575245364055,-0.35011701481,15.9428307168,0.538816743158,0.00217220979403,-0.0571425708234,0.304381744492,21.9350047278,7
0.628503663335,1.40362246256e-08,5.95210226298e-05,0.192680233618,29.6262651506,0.628505239239,3.48114451776e-08,-0.000197301511343,-0.581459636038,29.6264152574,0.628464397342,1.24736671111e-08,0.000119932407631,-0.281670254811,29.6225633275,0.370548380292,3.89514395099e-05,-0.0109164923825,0.0911934382923,10.3008400668,0.551360808687,0.000274898916803,0.0460573345219,0.132339920679,22.8202481215,0.441972391259,0.00017097612938,0.0423047438726,-0.22433122754,14.6631218312,0.591373509606,0.000416846532434,0.0182602697066,0.0920712080308,26.2600437331,0.458857813612,0.000639790298715,-0.0125538642048,-0.572003510469,15.8386314656,0.540638687003,0.00199641669139,0.0449908368986,0.323711912586,22.0694990765,7
0.628498991478,1.54359763274e-08,-1.51939308443e-05,-0.0508830211913,29.6258248139,0.628507836495,3.53795172345e-08,-7.17670252265e-05,-0.592031976415,29.6266601582,0.628462164367,1.43420293313e-08,-0.000110297550937,-0.314565807137,29.6223529644,0.370558139895,2.73268233416e-05,0.00516884066516,0.357430961108,10.3005223131,0.551389445911,0.00019267215275,0.00102556066382,0.0677752641815,22.816531819,0.441873847143,0.000108594800402,0.0169571522418,-0.631939807276,14.6519732744,0.591840421059,0.000350127215073,-0.0128081350624,0.188873799241,26.2965407139,0.459464760602,0.000452324405269,-0.0326138613521,-0.267996616819,15.8665619736,0.539648946278,0.0015859494543,0.0568960026793,0.314875791428,21.958934151,7
0.628494626593,1.70042561177e-08,5.56316757221e-05,-0.0475338928675,29.6254134325,0.628508361035,3.49718770735e-08,-7.83005538563e-05,-0.60159638791,29.6267095797,0.628455002781,1.48284651642e-08,4.93629665003e-05,-0.196803051943,29.6216778864,0.370546010356,2.36742147776e-05,-0.000662216373139,0.531167432526,10.2995778262,0.551466839159,0.000164279456121,-0.0129052478829,0.097050280852,22.8208322817,0.442038400605,9.51897751755e-05,-0.00826713314471,-0.622330479144,14.6618901141,0.592113840019,0.000322704966805,0.00496527865351,0.222198586558,26.3187901332,0.459438211477,0.0003911924687,0.0278103088756,-0.235044301066,15.860208505,0.539893756852,0.00140721073143,-0.04144208132,0.291195079493,21.9655287457,7
0.628494494746,1.83955913602e-08,-6.10184501347e-05,0.0689978250323,29.6254011057,0.628506995356,3.73550554499e-08,-0.00010445284252,-0.502555123574,29.6265810051,0.628457837688,1.62751452556e-08,-0.000128835060699,-0.0730614892013,29.6219452357,0.370526165925,2.36731558017e-05,-0.00239444378428,0.548131784389,10.2984747862,0.551708097121,0.0001713557011,0.00522828638966,0.0552956184904,22.8413171541,0.442049343808,9.93682680336e-05,0.00537751753629,-0.618615458592,14.6629249289,0.591840767074,0.000340205245709,0.00796792843637,0.191954711383,26.295837206,0.459188914843,0.000401912187755,0.00468423173134,-0.239450846113,15.8438259655,0.540400222604,0.0015089860643,-0.0103766189494,0.325501169305,22.014095013,7
0.628496873207,1.94601513621e-08,-0.00021447066466,-0.0290107021999,29.6256254123,0.628508486337,3.67795699061e-08,0.000119368025281,-0.527990299949,29.6267215265,0.628461055819,1.56900817578e-08,-8.40525187111e-05,-0.122244888198,29.6222485622,0.370622624373,2.59009883385e-05,0.00764056108367,0.445604265203,10.3040014004,0.551577870546,0.000176901646579,0.000646979463966,0.0951318258209,22.8309517675,0.442074456908,0.000105910859272,-0.00124376427102,-0.567619090034,14.6650743124,0.591777221171,0.000391491918498,-0.0127503171611,0.199454909606,26.2939913643,0.459182636165,0.00046010990554,0.0061376154086,-0.229012649572,15.8477001347,0.540093111247,0.00164836725632,-0.0109744544909,0.292962681754,21.9995218382,7
0.628500074633,2.31393544129e-08,1.45078785543e-05,-0.215719607778,29.6259274983,0.628512982479,3.62233235416e-08,-0.000165036544581,-0.574062165926,29.6271453664,0.628462527262,1.69325415141e-08,-3.33012119347e-05,0.0723783965892,29.6223873659,0.370561727235,2.7560282328e-05,-0.00383691501357,0.439305254388,10.3007389877,0.551794982184,0.000205064247205,0.0269355853491,0.143330821334,22.8510024316,0.442089187799,0.000123022362863,0.00654810918007,-0.324388448939,14.6673174025,0.591836720181,0.000457543053539,0.0114742828217,0.184420185008,26.3041609376,0.459194788444,0.000537264542908,0.013180968848,-0.276348686035,15.8542466063,0.54025390197,0.00179452758363,-0.00584292503749,0.322303409427,22.0233659357,7
0.628494491123,2.39890082134e-08,-0.000111178831212,-0.24592920952,29.6254011781,0.628507342598,3.45539239869e-08,-2.18081666664e-05,-0.492405548507,29.6266135345,0.628457846009,1.75707148378e-08,8.39235419376e-05,-0.0314791258943,29.621946116,0.370547712569,2.7746239714e-05,0.00893202622307,0.445834574656,10.2999737685,0.55148528504,0.000218821308216,-0.000274057244393,0.110334835067,22.826394248,0.44195114498,0.000124339048659,0.00200996670476,-0.298264398307,14.6582621808,0.592100604319,0.000476318414199,0.0432736080823,0.157808689438,26.3289819853,0.459545545313,0.000569640428351,0.00282248505683,-0.22326419358,15.880811508,0.539231229467,0.00193706971188,-0.0349230371108,0.29751101856,21.9511170711,7
0.628498970139,2.45962969121e-08,6.28830706866e-05,-0.281304561509,29.6258234801,0.628511780466,2.21725789572e-08,-0.000644298921834,0.347075938891,29.6270310046,0.628460499362,1.67836466339e-08,-0.000260046287611,0.194374513652,29.6221961864,0.370612760352,1.966988203e-05,0.00873712100467,0.466908531065,10.3029919315,0.551425842757,0.000172547019988,-0.0418280034855,0.161875351648,22.818052984,0.441940962491,8.82181816411e-05,-0.0117390254144,-0.0385009649025,14.65491422,0.592693227713,0.00037871492565,-0.0189966103001,0.301273911107,26.3744195678,0.460403297302,0.000427579313548,-0.00228914982245,-0.143179255554,15.9294805817,0.537812431344,0.00143367617362,0.00189890656462,-0.114825715103,21.799257885,7
0.628492004727,2.43411840866e-08,0.000114625120094,-0.18816108474,29.6251668017,0.628506158933,1.27536469213e-08,-9.83821452721e-05,0.195106504697,29.62650033,0.628457998909,1.57101507677e-08,8.92580601275e-06,0.080288263463,29.621960392,0.370464795314,1.74430589129e-05,-0.00303064264005,0.59412214991,10.2946031289,0.551581953403,0.000129166260489,-0.02487776232,-0.0687956488447,22.8277571523,0.442232585989,7.65001489961e-05,-0.00421427791275,-0.0626954840325,14.6733855193,0.591984927028,0.000341884049686,0.0235569829505,0.257856855153,26.3087609568,0.459424897963,0.000384163698639,0.0546607854955,-0.109148864884,15.8587708788,0.539692197838,0.00115517625782,-0.0474479699326,0.322245817826,21.9305581736,7
0.628493369477,2.37500764078e-08,0.000134293535803,-0.251665711439,29.6252954182,0.628508756053,1.29203241272e-08,7.46451016612e-05,0.244800703682,29.6267451888,0.628459269502,1.60552183445e-08,-0.000157764446531,0.0550195214526,29.6220801948,0.370534182846,1.41651154549e-05,0.00943346872449,0.101319109985,10.2982167678,0.551734025697,0.000102697092368,-0.0130797171341,0.0900636210095,22.8383822182,0.441984250991,6.68240202115e-05,-0.0115738297745,0.269520859622,14.6562008368,0.591955478037,0.000256306244285,0.0305258815406,-0.0389100223426,26.2998132605,0.459389448295,0.000304150845632,0.0362817747979,-0.264025203029,15.850407053,0.540645802726,0.00101738039615,-0.0826249882181,0.477762530756,21.9976274497,7
0.628500634317,2.26292790767e-08,2.7809123921e-05,-0.371535643332,29.6259802248,0.628504118379,1.24968255229e-08,0.000202955896725,0.145550435557,29.6263079362,0.628462555873,1.57093459075e-08,0.000178023783858,0.0343954237158,29.6223899725,0.37063839566,1.1153875579e-05,0.0032123475079,-0.0589545858483,10.3037869121,0.55154953723,9.09062341547e-05,0.00127984094248,0.170530257805,22.8222439627,0.442063773046,6.46543600787e-05,0.00158710081606,0.198423686123,14.6613128806,0.592082202598,0.000202079455941,-0.00174311772599,0.104401634188,26.3070539773,0.459461455664,0.000252118531577,0.0053742007649,-0.269583803231,15.8515189644,0.539708532579,0.000734069187649,-0.00193352680122,0.360600279104,21.9007186303,7
0.6284953029,2.01279321349e-08,8.65025899019e-05,-0.262836391369,29.6254774221,0.628508061408,1.15421490547e-08,-0.000186872623889,0.2658215178,29.6266795982,0.628461735004,1.4025854998e-08,-1.70005889665e-05,0.20700846817,29.6223124653,0.370594713924,9.56981542003e-06,0.000604990869298,0.0844957388031,10.3012413155,0.551537559833,8.87101569196e-05,-0.00753190191882,0.181841559891,22.8210905446,0.442034631947,6.38244078357e-05,-0.0068836796425,0.206792250597,14.6593191942,0.592295389684,0.000200245168192,-0.0127584564812,0.0670596004997,26.3258552905,0.45963261135,0.000252620714744,0.000771422803406,-0.300291850341,15.8633542391,0.539562264818,0.00071861346311,-0.0168561965743,0.381544785405,21.8877352174,7
0.628492598707,2.04171196693e-08,0.000154753087401,-0.0796589472701,29.6252225081,0.628506456651,1.1180138831e-08,-0.00010406197985,0.312933763018,29.6265282812,0.628456475169,1.39701612227e-08,9.14620161229e-05,0.264747758613,29.6218166224,0.370592876827,9.7171696117e-06,0.000461829947738,0.0921483229517,10.3011500972,0.551442751201,8.16460004666e-05,0.00985782393318,0.230177705546,22.8127248929,0.441873531492,5.87637892894e-05,0.00708980296447,0.301771898652,14.6482648579,0.592142095722,0.000200617542498,0.00795917338117,0.0848411325925,26.3122653126,0.459579378631,0.000245828675402,0.00513740784251,-0.318973059428,15.8591817167,0.539915981471,0.000689629674114,-0.0184774141306,0.38409051959,21.9142276245,7
0.628496199766,1.90153429263e-08,-7.25624768438e-06,-0.148694269554,29.6255618912,0.628506495219,1.06557935558e-08,-0.000376852751441,0.206837481044,29.6265318785,0.628453909234,1.23921265049e-08,-0.000176100883914,0.0980137407886,29.6215746194,0.370544097421,1.138429368e-05,-0.010645158354,0.07998280271,10.2985620478,0.551224728,8.10894943305e-05,-0.00860349987536,0.230057349018,22.7946531795,0.441903204767,5.72960400302e-05,-0.00270426756754,0.368308628962,14.6501230857,0.592226224294,0.000265156331264,-0.0353908435664,0.416209410239,26.3245141241,0.460348153357,0.000277402048769,0.0125437847202,-0.255945409964,15.9145594241,0.539232548004,0.000684652872017,0.041459027149,0.356226159483,21.8585448746,7
0.628493794185,1.94745984776e-08,-0.000268621296448,-0.165095667542,29.6253351408,0.628504398259,9.01756106283e-09,0.000126632020286,0.0966870692439,29.6263340646,0.628458021487,1.36370099271e-08,-7.7550322191e-05,-0.0103013518297,29.621962367,0.37060602974,1.99009394463e-05,-0.000483621999132,-0.262406096438,10.3026348655,0.551560655209,9.59747048571e-05,0.0126565859923,0.192070952254,22.8235388563,0.441958788674,6.2596199357e-05,0.0284919021507,0.230773817565,14.6541999352,0.592186849498,0.000260212829665,0.000692421747067,0.398699070942,26.3206506033,0.459299370685,0.00028732316981,-0.0107790899239,-0.512858031687,15.842955308,0.540347750214,0.000591360221006,0.00615397470785,0.334901423797,21.9419374934,7
0.628502722807,1.81119889331e-08,-0.000352132739331,0.194886966211,29.6261767834,0.62850856931,9.46269078823e-09,1.17251464057e-05,0.13370492395,29.6267273275,0.6284628535,1.50957295612e-08,-0.000158858758044,-0.00956200676629,29.6224179842,0.370632338916,2.06775992483e-05,-0.0103714181516,-0.209766987615,10.3041549411,0.55129679738,9.37167188545e-05,0.00474314359902,0.238801362088,22.8015469473,0.4417846642,5.95501105264e-05,0.00952697246431,0.236914334645,14.6424334224,0.591928448247,0.000213796063275,-0.012102371151,0.29126478261,26.2942674969,0.459343299756,0.000242728768764,-0.0219525627251,-0.514419449045,15.8426819562,0.539667167949,0.000564264202881,0.0435255742466,0.105366466717,21.8848044631,7
0.628497772849,1.47447873056e-08,1.14484195953e-05,0.334122044963,29.6257098768,0.628508366513,8.89333917197e-09,-0.000102241676571,0.136023834677,29.6267081664,0.628462766819,1.18799254754e-08,8.7366286815e-06,-0.113911432029,29.622409575,0.370564058168,1.92550801567e-05,-0.00249827592499,-0.225658066775,10.3002539664,0.55164839898,5.49744141971e-05,0.00506121042391,0.21720659377,22.8277648139,0.442058735691,4.54757061435e-05,0.0167428224313,-0.313768428805,14.6595596373,0.591845547955,0.000166472216135,-0.0025050835236,0.715150173464,26.2834053915,0.459167870043,0.000157811311326,0.00739806291045,-0.621902315035,15.824313003,0.540270572027,0.000335868312185,-0.0368011644075,0.194193258985,21.9167760799,7
0.628496783835,1.52927750462e-08,-0.000171602704973,0.40344489178,29.6256166785,0.628508438964,8.6260194085e-09,-3.92994358637e-05,0.10784056518,29.626714977,0.628456435407,1.14811401202e-08,2.01634254696e-05,-0.0529464147955,29.6218126899,0.370614277244,1.81200122609e-05,-0.00341274653535,-0.269553171918,10.3029615682,0.551482374772,5.44913452704e-05,-0.0130440644572,0.247664810556,22.8139930858,0.441931148271,4.40918181347e-05,-0.00255020330684,-0.326666168126,14.6509982804,0.592193442093,0.000152954404735,0.00265218895763,0.759718271885,26.3132990903,0.459827928828,0.000146869801395,-0.00275175989117,-0.788443646675,15.8689976751,0.539511190414,0.000273666031953,-0.0314811142372,0.00954529183567,21.85067563,7
0.628498939809,1.52632753001e-08,-8.33268336816e-05,0.481464991053,29.62581993,0.628511366265,8.54511337175e-09,-1.02483802835e-05,0.0799524923211,29.6269909466,0.628463946681,1.15224351937e-08,-0.000132240579001,0.23129211783,29.6225207735,0.370540035502,1.82719817797e-05,0.00122132598489,-0.211084481716,10.2988459699,0.551469767427,5.29073479973e-05,0.00777197785601,0.263146398551,22.8128329727,0.441894587531,4.26444708976e-05,0.00313860942842,-0.268067346602,14.6484676776,0.592101430837,0.000152094585395,0.0122005612064,0.787657789446,26.3050628293,0.459617055086,0.000139648609238,-0.00291538220035,-0.826319866507,15.8539217965,0.539903006994,0.000259246324608,-0.0165163793715,-0.0660006946751,21.8813285001,7
0.628495805545,1.53601192261e-08,-0.000185391816624,0.493580389349,29.6255244557,0.62850844835,8.48146073353e-09,-0.000128680124271,0.0752870759539,29.6267158512,0.62845624892,1.17371499025e-08,3.46677162348e-05,0.281910385116,29.621795129,0.370560876548,1.82669757427e-05,0.00240678819412,-0.225521358428,10.3000039983,0.551445946133,5.14836760127e-05,0.00210612503978,0.289160386594,22.810757155,0.441943319221,4.20352460326e-05,-0.00512273733561,-0.321919302333,14.6516529135,0.592090409596,0.000148212200338,0.0131482367216,0.826677006997,26.303796688,0.459519172138,0.000135560613482,0.00339259875339,-0.860862027423,15.8468717026,0.539480375675,0.000247775357922,0.0179842556891,-0.0108687162263,21.8462660568,7
0.628497760557,1.47253038704e-08,1.07789508607e-05,0.408139516774,29.6257087165,0.628506185989,7.52903071661e-09,0.000113455759477,0.146327762084,29.6265024941,0.628460567985,1.21023444634e-08,-3.37959876917e-06,0.249434555876,29.6222023089,0.370551258921,1.82059108356e-05,-0.00316334216124,-0.21800078935,10.299464899,0.551441545223,5.07287443234e-05,0.00114126981322,0.29119055989,22.8103372619,0.442031346711,4.00336602139e-05,0.00167979982278,-0.3533438412,14.6573408515,0.592379905566,0.000139181842283,-0.00139016816869,0.838779227739,26.3288458952,0.459735503782,0.000129647609871,-0.00517945666875,-0.957485502837,15.861348931,0.53930795395,0.000237276970651,0.0181411395673,0.0108024104954,21.8315386854,7
0.628492037202,1.3926653706e-08,-2.27881416787e-05,0.528189385378,29.6251690926,0.628505627252,6.95749434523e-09,0.000159226690915,0.294863777239,29.6264497764,0.62845644659,1.20924647601e-08,0.000148413837836,0.31965671553,29.6218137894,0.370528436726,1.84997088179e-05,-0.00171212187762,-0.205005158869,10.2982181601,0.551520839908,5.31849595486e-05,0.0124823745759,0.221611734851,22.817078451,0.442079343096,4.4593029771e-05,0.0196425980968,-0.201067812285,14.6608608036,0.592094999479,0.000140873603013,0.00103406241106,0.891887424393,26.3036612772,0.45943925482,0.000130785424545,-0.0116648618044,-0.895548625656,15.8410102866,0.539976053275,0.000234207652984,0.0113999642943,-0.052035134486,21.8853917246,7
0.628493938698,1.57624655115e-08,-0.000120763047046,0.45186292648,29.6253484899,0.62850401691,7.58963322859e-09,-0.000204944500163,-0.298866412796,29.626298007,0.628451625259,1.92418938778e-08,-0.000440974637404,-0.42647254196,29.6213598207,0.37069377274,3.03218915693e-05,0.0215937554176,0.0740565456003,10.3082843061,0.551132281238,0.000124321630277,-0.0588526254173,-1.12087105326,22.7902091573,0.441473964892,0.000124606886155,-0.0507661970873,-0.608132395619,14.6266655354,0.593341415026,0.000428390070432,-0.0497251711312,2.18950354762,26.4357534741,0.461070303406,0.000263378593973,0.00688030492063,1.48827199999,15.9634268672,0.53700127366,0.000742761822318,-0.111279671083,-2.56033766658,21.6827419683,7
0.628497456556,1.6866184296e-08,0.000234650827601,0.415037375801,29.6256802154,0.628511088277,7.49416523656e-09,-2.41050735479e-05,-0.461195247605,29.6269646611,0.628458834265,2.16422304649e-08,-0.000310322988634,-0.382146068835,29.622039579,0.370605345017,3.29094782068e-05,0.0042942481516,0.0299652953399,10.303559433,0.551711464831,0.000192501219127,0.00786207202256,-0.255501384695,22.8431606222,0.442011610636,0.000149112759058,-0.0191260667187,-0.348224817878,14.6641041395,0.594387248702,0.000820277901292,0.0525154487033,1.07555213591,26.5579156712,0.461409436308,0.000694458026281,0.033862978759,-0.336868446871,16.0187899875,0.537549652533,0.00218102030837,-0.0577013429017,0.728571308956,21.8333676732,7
0.628493482143,1.83612394287e-08,-0.000137295760391,0.463699100408,29.6253056409,0.628506923399,6.9815147688e-09,-5.17649897838e-05,-0.498547514798,29.6265719737,0.628458417509,2.09225738252e-08,-9.60576833889e-05,-0.422851552413,29.6220002386,0.370520842654,3.44188821843e-05,0.0209038654506,-0.159876943625,10.2989741103,0.55130694748,0.000241210429493,-0.0251295069509,-0.0646216701127,22.8133008473,0.441987473498,0.000166230453272,-0.0081952132698,-0.202597034359,14.6637705582,0.592783222006,0.00100529486877,0.0413294364771,0.42991332784,26.4287879422,0.460368127644,0.000913991522737,0.0424571123337,-0.442464165822,15.963046344,0.538782129673,0.00271742217443,-0.0012120909517,0.733994064079,21.972552985,7
0.628498163483,1.73709440442e-08,-0.000282966477438,0.490633594274,29.6257468981,0.628509498496,6.0306042628e-09,-0.000168652840556,-0.483955608441,29.6268146737,0.628462384388,2.00216053594e-08,-0.000405116966131,-0.470592479306,29.6223741259,0.370485036638,3.03692433229e-05,-0.00336219632346,0.0574135083853,10.296684502,0.551534696885,0.000231820077008,-0.00583806436849,-0.135380710843,22.8314438258,0.442178369795,0.000171045428475,-0.0233712968818,-0.215143529377,14.6767856653,0.591937991105,0.00102950710426,0.0168592592154,0.451411079542,26.3554774242,0.459527159532,0.000962406113427,0.0527404439458,-0.347964995021,15.9086088285,0.540201267681,0.00275670059387,-0.0570348007015,0.686375776225,22.0903015642,7
0.628494903525,1.68816208892e-08,-1.15568029546e-05,0.445903373956,29.6254395311,0.628508140901,5.11218554009e-09,3.48708412197e-05,-0.938018039442,29.6266866167,0.628457943402,2.06601419226e-08,2.6915689552e-05,-0.435400593032,29.6219555257,0.370625221152,2.96183583415e-05,-0.00241747780984,-0.0296455243719,10.3044208501,0.551380789385,0.000230137493249,-0.00461568684918,-0.113381087483,22.8185882922,0.441891145237,0.000174041048903,-0.0117950260693,-0.145718802339,14.6579628555,0.592261213234,0.00103315757557,-0.0128001092491,0.42636904297,26.3844545132,0.459746667177,0.000969789341257,0.00803422470588,-0.36479519319,15.9242892598,0.539306424492,0.00274844312892,0.00538562694621,0.739857543419,22.0172412539,7
0.628496646857,1.63340721602e-08,-5.14521794153e-05,0.4169184694,29.625603842,0.628508117791,5.33891159267e-09,-1.78213363917e-05,-0.988895034369,29.6266844547,0.628459521346,2.15921636294e-08,5.23618895274e-05,-0.387716031444,29.6221043456,0.370548160113,2.92939627409e-05,0.000443844056207,0.0108758012608,10.3001131755,0.551418443011,0.000230789743049,0.00276400180967,-0.118209958303,22.821750888,0.44189504999,0.000171858448612,-0.00235309933466,-0.147399303376,14.6580601656,0.592311914796,0.00103799105456,-0.00417525475866,0.419425369158,26.3893166687,0.459704709079,0.00097306132463,0.00150283129387,-0.359379736428,15.9216380042,0.539465129664,0.00276069205095,-0.00461791876823,0.726134688297,22.030988171,7
0.628500301773,1.72619824951e-08,0.000118763836886,0.358203803529,29.6259484771,0.628510867158,5.65597755438e-09,-3.75121728953e-05,-0.995691061334,29.6269436787,0.628463361663,2.24498376959e-08,-1.42449780715e-05,-0.415247554417,29.6224664328,0.370636325331,2.91212106019e-05,0.00114906179966,-0.0341692266439,10.3050013937,0.551501201912,0.000229268120138,0.00812174219343,-0.137615273328,22.8284840192,0.441847045191,0.000179897878101,0.0124425485913,-0.125826689471,14.6554732938,0.59213832615,0.00103807013095,7.85593042697e-05,0.435847936823,26.3739019869,0.459576291246,0.000973566492239,-0.00918096787711,-0.346500765316,15.9128214811,0.539639556109,0.0027598958252,0.00166677210709,0.716235035053,22.0450460799,7
0.628497024444,1.87016180187e-08,0.000171596437521,0.385784811071,29.6256396141,0.628507596252,5.90091202565e-09,0.000114804470406,-0.830272671556,29.6266353277,0.628457941492,2.30674432453e-08,8.85241026154e-05,-0.420669823518,29.6219555238,0.370545884818,2.90370484814e-05,0.000613904926607,0.00615525822446,10.2999676983,0.55149554025,0.000229920345051,0.00904311301634,-0.135355295556,22.8280639242,0.441905887934,0.000176908022296,0.00656069972321,-0.13570739829,14.659152228,0.59217638589,0.00103844690147,0.00185431353697,0.432020663535,26.3773104711,0.45969738304,0.000972893219605,0.00226752696213,-0.358733754462,15.9211203963,0.53965597319,0.0027607998684,0.00118628628304,0.714875753992,22.0464418952,7
0.628499629729,2.10533632955e-08,-5.54322404824e-05,0.320600451415,29.6258854006,0.628510763162,6.56605501398e-09,-4.62366016407e-06,-0.417431218363,29.6269339416,0.628464224439,2.36761016284e-08,-3.43403668956e-06,-0.46488644237,29.622547857,0.370521046212,3.08019315863e-05,-0.00307683952755,0.00458415295762,10.2987177694,0.551496345832,0.000232101464578,-0.00242075628281,-0.138014894,22.8282919683,0.441997006868,0.000176118805628,0.00262952246592,-0.155926457425,14.6651343476,0.592216584173,0.00104335949014,-0.000763257801664,0.425027016593,26.381244795,0.459610184248,0.000975021663511,0.00140614726588,-0.349427153227,15.915265713,0.539508363848,0.00278889380788,-0.0112948090329,0.713832614086,22.0365737414,7
0.628496907884,2.07874884943e-08,-7.73075451036e-05,0.372258592381,29.6256287798,0.628505859371,6.35508185224e-09,-3.48311369828e-05,-0.319612544127,29.6264716151,0.62845810187,2.40953586002e-08,-8.43156431594e-05,-0.432120888389,29.6219707185,0.370552696494,3.15015918321e-05,-0.00290869725619,-0.0227829482552,10.3005286837,0.551480027957,0.000232503549424,-0.0125728838631,-0.134858544853,22.8269718553,0.441872436181,0.000177341493099,-0.00683709400958,-0.129209192144,14.6569670098,0.592176323184,0.00104374794869,-0.010377669374,0.428577099612,26.3776971787,0.459480492955,0.000975121737603,-0.00713587821552,-0.336646105807,15.906333264,0.539725447422,0.00279148632587,-0.00127034430119,0.700370999689,22.0543368827,7
0.628497760598,1.99479669906e-08,-0.000400169071323,0.364226680916,29.6257091069,0.628508325359,6.52693560877e-09,-0.000151323606383,-0.318282840528,29.6267041114,0.62845989076,2.4918017588e-08,-6.5373056503e-05,-0.60985830371,29.622139416,0.37056026771,3.14540002487e-05,-0.00804673334989,-0.0328291334099,10.3009459964,0.551508209055,0.000227595833712,0.0163314633139,-0.139139328332,22.8289399408,0.442084428609,0.000169602483357,0.0208222356357,-0.159729754499,14.6704487352,0.591693279766,0.00105284951376,0.0263483072818,0.460429085699,26.3354811631,0.459029877073,0.000996783770999,-0.0036773560454,-0.300862834929,15.8768941024,0.540350425593,0.00279740049586,-0.00186448685355,0.665795788425,22.1054013196,7
0.628495866157,2.15205614214e-08,0.000112092599989,-0.291435446504,29.6255306258,0.628507101698,6.20191387168e-09,-7.92580631808e-05,-0.580124862139,29.6265887253,0.628460796806,1.9758779687e-08,-0.000296172394577,-0.201665906254,29.6222244463,0.370463591476,3.13715052284e-05,0.0178871496465,-0.296434836879,10.2955669371,0.552284323368,0.00020548876732,-0.0381888834648,0.757695131642,22.8915542066,0.442448590177,0.000149022792398,-0.0330254377634,0.301628630656,14.6930843079,0.59287955149,0.000773981013224,0.0548154674822,0.211315015176,26.4202367881,0.460453052737,0.00084034189525,0.0833774324216,-0.0496376101667,15.9634613334,0.538336977204,0.00216477231454,-0.217309004283,0.238469022723,21.8956957282,7
0.628496729796,2.21530539924e-08,0.000144170563569,-0.254054990372,29.6256120916,0.628508592413,6.85922654686e-09,-8.24843459561e-05,-0.444172833548,29.6267293129,0.628463748874,1.96152396242e-08,0.000111140393837,-0.150687619132,29.6225027251,0.370560298203,3.17438916532e-05,0.00833899818432,-0.326814174175,10.3009691433,0.551814596017,0.000219767610566,-0.0193012642091,0.121129096858,22.8537139315,0.442190658227,0.000160248564285,-0.00454261172155,0.0894609026615,14.6768017605,0.591720466452,0.000438479760553,0.0136886219456,-0.294661760929,26.2924307837,0.459016266172,0.000697062658105,-0.0120217023314,-0.414578621091,15.8537775825,0.541121724681,0.00180306380776,-0.0499255986422,0.455527959707,22.0943807909,7
0.628500347989,2.04580211117e-08,-9.50824095635e-05,-0.426031821508,29.6259530705,0.62850887575,7.15219061216e-09,6.48783824974e-05,-0.471157418799,29.6267560465,0.628461420163,2.0526938796e-08,8.96728921408e-05,-0.147182333621,29.6222832665,0.370612089318,3.38453558343e-05,0.00837073450643,-0.336722281418,10.3040036125,0.551300301853,0.000233190481202,0.0132828175269,-0.042273875194,22.8121578073,0.441807068755,0.00015548734146,-0.0188249725326,0.0595931458969,14.6510175134,0.591391050592,0.000465846235984,-0.0138499153405,-0.2453291601,26.2652257255,0.459914008473,0.000629177805736,0.0115798114593,-0.464399240775,15.9106262968,0.54096240798,0.00178052262793,0.0572946108438,-0.231579301454,22.079783188,7
0.62849260711,2.04368917696e-08,-0.000183325398066,-0.358300212636,29.6252233017,0.628505681608,7.66999417241e-09,-4.28074866174e-05,-0.350327389674,29.6264549536,0.628458297436,1.99705516376e-08,-0.000282748727562,-0.111984757846,29.6219888491,0.370483858447,3.22072638688e-05,0.000624526379596,-0.190435615703,10.2967550402,0.551394804343,0.000222007191375,0.0045374811701,-0.0521730955995,22.8191458014,0.442269806764,0.000158827065471,0.00461427243164,0.0494892067912,14.681946851,0.592074562884,0.000430820190047,0.0123634152683,-0.25590104441,26.3233022952,0.4595679024,0.000675468322992,0.0320066926006,-0.605410779794,15.8901839246,0.539770721081,0.00168812914684,0.0276322608184,-0.268251517434,21.9763539071,7
0.628494228962,2.05642453124e-08,-5.46686869878e-05,-0.284516580912,29.6253762096,0.628506826588,7.78151807341e-09,-4.32274261748e-05,-0.341748297336,29.6265629059,0.628454479651,1.7007071061e-08,3.27318940893e-05,-0.0976318333809,29.6216287331,0.370478994507,3.20812717542e-05,-0.00384589381821,-0.182348664002,10.2964754169,0.551496109266,0.000220916456404,-0.00667569065102,-0.0749722441816,22.8274447079,0.442001957874,0.000160132626421,0.00109201706084,0.0653639703033,14.6642796217,0.592398517865,0.000433933563707,0.0140200701324,-0.298434321919,26.3523113814,0.45953591778,0.000700913413206,0.00628283994228,-0.593357827399,15.8898620723,0.539072110839,0.00169126553389,-0.0183337701705,-0.218194207838,21.9200592008,7
0.628491226572,2.31979398017e-08,-2.43243592954e-05,-0.294076647793,29.6250933575,0.628506497243,7.96544659323e-09,0.000229239313542,-0.247423789546,29.6265318702,0.628459653698,2.07886286367e-08,0.000442545631697,-0.0901646745495,29.6221167628,0.370519958534,3.33104834482e-05,0.00185184716858,-0.198451474827,10.2988429512,0.551396124023,0.000222821382571,-0.00793541359645,-0.0581995130119,22.8193152014,0.441861530475,0.00015899465854,-0.0189829621815,0.0913503523021,14.6548865133,0.592277416115,0.000433927451289,0.00398327824509,-0.285405604171,26.3415509543,0.459793488126,0.000705617407538,0.000921853709192,-0.614723159102,15.9079695674,0.539411850183,0.00170073049533,-0.00920604302307,-0.239759506018,21.9482398655,7
0.628499179895,2.23150951836e-08,-9.25744091069e-05,-0.418086141532,29.625843086,0.628508504232,7.65944177355e-09,-5.53025115494e-05,-0.280765165967,29.6267210587,0.628463260678,2.04882293802e-08,-0.000190824993038,-0.061394365217,29.6224567678,0.370576909233,3.37402570565e-05,-0.000225272153256,-0.223327745297,10.3020402033,0.55146494803,0.000223289150924,-0.000435699762245,-0.0691807947818,22.8250425651,0.442082631894,0.000153464169739,-0.00544656987598,0.0527950782618,14.6691353552,0.592228231016,0.000435509360148,-0.00611748712573,-0.277190005693,26.3372985136,0.459597694522,0.000706286072179,0.004231508966,-0.59136455013,15.8945182301,0.539487385771,0.00170488203067,0.0111835653691,-0.243816990259,21.9546592257,7
0.628501847002,2.05241201909e-08,0.000331517188739,-0.418364748099,29.6260943952,0.628511294577,7.6758785265e-09,0.000110700916424,-0.353753337571,29.6269841238,0.628464277254,2.26041526523e-08,0.000191164426665,-0.342976345748,29.6225527565,0.370435655662,3.32016363494e-05,0.0017861234912,-0.190918562075,10.294150045,0.551372674505,0.000223481777046,0.00622107917018,-0.0514490520003,22.8174246158,0.441903892665,0.000154740271884,-0.00376535357726,0.0927206946957,14.6573795565,0.592045903984,0.000434861891544,0.00975638649811,-0.251393481976,26.3210562118,0.459780915395,0.00070576417655,0.0121543575236,-0.612475886606,15.9071133112,0.540027125034,0.00170208095927,-0.0241155754847,-0.283050423626,21.9981511739,7
0.628493781035,1.91605020479e-08,0.00013959876388,-0.475313640466,29.6253338779,0.628505069329,6.9809598705e-09,9.89948805156e-05,-0.526649817053,29.6263971795,0.628460321384,2.26983166301e-08,0.000178467990203,-0.328397225513,29.6221798462,0.370589975443,3.20575613086e-05,-0.00154177999763,-0.239543406662,10.302642002,0.551386534017,0.000221889466865,-0.00100555318914,-0.0492488263038,22.8184530627,0.441922405004,0.000156208437972,-0.00683790355362,0.0873484006609,14.6587153278,0.592182020445,0.000430633385396,-0.00447149576201,-0.274429350514,26.3328327709,0.459532151318,0.00070811863529,-0.00287265033836,-0.58134131316,15.8901356362,0.53979710903,0.00168115428169,0.00215214097033,-0.27444410125,21.9779743356,7
0.628501162994,2.04597097588e-08,2.26427578526e-05,-0.464965799766,29.6260299053,0.628509075959,6.93149901505e-09,5.39664740812e-05,-0.628133139061,29.6267749052,0.628460606408,2.41441588186e-08,0.000350189670465,-0.277613704541,29.6222068222,0.370651876316,3.2582704809e-05,-0.00393310784216,-0.235375956238,10.3061221264,0.551439761005,0.000225234261871,0.00118907249091,-0.0641721230907,22.8231030867,0.441776418355,0.000156164087213,-0.00738898497479,0.126331241169,14.6490364286,0.592164977548,0.000435918805447,-0.0234708657908,-0.266866381609,26.3317100392,0.459738879264,0.000713937437532,-0.0228030331972,-0.597622933209,15.9048191534,0.539878442173,0.00169862399444,0.0329065841643,-0.273684017516,21.9858530999,7
0.628496944792,2.26696349813e-08,-4.59466417796e-05,-0.446257617449,29.6256323986,0.628507620998,7.34769528013e-09,3.92154976888e-05,-0.576808437999,29.6266377677,0.628461543135,2.31670355915e-08,0.000505038888037,-0.228443384788,29.6222950543,0.370555417248,3.36359394916e-05,-0.0202364608672,-0.130502548617,10.3008378534,0.551198201456,0.000229003393015,0.0373597358619,-0.0486037942128,22.8034055477,0.441857461608,0.00016949366071,0.0564554123525,0.0502675743458,14.6553937593,0.591345164549,0.000364554283063,-0.00619400417578,-0.799557354897,26.2536597896,0.458831514155,0.000685453000131,-0.03673090546,-0.686498551977,15.8402004006,0.539969049972,0.00169513829431,0.093317750063,-0.254329463863,21.9929333534,7
0.628497254975,1.76694782023e-08,-0.000153783339186,-0.0184037184548,29.6256612709,0.62851027749,5.77663063824e-09,-0.000203131549025,0.0435888125168,29.6268880958,0.628457923426,2.64383947552e-08,-0.000429642729656,-0.436438893946,29.6219540702,0.370623483726,2.29801426155e-05,-0.00561900768946,-0.0443520833625,10.3038330322,0.551872083967,0.000120016111982,-0.0398890480752,0.00699694590166,22.8510909719,0.442148676675,0.000106205991181,-0.0142313076997,0.231742703209,14.6700181648,0.592002541215,0.000277934030064,-0.0356020846191,-0.397075662897,26.3055927786,0.459336608827,0.000545133621541,0.0168781665729,-0.693839894947,15.8645989036,0.540336062641,0.00091195172099,-0.0875949869924,-0.629979583745,21.9647139716,7
0.628497272687,1.78409328719e-08,0.000346531220406,-0.0340205587615,29.6256629533,0.628509330776,5.32794264497e-09,0.000276542477375,0.0365685076292,29.6267988097,0.628457762371,2.61641479886e-08,4.3739717725e-05,-0.357061519199,29.6219388675,0.37064610527,1.9016303009e-05,0.00315005543024,0.256331866156,10.3047973578,0.550627684964,7.04642999886e-05,0.0190451004471,-1.36230894285,22.7445279169,0.441461805412,9.64936319535e-05,-0.0047141115429,0.0583591937951,14.6237799516,0.592740626081,0.000183702645117,-0.0679173746943,-0.0969543351607,26.3642027313,0.460665076089,0.000373125238079,-0.0595139044794,-0.347799725453,15.9435346923,0.538502755943,0.000567778672827,0.124874657065,-1.81997326381,21.7909069836,7
0.628492168595,1.74578901181e-08,0.000241240444212,0.0109774724672,29.6251817408,0.628505865931,4.95767102562e-09,0.000103632093085,0.21966843531,29.6264721301,0.628457366707,2.8445470919e-08,-0.000113316605024,-0.256837074302,29.6219017376,0.370511352687,1.43715887953e-05,-0.000392326420311,0.14888111808,10.2969631828,0.551484694786,5.1630489991e-05,-0.000355630027452,0.474172577835,22.8139733,0.442164041891,8.28996919238e-05,-0.015881322663,-0.109777042593,14.6693125728,0.592833442633,8.90845915113e-05,0.00402312266136,-0.49721811689,26.3654540626,0.460489321568,0.000244961497896,0.0176384164366,-0.0899175499994,15.9219082967,0.538966825732,0.000288164336951,0.0292623186525,0.0441001303304,21.8077171039,7
0.628493649111,1.70193209249e-08,-1.03726409106e-06,0.0474040901126,29.6253212824,0.628508413291,4.49716045825e-09,-0.00014152513578,0.237219628862,29.6267122511,0.628457785121,3.28905456936e-08,0.000318635165323,-0.251977634443,29.6219415098,0.370521107278,1.39035593089e-05,-0.00163299081743,0.173901409682,10.2974706838,0.551540610434,5.60310061691e-05,0.00580286264278,0.391802146321,22.8189246663,0.442066877526,7.5152920871e-05,-0.00513631156703,-0.0802367424435,14.6622956316,0.591824834159,9.46776214107e-05,0.0237349231342,-0.541014273383,26.2762537185,0.458912452046,0.000211567625029,0.0276152429987,-0.066368467394,15.8107039025,0.540013204252,0.000311173114114,-0.0136634575393,0.270741554385,21.8940963679,7
0.62849742439,1.71681716027e-08,3.22406663683e-05,-0.019201594592,29.6256772053,0.628509552337,4.40229950126e-09,6.19890644461e-05,0.110017783462,29.6268196292,0.628453879412,3.44775362595e-08,7.88378699362e-05,-0.320491886618,29.6215734425,0.370541940336,1.29846438007e-05,0.00159691167015,0.141663156987,10.2985605797,0.551432381249,5.52581222402e-05,0.00124505085907,0.442580075161,22.8099144328,0.442004407181,7.38708366835e-05,0.00174193842818,-0.0736295591411,14.6580586395,0.592059169253,8.86128889556e-05,0.00757554814385,-0.652193692805,26.296611846,0.459550069326,0.000182030963404,0.00301426667502,0.0574145292207,15.8524402576,0.539741034137,0.000299917021178,-0.00848446043238,0.335228879646,21.8712226544,7
0.628495023762,1.59299004058e-08,-0.00022259353616,0.0351412005227,29.6254507958,0.628508756184,4.33407518064e-09,-4.70144258545e-05,0.0575780025277,29.6267445657,0.628459813052,3.50377944943e-08,0.000104500019818,-0.420171721711,29.6221328394,0.370603032756,1.65540077681e-05,-0.00925204641572,0.409561478862,10.3022205882,0.551503755154,5.68884578777e-05,-0.0157926555776,0.425099475041,22.8159391421,0.442172348488,0.000105564337871,0.0193413917449,-0.0687235134541,14.6715406936,0.592058627308,8.76748388552e-05,-0.00291352181817,-0.661782246324,26.2964943008,0.458879673385,0.000251291472756,-0.0440427386626,-0.359617871819,15.8113871675,0.539087887406,0.000349739272189,-0.0442463964917,0.26664251234,21.8220619822,7
0.628496052838,1.69031787608e-08,9.43846091012e-05,0.0747316910412,29.6255478833,0.628507824017,4.12801271622e-09,0.00014116577108,0.112505877674,29.6266566693,0.628452590242,3.78720694484e-08,0.000255335648789,-0.222069339786,29.6214521662,0.370751427314,2.9157735757e-05,0.0229446418729,1.39436265079,10.3114042366,0.551265543378,7.41858526117e-05,-0.0292353678151,-0.0178514609402,22.7975172018,0.44172953643,0.000152503997799,-0.035081547564,-0.208259795461,14.6456590474,0.592826458252,0.000215619420408,-0.0578310170324,0.571023799327,26.3741965574,0.460215050569,0.000315463551574,-0.0258472502772,-0.170529232892,15.9081862606,0.538608881527,0.00050970659528,0.0179739856479,-0.151333367538,21.7951828325,7
0.628493982142,1.76064212871e-08,-0.000259874221956,-0.0832681829569,29.625352722,0.628507667425,4.22680831193e-09,-0.000206304985369,-0.0975994327153,29.6266419136,0.628458724819,3.86621954241e-08,-0.000217901916699,-0.0366637238297,29.6220305211,0.370734728604,5.00126374788e-05,0.00598863693452,0.20846367259,10.3120188597,0.551297009314,0.000122154707781,0.000103957665151,0.734345393691,22.8036688843,0.441710508001,0.000176160398959,-0.0242023932068,-0.149969085132,14.6461488354,0.592815007789,0.000441619527989,-0.011362545468,-0.780111372939,26.3899023546,0.460575292489,0.000571266811315,-0.00218421743249,-0.168383507448,15.9519937479,0.539672952205,0.00100684175788,0.0541184404306,-0.283268621329,21.9180234407,7
0.628502831095,2.05953452286e-08,-6.82949454688e-05,-0.142987217389,29.6261871762,0.628510783366,4.67293625267e-09,3.72667380011e-05,-0.00605185649408,29.6269357064,0.628462394978,4.28060437258e-08,0.000150022989502,-0.0236942662023,29.6223768103,0.370698673177,5.39498992351e-05,0.00293269949596,0.149942320822,10.3103052647,0.551379658736,0.000129472172648,0.0149480078734,0.643156961913,22.8110455459,0.442032461897,0.000176602143426,-0.00390885632148,-0.217267850643,14.6675208615,0.591934147068,0.000466857923358,0.00599315596674,-0.678486247017,26.3135000712,0.459482616043,0.000607165491959,0.00760534966596,-0.0985234578495,15.8792508298,0.539832609762,0.00110837619427,0.0483947446271,-0.22471634828,21.9384633305,7
0.628501166345,2.06769210134e-08,0.000384501552768,-0.230148099473,29.6260302373,0.628509820606,5.50348835549e-09,0.000312713580094,0.115844299233,29.6268450021,0.628461799116,4.44453512512e-08,-8.70074335667e-05,-0.0430543838067,29.62232076,0.370625119646,5.36856767187e-05,-0.00876838308121,0.16658748543,10.3061961885,0.551177457292,0.000135403766131,-0.00893321466577,0.621927178012,22.7947640857,0.441566543946,0.0001770860076,0.0100217501777,-0.189123547968,14.6366803195,0.592163652969,0.000475525564965,-0.034049782404,-0.688136661219,26.3345232841,0.459669199615,0.000620602741825,-0.0571260362127,-0.119539673039,15.8931075835,0.539007007543,0.00112304595554,0.0563522128148,-0.171918945062,21.8727469643,7
0.628491483368,2.00249641747e-08,0.000212278627442,-0.102366806223,29.6251173318,0.62850591337,5.39629153154e-09,-4.51928070734e-05,0.210701059817,29.6264766349,0.628459709307,4.25178217364e-08,5.82217504634e-05,0.0794130679506,29.622123613,0.370533216842,5.19179540447e-05,-0.0142005207324,0.18710684795,10.3009567873,0.551649668768,0.000141129248379,-0.00295024426389,0.530139012459,22.8342453432,0.442104584857,0.000169937535245,0.0143878407489,-0.221028676035,14.6718101739,0.59170364376,0.000475342619513,0.00468224173107,-0.629529932469,26.2936655067,0.458667349403,0.000585230392564,0.0187900382545,-0.0887561338557,15.8214873547,0.540042218157,0.00118195072834,-0.0436258698556,-0.143245914152,21.9608841583,7
0.628495237671,2.02793603484e-08,-0.000124299942594,-0.13565663703,29.6254712838,0.62850866453,5.38370421007e-09,9.40065494786e-05,0.119012260336,29.6267360026,0.628456130994,4.06853526322e-08,-9.32885044308e-05,0.0683102776415,29.6217861545,0.370600316607,5.13234431818e-05,0.00211616591025,0.166320274515,10.304642535,0.551495334319,0.000139193431329,-0.018466367204,0.575519435827,22.8213330971,0.442108635857,0.000169948791411,-0.0152761384247,-0.22249074278,14.672079653,0.592269243664,0.000491428473736,0.02694694644,-0.64642188567,26.3450799813,0.459759784691,0.000588045909058,0.0167443229196,-0.168446084802,15.8969448687,0.539635056412,0.00119672417982,-0.0145324036055,-0.118117393255,21.9290071475,7
0.628496608863,2.14544243653e-08,-6.08752817012e-05,-0.0955528887897,29.6256006391,0.628505517249,6.21608061126e-09,-0.000258704015554,-0.0997739721844,29.626439351,0.628457470795,4.40046969194e-08,-0.000527890778801,-0.077138480818,29.6219127012,0.37056137351,5.4008871444e-05,0.0121547354556,0.117197740724,10.3026765218,0.551348689388,0.000125786708256,-0.0241399530822,0.552209943578,22.8082115132,0.441750408667,0.000154073343082,-0.02612683217,-0.189960567573,14.6471581942,0.592882616622,0.000481251904581,-0.00764700943396,-0.701463206061,26.3988474229,0.460596168432,0.00059408314966,0.000745101529524,-0.183090083168,15.9551244311,0.538330632123,0.00116394509474,0.00224755277269,-0.0924564120996,21.8211221481,7
0.628497844753,2.04625688854e-08,0.00016283174859,-0.183973050069,29.6257170787,0.628509085567,6.17479129135e-09,-5.42680132235e-05,-0.206758185143,29.626775755,0.628462252275,4.26281766005e-08,0.000100292501758,-0.116233210581,29.6223633446,0.370548883823,5.65503082055e-05,-0.00324259081082,0.117650830886,10.3021703705,0.551505633943,0.000134078504671,0.0180910709029,0.414775573138,22.8218066297,0.441932475791,0.000190157919533,0.0168889017923,-0.289299880619,14.6618951729,0.591850244655,0.000488911834827,0.00718970052538,-0.553264951909,26.3076828831,0.459021509384,0.000714150030088,-0.043886149165,-0.0851828010524,15.855403058,0.540401565217,0.00126782149725,0.0294442503495,-0.240491166235,21.9963576674,7
0.628491800896,2.11031148315e-08,-8.1610936144e-05,-0.114967723448,29.6251473461,0.628506766626,6.70956675166e-09,-4.02505713715e-06,-0.199289052848,29.6265571736,0.628458767549,4.45369903243e-08,0.000252319987203,-0.035906007167,29.622034984,0.370584674306,5.69809061095e-05,-0.00139604436593,0.104651956582,10.3041916494,0.55139043543,0.000132537856184,0.00609691345425,0.443546863375,22.8121637226,0.441917182746,0.000200163851178,0.00181865654089,-0.274971460005,14.6616218554,0.592080842774,0.000482651976572,-0.0102218485018,-0.575436536157,26.3276955747,0.459433930556,0.000742530048261,-0.00636394117762,-0.0893816018149,15.8859124646,0.53976046697,0.00123844459055,0.0296390817857,-0.225540850032,21.9422470275,7
0.628495741643,2.22704595244e-08,1.26458578431e-06,-0.0132429466102,29.6255189428,0.628508864675,6.75046622172e-09,6.99129187293e-05,-0.212687897392,29.6267549727,0.628455797054,4.55128473263e-08,-0.000393588070979,-0.111112642035,29.6217550317,0.370599972947,5.66506098679e-05,0.0051258699084,0.108788418158,10.3050176412,0.551603263219,0.000133736354257,0.0026445794749,0.385170737624,22.8298584898,0.442146683124,0.000199413000191,-0.024934216486,-0.317417640016,14.6767832668,0.592076784977,0.000485033450652,0.00982985624196,-0.570602899594,26.3275114235,0.45958169783,0.000745095641355,0.0158125401647,-0.105295480167,15.896287351,0.539886223194,0.00124697234796,-0.0232456203921,-0.233060555269,21.9530610033,7
0.628493021,2.09228067473e-08,-0.00014747910942,0.00171096024787,29.6252623567,0.628506597672,6.84676071187e-09,-2.0322023645e-05,-0.214092343696,29.6265412555,0.628455181943,4.54625040015e-08,0.000536886216083,-0.0523750340939,29.6216970425,0.370710208075,5.25660729549e-05,-0.00240751928318,0.0392062267633,10.3108442672,0.551652531126,0.000126060465311,-0.0118329180885,0.460246129139,22.8333671068,0.441809080136,0.000162215787657,0.0316080417807,-0.400149736441,14.6516487151,0.592546503672,0.000486549402845,0.0103389029223,-0.629822352877,26.3693565819,0.459774559624,0.000657567488708,-0.0156750526222,-0.0867960572667,15.90310842,0.539465577933,0.00118697057968,-0.06445899334,-0.214801992294,21.914569056,7
0.628498167365,2.1381266225e-08,-0.000244868681126,-0.0539034516459,29.6257475608,0.628509647099,7.1702146212e-09,-8.22332418505e-05,-0.232735379045,29.6268287678,0.62845593586,4.79639110619e-08,-0.00082085240802,-0.195672374968,29.6217682982,0.370739709759,3.07083651444e-05,-0.00172407389958,0.678152407999,10.3108673484,0.551601531633,9.37830590438e-05,-0.0436469507374,0.70928508273,22.8267586738,0.441691784632,0.000117656764228,-0.0309137649711,-0.481792763792,14.6405790464,0.593516235214,0.000215699884351,-0.00280168026226,0.805736407444,26.4355759011,0.461263523733,0.000499168422646,0.0245068013406,0.415550494863,15.9942413378,0.538138641082,0.000846358610506,-0.038336817985,-0.803083114219,21.7821203141,7
0.62850421302,2.00101189551e-08,-0.000233797233811,0.0298651273753,29.6263174145,0.62851197219,7.02956490823e-09,-0.00015364864887,-0.0699379230073,29.6270479592,0.628466781143,4.31703713969e-08,-0.000292768960995,-0.251709290686,29.6227903196,0.370616334184,2.00750768254e-05,0.00238239770581,-0.388299620456,10.303220593,0.551146838483,6.56898475538e-05,-0.0152343928997,-0.17791708909,22.7870738665,0.442013669403,0.000112889593816,-0.00930691740995,-0.380044310377,14.6615601254,0.592290356568,0.000137271190204,-0.0119277963077,0.328123465253,26.3207480543,0.460006154458,0.000392152023939,0.0183760061735,-0.136925108159,15.8994439102,0.538796879671,0.000553314554461,0.0301795743314,0.173715939322,21.8136010928,7
0.628498146582,1.94918556058e-08,0.0004908593132,-0.0454438632441,29.6257454617,0.628508321949,6.47496958629e-09,8.93630668712e-05,-0.0586640874839,29.6267037861,0.628455137855,4.94704009592e-08,-0.000398126403381,-0.377604804546,29.621693183,0.370958562252,0.000479665151894,0.128491059164,1.71175557081,10.3562643393,0.552244474087,0.00029836739427,-0.0422567598787,3.10738995897,22.8951261241,0.441658506306,0.000449693253866,-0.107449559578,-0.795727205548,14.6629450152,0.595144043075,0.00174782525017,-0.0385089417352,4.30071319661,26.6940714691,0.461510470247,0.00095073976659,0.0638727622799,1.72544349084,16.0447483038,0.535257274542,0.00186349269479,-0.26725846446,-2.97710388837,21.6254247057,7
0.628493952993,2.19595616402e-08,0.000104305290293,-0.300715296977,29.6253502962,0.628504228947,6.08459884986e-09,1.40244770729e-05,-0.230310157355,29.6263178856,0.62845662998,5.06791163183e-08,0.000388209236504,-0.283251743678,29.6218339327,0.370703264093,0.000660049798435,-0.00588490946289,0.819351279519,10.3554119358,0.550779862845,0.00112451587789,-0.044217856272,-1.54643631381,22.8350984736,0.441471971963,0.000552436435881,-0.0171475170745,-0.599249784421,14.6581929484,0.593856974887,0.00290931104511,0.124696938806,1.55203259923,26.665247014,0.461216709364,0.0021422515564,0.0218337834796,-0.382944259694,16.1125905899,0.536785104424,0.00947206377474,-0.0519169637608,1.66758735001,22.3113013442,7
0.62849625103,2.17366326325e-08,-9.76628127761e-05,-0.333201409884,29.6255669254,0.628510092293,6.2335138754e-09,-9.75231627064e-05,-0.152226593426,29.6268706698,0.628462129672,5.06345939127e-08,-8.20293493691e-05,-0.333829667049,29.6223523793,0.370606463042,0.000659986710121,-0.0113024480968,0.830971364773,10.3500253002,0.551464040512,0.00113906188459,0.00213423162076,-1.56824711164,22.8927346778,0.441878353361,0.000554298527273,0.0176118933276,-0.644336868226,14.6852540287,0.591316958655,0.0030010770621,-0.00306511793466,1.58832835579,26.446260622,0.458943111644,0.00217219822429,-0.0092047429595,-0.257484941057,15.957901148,0.540726030744,0.00960361421546,0.00905282960345,1.52624955889,22.6395154763,7
0.628495417183,2.1429997545e-08,3.68723190339e-05,-0.311398869774,29.6254882923,0.628505989789,6.63417722512e-09,7.06049914612e-06,-0.0659908827593,29.626483931,0.628456574234,5.25120443964e-08,-0.00030050811872,-0.26946924297,29.6218288132,0.37052845103,0.000660621754426,0.0160610112179,0.838680555458,10.3457359865,0.55148801772,0.00114327280068,0.00451531535018,-1.56256174952,22.8950297139,0.442016740779,0.000553783398474,-0.00279014353169,-0.66270034823,14.6943899062,0.59220939123,0.00301261489465,-0.00269255801123,1.53153474711,26.5263307318,0.459740044139,0.00218023426694,0.00216853874419,-0.304133716172,16.0134054496,0.539213330486,0.00964382660506,-0.000361977214033,1.56213335821,22.5199693518,7
0.628500999663,2.0803936247e-08,-5.85217220522e-05,-0.384678364374,29.6260145328,0.628510350425,6.0578093168e-09,-0.000110844086802,0.0873777935293,29.6268949927,0.628464104424,5.26472448295e-08,0.000269726888661,-0.205340506595,29.6225386871,0.370580304024,0.00065702048589,0.0126650582498,0.840679197248,10.3483516457,0.551459744117,0.00113858788878,-0.0173910027582,-1.56986520855,22.8923442074,0.441956032543,0.000543093824591,-0.0288034902116,-0.673872926455,14.6895740456,0.592322314012,0.00299432964584,-0.00715678504901,1.53928304063,26.5350096695,0.459983228878,0.00211562837845,0.0129843902206,-0.332728196048,16.0253993137,0.539132760317,0.00959279967412,-0.0144253849354,1.57671312538,22.5096771694,7
0.628494606508,2.22010460409e-08,0.000379965550703,-0.201395987179,29.6254119236,0.6285077388,6.18348874328e-09,3.53967245661e-05,0.177390276266,29.6266487874,0.628454951763,5.59560392369e-08,-0.000151810617747,-0.20098732085,29.6216761204,0.37059762506,0.000654074781628,-0.00036196618928,0.844129373069,10.3490965113,0.551433310198,0.00112557967712,0.00132475880613,-1.59281570719,22.8891950658,0.441764859327,0.000503737929188,0.00682412937925,-0.704436208755,14.673990927,0.592469182118,0.00298337427498,-0.0230114392825,1.53906615345,26.5472495783,0.459803350117,0.00200380371149,-0.0343323799827,-0.342180208884,16.0047155331,0.539392449494,0.0094906327028,0.0129513293467,1.59639510396,22.5231229128,7
0.628494227394,2.08871240258e-08,-0.000493020478185,-0.275076363915,29.6253760857,0.628507525878,7.15174815597e-09,-0.00035840963626,-0.0253217444792,29.6266287856,0.628465638342,5.33473036995e-08,-4.81686472582e-05,-0.351215039621,29.622683341,0.370630922719,0.00065411860601,0.00185736210132,0.839958337915,10.3509508425,0.551523543866,0.00112456439523,0.00865964491633,-1.60316817059,22.8965842231,0.442014644078,0.000496605503421,-0.00269540907547,-0.74270144285,14.6900197257,0.592150328567,0.00297605614546,-0.00490603546292,1.56214714155,26.5183790264,0.459598615205,0.00198218749803,-0.00168972860732,-0.336583643664,15.9889984072,0.539569120658,0.00947440884162,0.00966549683611,1.5948766999,22.5362189518,7
0.628500308994,1.93662014566e-08,6.78574046868e-05,-0.416242315382,29.6259493136,0.628511967006,7.25696964017e-09,3.72849837437e-05,0.0359645336369,29.6270474873,0.628462227875,5.42327778751e-08,0.000160136866878,-0.235617722005,29.6223619031,0.370532958276,0.000654352359609,0.000554824582329,0.851255107124,10.3455225623,0.551464407602,0.00112364060725,0.000167347643167,-1.59992081331,22.8916238689,0.441963065916,0.000495260665127,0.00597959013494,-0.738525643095,14.6865006618,0.592040308782,0.00297156909006,0.010430624445,1.57181375401,26.5082756544,0.459409196094,0.00197633490859,0.00419754076631,-0.32543603283,15.9755094924,0.539951405188,0.00945351006644,-0.0274426880649,1.5882519031,22.5656237423,7
0.628495795179,1.87647636975e-08,-0.000189164979164,-0.384842780606,29.6255237305,0.628511415861,1.0937728048e-08,-0.000170339174181,0.566150505572,29.6269957995,0.628459499912,5.29875260994e-08,0.000169526345379,-0.263587242457,29.6221046483,0.370542479334,0.000654392930204,-0.0020290396058,0.850033045421,10.3460547511,0.551486038117,0.0011230964989,-0.00612886406963,-1.60315943752,22.8933729088,0.441904568958,0.000493621918889,0.00138311940636,-0.735501371038,14.6825016269,0.592142175645,0.00296731382926,0.00352543611005,1.56952248432,26.5170079367,0.459640629183,0.00196968355067,0.00153069349556,-0.342838907367,15.9909696825,0.539678311781,0.00942953310234,-0.00406040763777,1.60257628659,22.5417364651,7
0.628500521823,1.81143326247e-08,-0.000209883970836,-0.452848083134,29.6259692854,0.628512555539,1.51739146074e-08,0.000334556814556,0.524204238729,29.6271035581,0.628461666548,4.9030014166e-08,0.000117396017465,-0.208259391819,29.6223086022,0.370581153359,0.000653352971662,0.00274483113896,0.847432639649,10.3481274618,0.551494672689,0.00112175355905,6.15348677981e-05,-1.60688531774,22.8939878137,0.441982967857,0.000485897443109,-0.0151464715724,-0.757705180215,14.6871272015,0.5923127485,0.00296061330772,0.0078543092788,1.56540485853,26.5316647875,0.460031448002,0.00193341445644,0.0120581188243,-0.37130450867,16.0152426561,0.539423123415,0.00941594397239,-0.00245575295882,1.61397629121,22.5200778096,7
0.628498544482,1.56688132542e-08,-0.000185213942269,-0.440762949581,29.6257826907,0.628510428715,1.6082901961e-08,-0.000233831197279,0.485837128658,29.6269031154,0.628455645579,5.16937334301e-08,0.000232534297589,-0.142580280792,29.6217412098,0.370789735313,0.00065011266661,-0.0163395340496,0.831378783568,10.3594854233,0.551257852598,0.00111140991616,0.0207250197607,-1.60982147924,22.8736358376,0.441961060085,0.000477398616069,0.0358446755831,-0.773275594683,14.685045895,0.591993055633,0.00294383127876,0.0755498904754,1.59478689718,26.5020268585,0.459508166596,0.00190171671581,0.0451962519914,-0.350559561299,15.9768086746,0.53968962538,0.00939934852181,-0.0749989405453,1.61002268813,22.5404186713,7
0.628494124454,1.33992308036e-08,0.000488459658439,-0.646100795402,29.625365827,0.628511997541,2.49178567181e-08,0.000126918822077,-0.540612709062,29.6270516728,0.628463231176,4.47459386761e-08,4.12983548781e-06,-0.0355741146757,29.6224557817,0.370832327012,0.000100103852268,-0.0516527742517,1.66843838317,10.3211537919,0.552872230937,0.000387669129736,-0.121032938904,1.97839164662,22.9537652962,0.442274342096,9.32252078509e-05,-0.0226851009645,-0.489584690937,14.6773931911,0.593474805789,0.00062130066749,0.0585930864461,2.75962427289,26.4619021324,0.459830020247,0.00100832331112,0.184078125543,-1.22117979221,15.932889489,0.539610108722,0.00543255004203,-0.454200473852,1.74092979312,22.2404389107,7
0.628492599517,1.02033117307e-08,-0.000108623596935,0.167797176534,29.6252218286,0.628504255013,2.51340242997e-08,-0.000114588271454,-0.406753477265,29.6263217526,0.628457952729,4.27528695366e-08,-4.56393520232e-06,-0.114840104917,29.6219580399,0.370572942728,7.87219127393e-06,0.00088092118376,-0.0278113447599,10.2999054833,0.551796958533,2.59049954465e-05,-0.0149604886054,0.132373373104,22.8379082281,0.441995915924,2.10715992329e-05,-0.0131719742868,-0.133263693257,14.6535885253,0.591454406384,8.06000492129e-05,0.0313941794503,-1.92402710171,26.242338016,0.459238723867,5.20840588387e-05,0.0302435183688,-0.528868733428,15.8213696328,0.540693393859,0.000173697996927,-0.0647204002253,1.36805296754,21.939054614,7
0.628497004122,9.98285538851e-09,-1.5389277966e-05,0.122219499055,29.625637053,0.628499134299,4.28851597469e-08,-0.000661516746006,-0.0563886283183,29.6258403096,0.62845886187,4.52524977632e-08,-0.000284988038812,-0.121633913917,29.6220439284,0.370502772473,6.63888679878e-06,0.00735532582866,-0.150718913031,10.2959141084,0.55126572978,1.30443119897e-05,0.010384784697,-0.623622103152,22.7930081414,0.441939816165,1.68287166958e-05,0.00348090929831,-0.182689890442,14.6495554084,0.592467488762,2.38823179193e-05,-0.028247208284,2.29446163391,26.3280966845,0.459815112931,2.89034061035e-05,-0.027916597274,1.4973286089,15.859384208,0.539212877355,6.08481768087e-05,0.0437789720975,-1.54252201041,21.810792298,7
0.628496170438,1.0360470185e-08,-0.000328818004197,0.085160894999,29.6255584858,0.628510621366,4.87039458258e-08,-0.000203907676386,0.0118114025491,29.6269236918,0.62846161422,4.38205265981e-08,-0.000611352711,-0.132228493502,29.6223032838,0.370616215262,4.84888746359e-06,-0.00144454009625,0.471182186132,10.3020872438,0.551450516051,8.01140848887e-06,0.00370775007604,0.203217184871,22.8079182182,0.441919966304,1.35502128831e-05,0.00649396590892,-0.0343982900121,14.6479969621,0.592241538093,4.61875601314e-06,-0.0024180710347,1.9069970634,26.3065947462,0.459772275613,8.22371083741e-06,-0.00884134654034,1.33159151595,15.8548994613,0.539406584527,1.92525160151e-05,0.00832216343322,-0.998620854602,21.8233844435,7
0.628500923539,8.69562541827e-09,7.71679202636e-05,-0.0978473126982,29.6260064602,0.628509257156,4.9882150329e-08,0.000208622932361,0.0224416690996,29.6267951661,0.628460833931,3.93658282859e-08,-2.71556465916e-05,-0.128168629543,29.6222293969,0.37057883329,5.35873999049e-06,0.00178945542676,0.56578409289,10.300046923,0.551431606549,7.97923742897e-06,-0.00317406928041,-0.0315457431133,22.8063517162,0.441862796659,1.13482690088e-05,-0.00138358135021,0.16985820167,14.6440446023,0.592276082116,3.76963518696e-06,-0.00409550188775,3.02862238628,26.3096007615,0.45975132367,5.23606969031e-06,-0.003895684784,1.64513587806,15.8532334404,0.539460336748,1.6956097605e-05,0.0038302578721,-1.08301596887,21.8275638705,7
0.628495879782,8.15869303113e-09,-6.80653960725e-05,-0.421041786036,29.6255309215,0.628506658273,5.81775784072e-08,0.0002140392999,-0.136981798692,29.6265507672,0.628453848705,4.10027341219e-08,-0.000592042241254,-0.254674993648,29.6215710306,0.370592646917,5.15718048831e-06,-0.000891335688067,0.549179160963,10.3007998775,0.551495369722,6.98673540925e-06,-0.00397765109777,-0.133596829127,22.8115527303,0.442015749835,1.10462808581e-05,0.0017295591131,0.10568038357,14.6541616574,0.592186214014,1.42352257251e-06,0.00361422421894,0.21709711648,26.3014437458,0.45961329494,2.67611921905e-06,-0.00166836861355,0.0186241732853,15.8435265992,0.539515654188,8.83815465722e-06,-0.00662584041169,0.0315668951673,21.831439607,7
0.628498256222,7.08059549487e-09,5.24061967302e-05,-0.433211847583,29.6257548795,0.628511088358,5.75955582307e-08,1.75781682005e-05,-0.178375819482,29.6269683763,0.628466570718,3.83139691145e-08,0.000196124202686,-0.259838790675,29.6227701235,0.370518416477,5.57752946767e-06,-0.00205088979738,0.63926209891,10.2967050083,0.551436119878,6.82695451194e-06,-0.00293825887011,0.0138771530372,22.8066397676,0.441876010228,1.18038906724e-05,-0.00593344582652,0.0480907835574,14.644954119,0.592177742592,1.39634820604e-06,0.00130212879808,0.342670795133,26.3006892413,0.459638806752,2.90895962044e-06,0.00137790804796,-0.00648533663158,15.8453027134,0.539614922414,8.30558690061e-06,-0.000762068692907,0.00575599445554,21.8394344503,7
0.628494122795,7.93131910112e-09,9.11959142283e-05,-0.442243226309,29.625365266,0.628507044499,5.98286388138e-08,0.000282081056498,-0.149309756575,29.6265873012,0.628452462927,4.36020387321e-08,0.000151341451573,-0.467178031454,29.6214405885,0.370540504735,5.25023741341e-06,-0.000740529744375,0.664314580813,10.2979084413,0.551418548471,7.36605567036e-06,0.00622821118646,-0.00749540410067,22.805226258,0.442022283732,1.31620865266e-05,0.00335956230511,0.182924679389,14.6547514431,0.592203509614,1.41003040313e-06,-0.00164192339373,0.315468403356,26.3029791022,0.459623561607,2.80756910826e-06,-0.00289798613604,0.0346037907118,15.8442441389,0.539612991184,9.38873500266e-06,0.0139618440075,0.249319456716,21.8393582855,7
0.628499121537,8.03749870018e-09,-0.000177624941883,-0.27336374184,29.6258365277,0.628510477357,6.03792354572e-08,0.000214115059869,-0.247115567354,29.6269109791,0.628466526767,4.32817087843e-08,-4.08872621573e-05,-0.61614355799,29.6227663479,0.370595297492,5.44652255708e-06,0.00272728012655,0.627289860354,10.3009686319,0.551485993691,7.01141475895e-06,0.0031235529669,-0.122647849408,22.8107789375,0.441849217341,1.32192864196e-05,-0.00925729013154,0.245030148708,14.6432830421,0.592211889571,1.37193432722e-06,-0.000734889588057,0.338587416526,26.3037206844,0.459578730465,3.19848736338e-06,0.00338966622007,-0.159127557729,15.8411824002,0.539587740961,9.55928786443e-06,-0.000176689507061,0.19659338446,21.8373271519,7
0.628498625899,8.96783851826e-09,5.69530214736e-05,-0.111425205526,29.6257898704,0.628510325256,6.32587108312e-08,-0.000111500234347,-0.26243692246,29.6268968527,0.628456501592,4.68529422202e-08,0.000279150163828,-0.535065230418,29.6218215467,0.370516847356,5.66761601248e-06,-0.00167678067387,0.610549085842,10.2966244667,0.551394657875,6.83699899703e-06,0.00341176239067,-0.040770411816,22.8032110929,0.441968550612,1.34864625573e-05,-0.00402375715445,0.193846349059,14.651212978,0.592139185875,1.29807278777e-06,0.0017039798581,0.356322087053,26.2972572161,0.459581439821,3.13565845662e-06,-0.00242460046705,-0.247838102342,15.8413645258,0.539703162873,9.03617207699e-06,0.000164527820082,0.160731631299,21.8466314779,7
0.62849564309,9.66022555138e-09,-1.25046780542e-05,-0.111866362765,29.6255087186,0.628516475478,5.74106550377e-08,-5.90462046671e-05,-0.120998144861,29.6274762445,0.628454830477,4.97950739568e-08,-0.000602407241148,-0.576267868772,29.621664231,0.370533230125,5.20984442069e-06,-0.00100802727901,0.476383805918,10.2975011255,0.551438207583,5.86878683729e-06,0.000180141146376,-0.0312514432231,22.8067415489,0.441905870723,1.36993632322e-05,0.00138689740839,0.185606918841,14.6470736464,0.592177519327,1.13035041968e-06,-0.00160418505323,0.454882972562,26.3006497256,0.459609644385,2.91964746451e-06,-0.00148849276302,-0.195377331474,15.8432929448,0.539565344486,7.62235279767e-06,0.00706959892725,0.161787649848,21.8353711268,7
0.628498122975,9.89277450121e-09,6.82136812258e-05,-0.0382306255632,29.6257425258,0.628502962642,5.69766005533e-08,-0.00017883287296,-0.02192309033,29.62620227,0.62845828764,4.82936678155e-08,-0.000392407978963,-0.683769999661,29.6219900215,0.370472829477,5.46262555543e-06,-0.00355709535346,0.363959443194,10.2941630378,0.551418296854,5.65461360131e-06,-0.00128399987009,-0.0426103051599,22.8050787993,0.442068465934,1.28786441575e-05,-0.0040147198599,0.118488127755,14.6577926627,0.592200925739,1.10479648509e-06,0.000102461669217,0.428506334234,26.3027269884,0.459612184557,3.10413698387e-06,-0.000996681811442,-0.210960565259,15.8434817207,0.539554607643,6.50473145462e-06,3.20335575259e-05,0.3140547742,21.8344194473,7
0.628496679508,1.18257749201e-08,5.93357685618e-05,-0.27698803727,29.6256065866,0.628513540913,5.70083275013e-08,-0.000782212940843,-0.14010253818,29.6271995519,0.628460066814,4.87062504503e-08,0.000352416516726,-0.68464636545,29.6221577728,0.370566105457,5.68902350417e-06,-0.00107088909913,0.368182609528,10.2993638762,0.551419552143,5.39228489842e-06,0.00178011968019,-0.1997184072,22.8051632155,0.442025670849,1.25679583003e-05,-0.00206647717257,0.025656900369,14.6549320556,0.592171932795,1.09817015309e-06,0.000531689869311,0.498663296956,26.3001511139,0.459600496291,3.03795552587e-06,0.000721606486109,-0.204642830733,15.842671023,0.539587782488,7.12145963599e-06,-0.000127993013533,0.226937487256,21.8371501138,7
0.628495702251,1.25814404524e-08,-0.000117340460958,-0.217116854274,29.6255145121,0.628510233917,3.9758984898e-08,-7.37173069479e-05,-0.264836778968,29.6268865026,0.628456708102,4.74995943122e-08,-0.000118381198656,-0.707982249159,29.6218410619,0.370601211616,5.5105359433e-06,-0.00392297108367,0.368205315453,10.3013021335,0.551433774016,5.71307947246e-06,-0.00520050791431,-0.295526991097,22.8063633023,0.441996153681,1.24905375489e-05,0.00787347688542,0.0848745438005,14.65296929,0.592164704841,1.17175206579e-06,0.000614292877263,0.353309075654,26.2995145341,0.45957361692,3.06616995558e-06,-0.000568170159092,-0.180925328084,15.8408200993,0.539540613163,6.9754929008e-06,0.000338828349173,0.276090971448,21.8333216804,7
0.628497284592,1.20753242397e-08,-0.000196661836644,-0.247821074514,29.6256636491,0.628508867477,3.63679993987e-08,0.000228387910363,-0.48312819728,29.6267574285,0.628459072549,4.82229695645e-08,-0.000162143809968,-0.726499886288,29.6220640087,0.370614114763,5.70863633039e-06,0.000296880129524,0.393329001024,10.3020340937,0.551475671879,6.30608044594e-06,-0.000286497470874,0.0941246121016,22.8098729005,0.441944497476,1.4433786748e-05,0.00155960317603,-0.0668381696953,14.6496885139,0.592192850446,2.04815297295e-06,-0.00393226625175,0.358272181947,26.3020794723,0.459620291685,3.64461901183e-06,1.15494525721e-05,0.0371665579727,15.8440806414,0.539597788029,8.2717036024e-06,0.0088892803738,0.273116835907,21.8380450695,7
0.628497913199,1.1963505675e-08,5.90718281807e-05,-0.263540857377,29.6257229024,0.628497276832,3.67713226828e-08,0.000458266281349,-0.515859350284,29.625664745,0.628458526939,4.68832091597e-08,-0.000120092421007,-0.790791157425,29.6220124756,0.370509691112,5.75538867729e-06,0.00155062644801,0.180362322507,10.2962332393,0.551701422499,2.3952517867e-05,0.0278360493015,1.76814161384,22.8298569553,0.44216354735,2.6161158651e-05,0.0184660433285,0.176552022655,14.6650811211,0.591929348015,2.04698729098e-05,0.00606946490222,-0.822857706902,26.2800412487,0.459275872855,2.70292338787e-05,-0.013592840972,-2.17391182142,15.8220747173,0.540334427843,7.40354657362e-05,0.0133636031115,2.22567527131,21.9025756679,7
0.628494571499,1.13967912605e-08,0.000152284120599,-0.217537355504,29.6254078237,0.628504499381,3.38125065978e-08,-6.29294635517e-05,-0.0916159805481,29.6263454327,0.628464390931,4.59532296844e-08,0.000769213914643,-0.507584980065,29.6225652007,0.370438282788,5.85442962803e-06,-0.0054189717638,0.0290006946534,10.2922723294,0.551347622636,3.33497153677e-05,-0.00124069727904,0.472734567485,22.8012829529,0.441881237686,3.30168860002e-05,-0.00199406943266,-0.121058596129,14.646870366,0.592154818707,2.70485243172e-05,0.00347818146503,-0.278470596058,26.3005512896,0.459603432648,5.05852977564e-05,-0.00790338430766,0.042974647416,15.8463919597,0.539743668223,0.000139830469432,0.0119473821334,-0.272314604093,21.8595895088,7
0.628493715995,1.23633823243e-08,3.1562239253e-05,-0.13943347342,29.6253272433,0.62850140135,3.79569687247e-08,0.000290285122466,0.0231911857373,29.6260536713,0.628451713977,4.5722436056e-08,0.000378504685635,-0.39481779574,29.6213701435,0.37055532888,5.66641270674e-06,-3.89129482607e-05,0.00378047230109,10.2987631967,0.551384084963,3.46773850631e-05,-0.0083332943009,0.423565879462,22.8043968128,0.442139480349,3.2826583011e-05,-0.00272886180414,-0.204005777022,14.6639781734,0.592163055139,2.70427139516e-05,0.00231642020035,-0.283215816025,26.3012824512,0.459564234538,5.167514396e-05,-0.000293130705327,0.0480400090313,15.8437703857,0.539565095506,0.000144383854357,0.00510905232857,-0.241057112155,21.8454713268,7
0.628495112578,1.20492753944e-08,-1.44167158475e-05,-0.0375167814581,29.6254588817,0.628507212482,3.82314729313e-08,-0.000555875091748,-0.00436253040998,29.6266015398,0.628460022616,3.89380018824e-08,-0.000610543850023,-0.343831895687,29.6221528834,0.370576641292,5.61847359226e-06,-0.000226655540524,-0.0591221511621,10.2999442974,0.551461117315,3.46565465516e-05,0.00338769627666,0.398949132618,22.8107668777,0.44201771224,3.17767424028e-05,0.00148809976111,-0.21189668161,14.655825824,0.59215837912,2.7698826059e-05,0.000358187873535,-0.276041827811,26.3009156602,0.459550051693,5.17085510594e-05,0.0039817668207,0.0525047371427,15.8427951836,0.53957524742,0.000149422977554,0.00512245015969,-0.240048507103,21.8466658725,7
0.628497136861,1.20562595925e-08,1.57702372691e-05,-0.0695483757134,29.6256497203,0.628514498468,3.3721864551e-08,-0.000564632780707,0.149824869424,29.6272881042,0.628463170826,3.68854527698e-08,0.000168251176874,-0.283823398014,29.6224495109,0.370549597396,5.6218322585e-06,0.00177387494254,-0.0575666445234,10.2984413254,0.55149075886,3.469791784e-05,3.39444729965e-05,0.384470437974,22.813221929,0.441882752421,3.09402435817e-05,0.00559002980645,-0.17235682133,14.6468170946,0.592226104249,2.80639755691e-05,-0.000783702368538,-0.29777176708,26.3069586257,0.45961112614,5.14193189446e-05,-0.0012999618886,0.0329037782483,15.846984075,0.539494421026,0.000150766645646,-0.00201756156482,-0.217802171253,21.8402240056,7
0.628495413549,1.13056904024e-08,-0.000192550330843,-0.135250622462,29.6254872005,0.628514180706,3.09481783986e-08,-2.21668603904e-05,0.0077811570477,29.6272579413,0.628453589159,3.41573698069e-08,-0.00028945754759,-0.358159477763,29.6215460572,0.370567586558,5.33937020561e-06,0.00175110294573,-0.0114788234052,10.299420329,0.55142818879,3.51199219552e-05,-0.000472768341083,0.405846726297,22.8080774287,0.442005828309,3.13994473961e-05,-0.0062064127325,-0.193520651011,14.6550099785,0.592163258883,2.80926725354e-05,3.38463499057e-05,-0.261503718885,26.3013782456,0.459685019083,5.19146886236e-05,0.00477464330479,0.00496207492815,15.8521154447,0.53958816996,0.000151243826319,-0.00212228753023,-0.237948402122,21.8478465302,7
0.628498285135,1.1263932825e-08,6.15948689797e-06,-0.149925125608,29.6257579148,0.628501348721,3.04765337291e-08,0.000153101842854,0.150780852699,29.626048156,0.62846257632,3.33386445925e-08,0.000287199936054,-0.118226375339,29.6223932047,0.370594605126,5.78602222627e-06,-0.000390715794893,0.0425606662177,10.3009552668,0.551518798275,3.48295231222e-05,-0.000702632276129,0.372097687383,22.8155512485,0.441994568343,3.1962385564e-05,0.00281654816224,-0.18640948045,14.6543050999,0.592214728588,2.82287847161e-05,-0.0014675333966,-0.28647156493,26.3059602868,0.459666771332,5.21406462761e-05,0.000521579907639,0.0111496558662,15.8508739578,0.539563101175,0.000151438842076,0.000931787077195,-0.231575322509,21.8458319856,7
