sensorStatus,cap1,cap2,cap3,counter,microseconds_since_last_tick,accX,accY,accZ,gyroX,gyroY,gyroZ,magnetX,magnetY,magnetZ,day,hour,min,sec,msec,sync,battery_fuel,crc_good
2,32121,30901,32803,45089,8733,-4059,-1768,-1628,15,-8,-6,263,447,-253,1,0,30,5,40,0,53298,1
2,32126,30900,32804,45090,8737,-4059,-1765,-1628,8,-14,0,264,452,-246,1,0,30,5,80,0,53298,1
2,32125,30905,32805,45091,8741,-4056,-1763,-1632,-9,-10,16,254,450,-248,1,0,30,5,120,0,53298,1
2,32124,30908,32802,45092,8745,-4055,-1770,-1629,-18,-8,12,256,448,-250,1,0,30,5,160,0,53298,1
2,32130,30909,32812,45093,8749,-4062,-1764,-1633,-11,-14,22,264,448,-254,1,0,30,5,200,0,53298,1
2,32134,30913,32809,45094,8754,-4055,-1766,-1646,-13,-19,11,253,443,-259,1,0,30,5,240,0,53298,1
2,32130,30911,32802,45095,8758,-4053,-1752,-1636,-7,-31,9,256,460,-264,1,0,30,5,280,0,53298,1
2,32135,30912,32805,45096,8763,-4065,-1781,-1636,-10,-13,16,255,455,-257,1,0,30,5,320,0,53298,1
2,32129,30909,32813,45097,8767,-4055,-1762,-1622,-6,-9,17,260,448,-258,1,0,30,5,360,0,53298,1
2,32132,30911,32811,45098,8772,-4051,-1763,-1637,-6,-1,22,259,455,-247,1,0,30,5,400,0,53298,1
2,32130,30912,32803,45099,8776,-4048,-1761,-1633,-6,-15,17,257,455,-255,1,0,30,5,440,0,53298,1
2,32135,30913,32807,45100,8780,-4053,-1749,-1617,-5,-15,6,262,444,-252,1,0,30,5,480,0,53298,1
2,32135,30913,32810,45101,8784,-4059,-1779,-1626,-8,6,17,254,448,-258,1,0,30,5,520,0,53298,1
2,32131,30911,32810,45102,8787,-4063,-1764,-1638,-9,10,23,268,446,-260,1,0,30,5,560,0,53298,1
2,32137,30912,32807,45103,8791,-4068,-1763,-1630,5,-11,2,260,446,-252,1,0,30,5,600,0,53298,1
2,32139,30913,32816,45104,8795,-4057,-1764,-1625,2,-61,-23,253,453,-257,1,0,30,5,640,0,53298,1
2,32134,30913,32812,45105,8799,-4047,-1755,-1628,-2,-44,-5,261,459,-255,1,0,30,5,680,0,53298,1
2,32133,30912,32816,45106,8802,-4051,-1764,-1624,-16,-3,33,262,452,-266,1,0,30,5,720,0,53298,1
2,32129,30912,32808,45107,8807,-4055,-1769,-1629,-31,38,57,272,450,-256,1,0,30,5,760,0,53298,1
2,32129,30910,32806,45108,8811,-4054,-1753,-1651,-21,-4,38,262,444,-250,1,0,30,5,800,0,53298,1
2,32134,30913,32811,45109,8815,-4061,-1771,-1630,-36,-57,10,258,442,-250,1,0,30,5,840,0,53298,1
2,32140,30913,32813,45110,8819,-4061,-1765,-1633,-10,-59,-3,259,449,-247,1,0,30,5,880,0,53298,1
2,32143,30912,32815,45111,8824,-4048,-1753,-1614,24,-8,-12,259,443,-247,1,0,30,5,920,0,53298,1
2,32142,30911,32816,45112,8828,-4067,-1784,-1633,44,29,-9,262,444,-246,1,0,30,5,960,0,53298,1
1,32134,30910,32813,45113,0,-4057,-1772,-1627,23,15,1,262,456,-256,1,0,30,6,0,0,53298,1
2,32135,30910,32810,45114,8235,-4063,-1773,-1627,-28,-29,17,259,445,-261,1,0,30,6,40,0,53298,1
2,32130,30906,32806,45115,8239,-4035,-1748,-1632,-47,-45,32,254,450,-260,1,0,30,6,80,0,53298,1
2,32130,30910,32809,45116,8244,-4057,-1763,-1621,-24,-22,7,258,440,-242,1,0,30,6,120,0,53298,1
2,32121,30907,32796,45117,8249,-4057,-1768,-1633,23,-2,7,263,449,-253,1,0,30,6,160,0,53298,1
2,32128,30910,32806,45118,8254,-4060,-1761,-1630,33,-4,-3,264,446,-260,1,0,30,6,200,0,53298,1
2,32133,30911,32817,45119,8259,-4051,-1757,-1642,14,-13,10,262,444,-264,1,0,30,6,240,0,53298,1
2,32127,30910,32809,45120,8265,-4055,-1753,-1624,-14,-20,12,255,445,-251,1,0,30,6,280,0,53298,1
2,32131,30909,32807,45121,8270,-4045,-1759,-1620,-24,-15,21,261,455,-245,1,0,30,6,320,0,53298,1
2,32133,30907,32808,45122,8275,-4058,-1762,-1638,-19,-15,8,258,452,-264,1,0,30,6,360,0,53298,1
2,32129,30910,32807,45123,8280,-4053,-1762,-1628,-4,-15,20,262,448,-260,1,0,30,6,400,0,53298,1
2,32129,30912,32808,45124,8285,-4058,-1763,-1628,2,-6,7,258,448,-260,1,0,30,6,440,0,53298,1
2,32134,30912,32812,45125,8290,-4056,-1763,-1630,0,-22,15,254,446,-252,1,0,30,6,480,0,53298,1
2,32133,30911,32807,45126,8294,-4051,-1763,-1632,-3,-10,11,253,453,-263,1,0,30,6,520,0,53298,1
2,32128,30908,32807,45127,8299,-4061,-1762,-1635,10,-9,8,259,445,-259,1,0,30,6,560,0,53298,1
2,32130,30911,32807,45128,8305,-4057,-1764,-1629,-7,-14,16,260,448,-254,1,0,30,6,600,0,53298,1
2,32124,30908,32808,45129,8311,-4051,-1759,-1616,-21,-30,19,260,448,-246,1,0,30,6,640,0,53298,1
2,32130,30912,32810,45130,8316,-4047,-1756,-1634,-16,-22,19,269,451,-253,1,0,30,6,680,0,53298,1
2,32130,30911,32804,45131,8321,-4053,-1751,-1621,-7,-8,7,254,444,-258,1,0,30,6,720,0,53298,1
2,32140,30913,32813,45132,8325,-4043,-1766,-1631,7,-5,2,258,448,-256,1,0,30,6,760,0,53298,1
2,32137,30912,32811,45133,8330,-4056,-1765,-1633,-2,-17,9,264,446,-258,1,0,30,6,800,0,53298,1
2,32135,30915,32808,45134,8335,-4063,-1775,-1632,-11,-5,21,261,449,-259,1,0,30,6,840,0,53298,1
2,32136,30913,32807,45135,8339,-4043,-1763,-1630,-19,-4,30,253,451,-253,1,0,30,6,880,0,53298,1
2,32131,30909,32816,45136,8343,-4061,-1763,-1628,-26,-30,26,265,445,-253,1,0,30,6,920,0,53298,1
2,32131,30910,32815,45137,8348,-4054,-1770,-1645,2,-38,4,253,451,-249,1,0,30,6,960,0,53298,1
1,32131,30909,32813,45138,7735,-4066,-1757,-1635,31,-25,-15,258,452,-262,1,0,30,7,0,1,53298,1
2,32130,30909,32814,45139,7735,-4067,-1766,-1640,39,-6,-4,261,451,-263,1,0,30,7,40,1,53298,1
2,32131,30911,32816,45140,7740,-4056,-1763,-1622,27,-9,9,257,453,-255,1,0,30,7,80,1,53298,1
2,32137,30911,32814,45141,7744,-4062,-1759,-1623,7,1,7,255,447,-247,1,0,30,7,120,1,53298,1
2,32135,30911,32808,45142,7748,-4055,-1755,-1626,53,20,-12,263,447,-257,1,0,30,7,160,1,53298,1
2,32132,30909,32808,45143,7752,-4038,-1772,-1631,39,13,-16,259,451,-251,1,0,30,7,200,1,53298,1
2,32134,30909,32812,45144,7755,-4055,-1757,-1632,14,-5,9,262,454,-250,1,0,30,7,240,1,53298,1
2,32130,30909,32814,45145,7759,-4049,-1779,-1628,-10,-6,15,253,451,-255,1,0,30,7,280,1,53298,1
2,32130,30909,32806,45146,7763,-4050,-1771,-1641,-40,-8,34,268,446,-252,1,0,30,7,320,1,53298,1
2,32133,30908,32805,45147,7768,-4044,-1764,-1626,-58,-28,30,255,455,-251,1,0,30,7,360,1,53298,1
2,32130,30909,32805,45148,7771,-4048,-1765,-1634,-82,-53,40,251,455,-247,1,0,30,7,400,1,53298,1
2,32131,30910,32804,45149,7775,-4077,-1767,-1634,-101,-63,56,266,450,-256,1,0,30,7,440,1,53298,1
2,32133,30908,32811,45150,7779,-4120,-1762,-1653,-135,-93,102,267,451,-257,1,0,30,7,480,1,53298,1
2,32127,30912,32806,45151,7784,-4214,-1718,-1691,-198,-226,349,260,448,-258,1,0,30,7,520,1,53298,1
2,32125,30902,32800,45152,7789,-3874,-1857,-1617,-666,-299,622,255,447,-249,1,0,30,7,560,1,53298,1
2,32122,30799,32798,45153,7793,-4164,-1672,-1642,-871,-367,596,260,442,-256,1,0,30,7,600,1,53298,1
2,32114,30809,32795,45154,7798,-4181,-1577,-1852,-1192,-367,410,261,447,-257,1,0,30,7,640,1,53298,1
2,32101,30815,32769,45155,7803,-3847,-931,-2308,-1008,147,839,250,448,-260,1,0,30,7,680,1,53298,1
2,32059,30779,32749,45156,7808,-3872,-524,-2609,-830,1604,1816,251,449,-267,1,0,30,7,720,1,53298,1
2,31989,30930,32737,45157,7813,-3700,130,-3340,-1512,3965,4164,239,455,-273,1,0,30,7,760,1,53298,1
2,31925,30848,32719,45158,7818,-3763,233,-3660,-2529,7133,6997,223,451,-289,1,0,30,7,800,1,53298,1
2,31870,30903,32699,45159,7823,-4138,84,-3771,-2878,10886,9743,205,459,-299,1,0,30,7,840,1,53298,1
2,31818,30671,32666,45160,7829,-4636,18,-3768,-1740,14370,11953,195,449,-331,1,0,30,7,880,1,53298,1
2,31785,30284,32623,45161,7834,-5091,-170,-3432,-2054,16404,13503,175,439,-355,1,0,30,7,920,1,53298,1
2,31305,30029,32114,45162,7838,-5129,-531,-2795,-3605,16529,14828,148,428,-368,1,0,30,7,960,1,53298,1
1,31259,30002,32067,45163,7236,-4963,-1165,-2320,-5882,15623,14723,130,416,-392,1,0,30,8,0,1,53298,1
2,31224,29999,32020,45164,7240,-4104,-1115,-2079,-6484,13160,12985,107,403,-395,1,0,30,8,40,1,53298,1
2,31170,29936,31975,45165,7244,-2997,-847,-2159,-6918,10009,11044,90,394,-394,1,0,30,8,80,1,53298,1
2,31176,30649,31984,45166,7249,-2415,-759,-2424,-7854,8509,9538,83,373,-411,1,0,30,8,120,1,53298,1
2,31176,30231,31979,45167,7254,-2204,-321,-2849,-5441,8185,8065,72,376,-412,1,0,30,8,160,1,53298,1
2,31188,30606,31994,45168,7259,-1835,296,-3052,-1134,6608,6309,63,363,-415,1,0,30,8,200,1,53298,1
2,31192,30663,32008,45169,7265,-1750,668,-3491,-1448,6131,5183,63,349,-413,1,0,30,8,240,1,53298,1
2,31261,30649,32059,45170,7271,-1737,784,-3239,-2287,5466,4111,52,350,-426,1,0,30,8,280,1,53298,1
2,31203,30672,32020,45171,7277,-1575,955,-3560,-1667,4901,3441,58,340,-420,1,0,30,8,320,1,53298,1
2,32487,30997,33160,45172,7283,-1486,989,-3283,-699,5095,3220,54,344,-430,1,0,30,8,360,1,53298,1
2,32066,31038,32991,45173,7290,-1480,1088,-3115,127,4849,3048,46,332,-434,1,0,30,8,400,1,53298,1
2,31830,30706,32639,45174,7298,-1327,1080,-2856,403,3720,2482,47,333,-431,1,0,30,8,440,1,53298,1
2,31862,30965,32660,45175,7307,-1019,1129,-3099,-1640,2512,1816,37,319,-421,1,0,30,8,480,1,53298,1
2,32026,30942,32859,45176,7316,-1169,802,-3207,-2608,1889,1619,42,326,-432,1,0,30,8,520,1,53298,1
2,39342,33939,40194,45177,7326,-958,894,-3472,-1303,613,872,40,332,-428,1,0,30,8,560,1,53298,1
2,38635,34330,40562,45178,7336,-936,1119,-3652,1103,713,831,46,330,-440,1,0,30,8,600,1,53298,1
2,34896,33779,40759,45179,7347,-1016,1385,-3660,1639,800,787,47,325,-439,1,0,30,8,640,1,53298,1
2,40126,34627,40926,45180,7357,-995,1420,-3740,110,39,29,48,328,-438,1,0,30,8,680,1,53298,1
2,39874,34487,40702,45181,7367,-908,1408,-3975,-1322,-253,-152,40,318,-434,1,0,30,8,720,1,53298,1
2,39895,34484,40668,45182,7376,-984,1354,-3846,-834,-25,29,50,318,-436,1,0,30,8,760,1,53298,1
2,39884,34487,40718,45183,7385,-892,1435,-3754,-235,42,-210,43,321,-441,1,0,30,8,800,1,53298,1
2,39957,34378,40769,45184,7394,-962,1298,-3662,-75,509,203,47,323,-435,1,0,30,8,840,1,53298,1
2,31988,33139,32825,45185,7402,-996,1207,-3502,-20,577,373,47,311,-437,1,0,30,8,880,1,53298,1
2,33860,34257,39858,45186,7408,-1067,1119,-3376,-378,-211,-254,47,325,-427,1,0,30,8,920,1,53298,1
2,38789,33931,39612,45187,7408,-982,999,-3385,-1345,-2394,-1499,40,326,-424,1,0,30,8,960,1,53298,1
1,37523,33209,37788,45188,6737,-1228,1178,-3849,1615,-3478,-1947,53,337,-425,1,0,30,9,0,0,53298,1
2,35536,33200,33900,45189,6740,-1467,1329,-3496,4841,-5167,-3616,61,341,-431,1,0,30,9,40,0,53298,1
2,35501,31990,31900,45190,6743,-1416,1225,-3011,5249,-5108,-3840,60,352,-440,1,0,30,9,80,0,53298,1
2,31549,32653,32881,45191,6747,-1593,294,-2888,1965,-5364,-3090,68,360,-426,1,0,30,9,120,0,53298,1
2,36625,33086,37360,45192,6750,-1561,82,-2617,-159,-6097,-4345,71,361,-419,1,0,30,9,160,0,53298,1
2,36227,32831,37149,45193,6753,-1996,-340,-2500,410,-6824,-5331,60,378,-410,1,0,30,9,200,0,53298,1
2,36196,32252,34684,45194,6756,-2493,-46,-2548,3195,-8097,-7005,91,387,-409,1,0,30,9,240,0,53298,1
2,31637,30690,32409,45195,6760,-2986,-78,-2617,5037,-10328,-8962,107,403,-387,1,0,30,9,280,0,53298,1
2,31930,30782,32740,45196,6763,-3415,25,-2829,6297,-11746,-11180,112,412,-384,1,0,30,9,320,0,53298,1
2,32090,31087,33838,45197,6767,-3550,238,-3170,4937,-12871,-11289,133,417,-371,1,0,30,9,360,0,53298,1
2,36345,32995,37242,45198,6770,-3677,142,-3498,4740,-13280,-10963,150,434,-360,1,0,30,9,400,0,53298,1
2,36387,32930,37272,45199,6773,-3599,-87,-2889,4756,-13157,-9754,162,438,-338,1,0,30,9,440,0,53298,1
2,36407,32960,37195,45200,6777,-3994,-266,-3434,1531,-11930,-8040,176,446,-322,1,0,30,9,480,0,53298,1
2,33400,31580,34390,45201,6781,-3931,-322,-2831,2875,-11313,-7751,192,454,-310,1,0,30,9,520,0,53298,1
2,36500,33005,37355,45202,6785,-4126,-562,-2857,934,-10227,-6613,189,451,-295,1,0,30,9,560,0,53298,1
2,36615,33050,37446,45203,6789,-4281,-521,-2706,356,-9100,-5671,203,453,-289,1,0,30,9,600,0,53298,1
2,36379,32900,37319,45204,6793,-4159,-575,-2404,734,-8149,-4982,199,453,-281,1,0,30,9,640,0,53298,1
2,35305,31920,34650,45205,6797,-4047,-801,-2189,264,-7086,-4227,214,454,-268,1,0,30,9,680,0,53298,1
2,32280,31013,33196,45206,6802,-4072,-556,-2029,428,-6344,-3337,218,448,-258,1,0,30,9,720,0,53298,1
2,32070,30852,32923,45207,6807,-4174,-590,-2011,-302,-5147,-2097,222,444,-252,1,0,30,9,760,0,53298,1
2,31800,30720,32717,45208,6812,-4263,-783,-2017,-923,-3953,-1550,219,453,-235,1,0,30,9,800,0,53298,1
2,31727,30644,32648,45209,6817,-4122,-799,-1713,441,-3230,-1682,228,452,-236,1,0,30,9,840,0,53298,1
2,31654,30614,32543,45210,6821,-4112,-810,-1781,-83,-2804,-1062,219,459,-241,1,0,30,9,880,0,53298,1
2,31586,30500,32495,45211,6826,-4424,-1115,-2648,-1712,-1704,-281,231,451,-231,1,0,30,9,920,0,53298,1
2,31562,30509,32481,45212,6826,-4566,-1020,-1678,260,462,-268,222,454,-242,1,0,30,9,960,0,53298,1
1,31561,30507,32466,45213,6239,-4437,-1269,-1077,438,-392,204,231,451,-237,1,0,30,10,0,0,53298,1
2,31551,30480,32457,45214,6243,-3953,-1046,-1220,-294,-434,-273,236,450,-242,1,0,30,10,40,0,53298,1
2,31550,30480,32443,45215,6247,-3936,-1101,-1971,-944,-579,-104,223,447,-237,1,0,30,10,80,0,53298,1
2,31550,30478,32440,45216,6252,-4372,-1156,-1531,175,283,-77,230,452,-236,1,0,30,10,120,0,53298,1
2,31545,30610,32439,45217,6255,-4461,-1390,-1188,519,216,-52,230,456,-240,1,0,30,10,160,0,53298,1
2,31500,30586,32384,45218,6258,-4459,-1181,-1452,-332,-52,97,224,456,-234,1,0,30,10,200,0,53298,1
2,31475,30593,32362,45219,6262,-4244,-1091,-1491,180,-60,-68,226,452,-238,1,0,30,10,240,0,53298,1
2,31443,30517,32326,45220,6265,-4264,-1268,-1270,926,79,-317,226,454,-238,1,0,30,10,280,0,53298,1
2,31409,30544,32293,45221,6270,-4323,-1276,-1392,168,219,-266,216,452,-236,1,0,30,10,320,0,53298,1
2,31380,30534,32270,45222,6275,-4283,-1194,-1471,126,58,14,234,452,-240,1,0,30,10,360,0,53298,1
2,31367,30520,32255,45223,6280,-4294,-1207,-1444,42,-26,86,231,451,-245,1,0,30,10,400,0,53298,1
2,31348,30520,32244,45224,6284,-4295,-1195,-1640,-55,74,176,231,453,-249,1,0,30,10,440,0,53298,1
2,31330,30454,32235,45225,6288,-4154,-1082,-1731,219,753,432,222,456,-254,1,0,30,10,480,0,53298,1
2,31320,30524,32214,45226,6292,-3958,-755,-2183,653,1760,778,224,448,-242,1,0,30,10,520,0,53298,1
2,31301,30515,32207,45227,6296,-3937,-470,-2523,1006,3378,1286,225,451,-255,1,0,30,10,560,0,53298,1
2,31284,30515,32190,45228,6300,-3883,-338,-2769,805,4698,2148,222,466,-266,1,0,30,10,600,0,53298,1
2,31267,30508,32169,45229,6304,-3597,-147,-2755,802,6876,3375,213,451,-273,1,0,30,10,640,0,53298,1
2,31245,30502,32162,45230,6308,-4125,-99,-2765,-31,9536,5792,196,454,-298,1,0,30,10,680,0,53298,1
2,31228,30520,32138,45231,6312,-4468,-417,-2659,132,10709,7419,189,455,-301,1,0,30,10,720,0,53298,1
2,31220,30542,32098,45232,6316,-4782,-520,-2550,-309,11667,7711,176,448,-316,1,0,30,10,760,0,53298,1
2,31197,30572,32068,45233,6319,-4862,-590,-2316,-1870,11284,7731,160,448,-338,1,0,30,10,800,0,53298,1
2,31192,30594,32034,45234,6323,-4711,-665,-2535,-4066,10536,7710,156,432,-348,1,0,30,10,840,0,53298,1
2,31184,30619,32006,45235,6327,-4084,-431,-2470,-3554,9518,7003,146,438,-354,1,0,30,10,880,0,53298,1
2,31171,30614,31980,45236,6331,-3535,-242,-2810,-3708,8684,6985,131,421,-373,1,0,30,10,920,0,53298,1
2,31160,30632,31957,45237,6331,-3149,-187,-2883,-2780,8322,7044,122,416,-382,1,0,30,10,960,0,53298,1
1,31147,30631,31938,45238,5739,-3124,136,-2978,-2082,8411,7198,109,405,-385,1,0,30,11,0,1,53298,1
2,31137,30625,31922,45239,5744,-2994,332,-3192,-2707,7809,7343,91,403,-381,1,0,30,11,40,1,53298,1
2,31128,30633,31903,45240,5748,-2880,396,-3430,-4950,7651,7726,91,389,-393,1,0,30,11,80,1,53298,1
2,31123,30628,31886,45241,5753,-2739,341,-3345,-4681,7447,7084,82,378,-406,1,0,30,11,120,1,53298,1
2,31121,30625,31870,45242,5759,-2487,439,-3392,-2926,7034,6243,65,373,-405,1,0,30,11,160,1,53298,1
2,31120,30622,31857,45243,5763,-2135,462,-3268,-527,6728,5461,77,363,-429,1,0,30,11,200,1,53298,1
2,31115,30618,31851,45244,5768,-1917,466,-3131,857,6580,4903,71,357,-427,1,0,30,11,240,1,53298,1
2,31116,30615,31842,45245,5772,-1757,672,-3176,1043,6134,4228,56,350,-424,1,0,30,11,280,1,53298,1
2,31112,30610,31836,45246,5777,-1552,733,-3267,548,5497,3734,62,344,-428,1,0,30,11,320,1,53298,1
2,31114,30610,31829,45247,5781,-1495,885,-3467,38,4993,3225,55,341,-437,1,0,30,11,360,1,53298,1
2,31115,30609,31826,45248,5785,-1353,781,-3447,419,4473,2911,51,331,-449,1,0,30,11,400,1,53298,1
2,31111,30610,31818,45249,5790,-1210,752,-3464,618,4102,2469,57,323,-449,1,0,30,11,440,1,53298,1
2,31113,30613,31817,45250,5794,-1200,834,-3474,1059,3640,2087,56,324,-456,1,0,30,11,480,1,53298,1
2,31108,30608,31820,45251,5799,-961,734,-3392,644,2936,1798,53,319,-441,1,0,30,11,520,1,53298,1
2,31116,30604,31819,45252,5803,-938,539,-3044,-406,2366,1613,56,318,-446,1,0,30,11,560,1,53298,1
2,31123,30470,31834,45253,5807,-808,507,-3130,-1732,1600,1118,49,303,-445,1,0,30,11,600,1,53298,1
2,31132,30586,31853,45254,5812,-742,701,-3499,-2701,1352,499,44,310,-450,1,0,30,11,640,1,53298,1
2,31113,30815,31881,45255,5818,-828,914,-3454,-1596,1413,535,48,314,-452,1,0,30,11,680,1,53298,1
2,31145,30043,31878,45256,5823,-768,1377,-4137,-191,2013,839,55,305,-451,1,0,30,11,720,1,53298,1
2,31159,30549,31918,45257,5829,-743,1125,-3647,-649,2311,1041,42,302,-442,1,0,30,11,760,1,53298,1
2,32899,31274,32876,45258,5836,-737,1214,-3693,-1605,1933,1218,39,305,-443,1,0,30,11,800,1,53298,1
2,31585,30921,34049,45259,5843,-639,1158,-3684,-876,2229,1478,45,295,-449,1,0,30,11,840,1,53298,1
2,31707,30803,32516,45260,5851,-640,1137,-3494,-1586,2136,1286,34,302,-452,1,0,30,11,880,1,53298,1
2,31731,30875,32540,45261,5860,-596,1083,-3492,-2814,1257,789,33,291,-447,1,0,30,11,920,1,53298,1
2,32183,31012,32815,45262,5860,-584,1124,-3512,-2197,810,457,31,297,-451,1,0,30,11,960,1,53298,1
1,32604,31263,33447,45263,5241,-660,1045,-3527,-1298,222,98,38,286,-448,1,0,30,12,0,1,53298,1
2,32645,30803,32721,45264,5250,-489,1428,-3777,-1713,-353,-436,32,300,-432,1,0,30,12,40,1,53298,1
2,32014,30459,32849,45265,5260,-508,1485,-3711,-2626,179,-291,30,298,-446,1,0,30,12,80,1,53298,1
2,36030,33175,34337,45266,5270,-412,1611,-3783,-2578,452,-149,24,302,-438,1,0,30,12,120,1,53298,1
2,34177,32716,38377,45267,5280,-501,1509,-3675,-1653,819,180,24,300,-440,1,0,30,12,160,1,53298,1
2,37109,31342,38414,45268,5289,-525,1577,-3447,-137,990,512,30,294,-438,1,0,30,12,200,1,53298,1
2,37961,33566,38195,45269,5298,-631,1486,-3349,-87,737,437,24,288,-448,1,0,30,12,240,1,53298,1
2,34077,31775,34677,45270,5308,-523,1382,-3359,-342,174,141,29,291,-447,1,0,30,12,280,1,53298,1
2,33990,31804,34839,45271,5316,-486,1377,-3385,291,-172,16,25,283,-433,1,0,30,12,320,1,53298,1
2,34334,31781,35045,45272,5325,-489,1397,-3503,430,-392,-90,24,296,-430,1,0,30,12,360,1,53298,1
2,34149,31666,34846,45273,5332,-474,1446,-3629,200,-585,-293,34,302,-430,1,0,30,12,400,1,53298,1
2,35846,32492,36149,45274,5340,-513,1492,-3714,120,-580,-331,32,294,-440,1,0,30,12,440,1,53298,1
2,32426,33646,39474,45275,5347,-597,1521,-3798,182,-370,-263,30,290,-440,1,0,30,12,480,1,53298,1
2,38550,33274,39018,45276,5352,-975,1972,-4150,-249,-1808,-1164,24,308,-426,1,0,30,12,520,1,53298,1
2,36870,33091,37490,45277,5356,-172,1301,-3270,1791,-4829,-2776,31,299,-429,1,0,30,12,560,1,53298,1
2,34830,30514,31890,45278,5359,-910,1237,-4145,-525,-1277,-1136,27,299,-435,1,0,30,12,600,1,53298,1
2,37014,32830,37664,45279,5362,-830,1417,-3625,1398,-858,-549,38,306,-438,1,0,30,12,640,1,53298,1
2,36468,32858,37097,45280,5366,-674,1343,-3358,8393,-962,-94,35,311,-447,1,0,30,12,680,1,53298,1
2,36411,32925,37050,45281,5369,-617,1072,-3114,7291,-1168,-485,47,307,-443,1,0,30,12,720,1,53298,1
2,36639,32393,37266,45282,5372,-726,642,-3102,-126,-793,-545,44,316,-448,1,0,30,12,760,1,53298,1
2,36487,32166,34124,45283,5375,-1000,764,-3215,-982,-1545,-594,56,310,-452,1,0,30,12,800,1,53298,1
2,36376,33031,37260,45284,5379,-1062,1090,-3300,3152,-3126,-1151,58,316,-446,1,0,30,12,840,1,53298,1
2,36380,32022,37237,45285,5383,-1206,817,-3438,2784,-4200,-1424,51,333,-433,1,0,30,12,880,1,53298,1
2,31338,30368,32168,45286,5388,-1250,1083,-3410,632,-7108,-3122,57,337,-443,1,0,30,12,920,1,53298,1
2,31458,30385,32258,45287,5388,-944,628,-3487,-537,-7178,-4184,62,350,-428,1,0,30,12,960,1,53298,1
1,31136,30148,31920,45288,4744,-1411,504,-3280,-1232,-4662,-2969,58,346,-422,1,0,30,13,0,0,53298,1
2,31055,30099,31883,45289,4749,-1482,706,-3229,-487,-5285,-3164,60,368,-422,1,0,30,13,40,0,53298,1
2,31074,30115,31915,45290,4753,-1748,25,-2648,-548,-5158,-3416,66,374,-412,1,0,30,13,80,0,53298,1
2,31079,30111,31926,45291,4757,-2008,589,-2575,-280,-7094,-4955,70,380,-394,1,0,30,13,120,0,53298,1
2,31088,30108,31926,45292,4761,-1943,340,-3262,-2371,-8760,-5882,83,387,-403,1,0,30,13,160,0,53298,1
2,31082,30105,31938,45293,4763,-2286,-153,-3118,-367,-7133,-7276,87,395,-393,1,0,30,13,200,0,53298,1
2,31083,30105,31946,45294,4766,-2942,990,-3487,2823,-6227,-7469,98,408,-392,1,0,30,13,240,0,53298,1
2,31088,30112,31954,45295,4769,-2941,935,-3644,4112,-7070,-6789,109,409,-381,1,0,30,13,280,0,53298,1
2,31077,30106,31960,45296,4772,-3222,223,-3359,3026,-6833,-7176,111,417,-371,1,0,30,13,320,0,53298,1
2,31078,30112,31971,45297,4776,-3346,512,-3118,3307,-6566,-7269,125,427,-363,1,0,30,13,360,0,53298,1
2,31070,30083,31967,45298,4779,-3358,460,-2964,3771,-6510,-6602,134,432,-362,1,0,30,13,400,0,53298,1
2,31060,30113,31966,45299,4783,-3447,-89,-2974,3513,-6205,-5945,149,437,-351,1,0,30,13,440,0,53298,1
2,31053,30119,31975,45300,4788,-3809,147,-3064,3785,-5535,-5309,159,435,-343,1,0,30,13,480,0,53298,1
2,31064,30127,31979,45301,4792,-3767,302,-2849,2918,-6098,-4538,162,436,-334,1,0,30,13,520,0,53298,1
2,31079,30127,31996,45302,4796,-3897,-101,-2559,259,-6961,-3280,161,445,-339,1,0,30,13,560,0,53298,1
2,31098,30158,32031,45303,4801,-4344,-1325,-2613,-2288,-6579,-2646,167,451,-319,1,0,30,13,600,0,53298,1
2,31134,30197,32102,45304,4805,-4119,-930,-2285,1378,-6491,-4238,166,452,-304,1,0,30,13,640,0,53298,1
2,31174,30280,32146,45305,4808,-4483,-1030,-2344,1153,-6825,-4902,182,458,-302,1,0,30,13,680,0,53298,1
2,31202,30622,32176,45306,4812,-4206,-738,-2131,2312,-7680,-5747,187,457,-277,1,0,30,13,720,0,53298,1
2,31217,30265,32160,45307,4817,-4025,-592,-2003,1118,-7827,-5846,197,455,-273,1,0,30,13,760,0,53298,1
2,31236,30593,32174,45308,4822,-4058,-483,-2159,-798,-7693,-5707,211,453,-253,1,0,30,13,800,0,53298,1
2,31255,30446,32180,45309,4826,-3984,-429,-2176,-1269,-6943,-5393,214,444,-256,1,0,30,13,840,0,53298,1
2,31267,30497,32189,45310,4832,-4042,-380,-2301,-802,-6448,-4201,218,454,-256,1,0,30,13,880,0,53298,1
2,31270,30498,32182,45311,4836,-4035,-144,-2356,-159,-4708,-3462,225,461,-249,1,0,30,13,920,0,53298,1
2,31273,30380,32184,45312,4836,-4003,-406,-1709,-364,-4004,-1800,225,459,-233,1,0,30,13,960,0,53298,1
1,31277,30326,32174,45313,4245,-4211,-995,-1994,-903,-4011,-1168,233,451,-231,1,0,30,14,0,1,53298,1
2,31266,30217,32175,45314,4249,-3912,-525,-3472,362,-2470,-1203,233,453,-231,1,0,30,14,40,1,53298,1
2,31270,30544,32188,45315,4253,-4297,-1313,-1299,-530,680,-331,227,455,-237,1,0,30,14,80,1,53298,1
2,31274,30377,32193,45316,4256,-4384,-1200,-533,701,-98,145,228,456,-236,1,0,30,14,120,1,53298,1
2,31277,30493,32193,45317,4259,-4288,-1034,-1728,-103,233,-280,222,450,-244,1,0,30,14,160,1,53298,1
2,32709,31276,33673,45318,4262,-4471,-1259,-1301,812,393,-677,227,453,-243,1,0,30,14,200,1,53298,1
2,31715,30709,32698,45319,4266,-4318,-1400,-1247,1498,159,-504,228,452,-242,1,0,30,14,240,1,53298,1
2,31552,30737,32469,45320,4269,-4282,-1252,-1441,719,483,-341,229,453,-235,1,0,30,14,280,1,53298,1
2,31656,30815,32569,45321,4273,-4321,-1232,-1361,1047,243,-399,226,454,-236,1,0,30,14,320,1,53298,1
2,31566,30781,32495,45322,4276,-4313,-1295,-1359,720,236,-416,232,448,-242,1,0,30,14,360,1,53298,1
2,31471,30729,32366,45323,4279,-4273,-1312,-1415,447,254,-217,234,450,-244,1,0,30,14,400,1,53298,1
2,31402,30677,32317,45324,4283,-4250,-1311,-1400,304,60,-65,234,452,-242,1,0,30,14,440,1,53298,1
2,31397,30575,32317,45325,4287,-4267,-1287,-1397,90,-22,-13,230,456,-236,1,0,30,14,480,1,53298,1
2,31398,30527,32305,45326,4291,-4270,-1297,-1373,172,17,-76,226,446,-234,1,0,30,14,520,1,53298,1
2,31370,30485,32285,45327,4296,-4262,-1309,-1380,236,46,-114,223,445,-239,1,0,30,14,560,1,53298,1
2,31355,30439,32268,45328,4300,-4267,-1317,-1404,230,70,-107,238,452,-246,1,0,30,14,600,1,53298,1
2,31347,30402,32265,45329,4305,-4271,-1327,-1408,126,57,-62,236,452,-244,1,0,30,14,640,1,53298,1
2,31355,30389,32264,45330,4309,-4256,-1312,-1381,31,3,-6,229,455,-239,1,0,30,14,680,1,53298,1
2,31351,30418,32266,45331,4315,-4271,-1312,-1394,1,-10,13,233,453,-237,1,0,30,14,720,1,53298,1
2,31362,30432,32275,45332,4319,-4264,-1317,-1401,41,-11,-8,229,457,-241,1,0,30,14,760,1,53298,1
2,31362,30495,32280,45333,4324,-4251,-1319,-1392,76,7,-20,225,447,-245,1,0,30,14,800,1,53298,1
2,31359,30487,32277,45334,4328,-4254,-1315,-1400,55,24,-13,235,447,-233,1,0,30,14,840,1,53298,1
2,31354,30480,32273,45335,4331,-4262,-1312,-1410,20,1,2,236,452,-230,1,0,30,14,880,1,53298,1
2,31351,30490,32269,45336,4335,-4260,-1324,-1389,-1,-11,15,230,452,-232,1,0,30,14,920,1,53298,1
2,31352,30491,32270,45337,4335,-4261,-1319,-1392,-8,-16,23,222,454,-234,1,0,30,14,960,1,53298,1
1,31351,30510,32261,45338,3747,-4279,-1306,-1406,-1,-13,15,229,447,-231,1,0,30,15,0,1,53298,1
2,31340,30530,32252,45339,3750,-4281,-1315,-1408,112,-16,27,233,457,-241,1,0,30,15,40,1,53298,1
2,31332,30530,32243,45340,3754,-4388,-1279,-1552,178,-1,80,230,448,-232,1,0,30,15,80,1,53298,1
2,31320,30569,32221,45341,3758,-4351,-1136,-1857,556,98,239,234,450,-236,1,0,30,15,120,1,53298,1
2,31285,30385,32176,45342,3761,-3927,-971,-2151,0,874,634,228,448,-240,1,0,30,15,160,1,53298,1
2,31260,30576,32151,45343,3765,-3689,-396,-2657,-572,3299,2289,224,454,-260,1,0,30,15,200,1,53298,1
2,31227,29989,32105,45344,3769,-3731,-9,-2971,-276,5605,3584,221,455,-261,1,0,30,15,240,1,53298,1
2,31223,30388,32096,45345,3773,-3855,-264,-3042,-876,8138,4550,211,459,-275,1,0,30,15,280,1,53298,1
2,31186,30422,32063,45346,3777,-4242,-324,-3069,-1083,10983,5342,200,448,-298,1,0,30,15,320,1,53298,1
2,31163,30469,32010,45347,3781,-4642,80,-2857,1325,12725,6285,189,451,-321,1,0,30,15,360,1,53298,1
2,31157,30460,31964,45348,3784,-4817,65,-2653,1306,12872,7653,171,445,-329,1,0,30,15,400,1,53298,1
2,31144,30231,31922,45349,3788,-4870,-600,-2526,-2275,13371,9606,159,445,-349,1,0,30,15,440,1,53298,1
2,31125,30073,31891,45350,3792,-4905,-1051,-2522,-6073,13615,10790,149,429,-365,1,0,30,15,480,1,53298,1
2,31108,30066,31877,45351,3796,-4381,-727,-2388,-6758,12322,10299,128,426,-376,1,0,30,15,520,1,53298,1
2,31100,30246,31863,45352,3799,-3589,-318,-2412,-5455,9666,9009,118,416,-382,1,0,30,15,560,1,53298,1
2,31100,30295,31849,45353,3802,-2904,-154,-2742,-3974,7459,8161,109,407,-389,1,0,30,15,600,1,53298,1
2,31090,30356,31844,45354,3805,-2555,-43,-2863,-3505,6917,7552,90,400,-398,1,0,30,15,640,1,53298,1
2,31093,30369,31831,45355,3809,-2519,247,-3063,-4640,6847,7236,82,388,-406,1,0,30,15,680,1,53298,1
2,31087,30328,31824,45356,3812,-2538,218,-3165,-4063,6084,6358,74,378,-404,1,0,30,15,720,1,53298,1
2,31089,30478,31816,45357,3816,-2314,578,-3550,-2159,5200,5245,75,373,-419,1,0,30,15,760,1,53298,1
2,31095,30480,31813,45358,3819,-2065,705,-3465,207,5243,4429,66,366,-408,1,0,30,15,800,1,53298,1
2,31091,30456,31804,45359,3822,-1935,743,-3465,-25,5847,4383,66,360,-418,1,0,30,15,840,1,53298,1
2,31087,30419,31800,45360,3825,-1875,827,-3417,-36,6141,4094,56,346,-428,1,0,30,15,880,1,53298,1
2,31089,30398,31792,45361,3828,-1667,865,-3255,1013,5645,3622,65,343,-431,1,0,30,15,920,1,53298,1
2,31089,30375,31784,45362,3828,-1500,828,-3222,1181,5167,3152,64,342,-434,1,0,30,15,960,1,53298,1
1,31090,30370,31781,45363,3249,-1332,745,-3040,798,4567,3060,60,336,-440,1,0,30,16,0,1,53298,1
2,31109,30321,31792,45364,3252,-1039,401,-2509,-658,3198,2474,57,333,-435,1,0,30,16,40,1,53298,1
2,31127,30451,31807,45365,3256,-1105,451,-2534,-3121,3009,1765,54,324,-426,1,0,30,16,80,1,53298,1
2,31112,30215,31822,45366,3260,-1316,973,-3704,-3790,3203,1554,41,325,-437,1,0,30,16,120,1,53298,1
2,31140,30444,31864,45367,3265,-1002,950,-3657,-804,2942,2252,49,307,-437,1,0,30,16,160,1,53298,1
2,31228,30598,31945,45368,3271,-958,1384,-3990,62,3523,1996,42,310,-438,1,0,30,16,200,1,53298,1
2,35651,31256,33323,45369,3278,-1068,1379,-3799,-1509,3571,1982,38,308,-442,1,0,30,16,240,1,53298,1
2,31885,30908,32592,45370,3286,-778,1371,-3892,-3151,1878,965,43,301,-445,1,0,30,16,280,1,53298,1
2,32068,30915,33159,45371,3293,-624,1134,-3684,-2397,1462,865,41,301,-439,1,0,30,16,320,1,53298,1
2,31618,30718,32241,45372,3302,-721,1270,-3297,-704,1430,844,39,305,-437,1,0,30,16,360,1,53298,1
2,37918,33588,35279,45373,3312,-744,1326,-3434,-143,992,675,41,301,-437,1,0,30,16,400,1,53298,1
2,39124,34345,40216,45374,3322,-650,1382,-3470,-594,494,394,29,303,-447,1,0,30,16,440,1,53298,1
2,38748,40093,40229,45375,3333,-662,1386,-3622,-13,448,517,31,305,-429,1,0,30,16,480,1,53298,1
2,32766,30885,36807,45376,3344,-707,1366,-3639,38,240,428,32,298,-428,1,0,30,16,520,1,53298,1
2,39242,34430,39990,45377,3354,-590,1395,-3658,-82,102,236,35,313,-435,1,0,30,16,560,1,53298,1
2,39044,34287,39938,45378,3365,-709,1322,-3578,383,224,356,30,306,-444,1,0,30,16,600,1,53298,1
2,38546,33798,39410,45379,3377,-666,1340,-3598,284,-23,122,42,308,-444,1,0,30,16,640,1,53298,1
2,38177,34830,38896,45380,3387,-700,1319,-3579,-101,-57,-71,38,304,-438,1,0,30,16,680,1,53298,1
2,38347,33765,39103,45381,3397,-623,1317,-3522,-366,-268,-326,33,303,-437,1,0,30,16,720,1,53298,1
2,37992,33416,38899,45382,3408,-697,1347,-3567,-268,-315,-342,38,300,-440,1,0,30,16,760,1,53298,1
2,37767,33450,38445,45383,3418,-660,1360,-3649,-412,-427,-479,33,303,-441,1,0,30,16,800,1,53298,1
2,31549,30708,32336,45384,3427,-673,1293,-3731,-408,-368,-400,32,298,-428,1,0,30,16,840,1,53298,1
2,33832,34679,34243,45385,3436,-649,1513,-3820,236,-211,-216,33,305,-441,1,0,30,16,880,1,53298,1
2,36379,32502,36556,45386,3444,-886,1575,-3971,572,55,25,35,311,-441,1,0,30,16,920,1,53298,1
2,37398,33352,38177,45387,3444,-922,1831,-4063,-777,-2741,-1435,26,316,-436,1,0,30,16,960,1,53298,1
1,37107,33164,37848,45388,2752,-674,1976,-4350,784,-3841,-565,39,309,-437,1,0,30,17,0,1,53298,1
2,36862,33343,38033,45389,2756,-982,1554,-3794,1886,-1212,1028,49,311,-437,1,0,30,17,40,1,53298,1
2,32080,31017,32914,45390,2760,-994,1204,-3203,6720,151,-76,57,315,-447,1,0,30,17,80,1,53298,1
2,36997,30849,34453,45391,2764,-677,945,-3293,6679,-919,61,47,309,-441,1,0,30,17,120,1,53298,1
2,36611,32964,37515,45392,2768,-833,400,-3414,461,-426,173,55,313,-445,1,0,30,17,160,1,53298,1
2,31888,30811,32547,45393,2772,-1081,905,-3238,192,-1264,-428,50,312,-444,1,0,30,17,200,1,53298,1
2,35330,33060,37753,45394,2777,-958,736,-3167,2912,-2072,-2814,51,317,-449,1,0,30,17,240,1,53298,1
2,33674,32493,34020,45395,2781,-961,783,-3278,1230,-4791,-2979,57,329,-437,1,0,30,17,280,1,53298,1
2,34140,31502,35226,45396,2785,-1297,677,-3255,-870,-4504,-2574,58,336,-430,1,0,30,17,320,1,53298,1
2,35677,31822,37019,45397,2791,-1214,598,-3426,200,-4248,-2875,60,340,-438,1,0,30,17,360,1,53298,1
2,31083,30516,31908,45398,2795,-1442,745,-3277,478,-4829,-2974,67,349,-433,1,0,30,17,400,1,53298,1
2,31150,30468,31973,45399,2801,-1602,558,-3329,247,-5536,-3225,62,354,-414,1,0,30,17,440,1,53298,1
2,31877,30922,32595,45400,2806,-1726,548,-2938,-206,-5942,-4154,67,363,-419,1,0,30,17,480,1,53298,1
2,32245,31040,33195,45401,2811,-2004,482,-3146,-1082,-7084,-4513,68,372,-410,1,0,30,17,520,1,53298,1
2,31985,30983,32930,45402,2815,-1861,590,-3551,-1644,-7009,-4281,68,388,-408,1,0,30,17,560,1,53298,1
2,31700,30794,32599,45403,2820,-2263,499,-3200,-180,-5804,-4611,75,377,-405,1,0,30,17,600,1,53298,1
2,31562,30726,32453,45404,2822,-2770,812,-3443,922,-6304,-5473,88,394,-386,1,0,30,17,640,1,53298,1
2,31540,30751,32453,45405,2826,-2658,983,-3635,573,-6695,-6353,86,398,-380,1,0,30,17,680,1,53298,1
2,31795,30867,32677,45406,2829,-2860,65,-3218,207,-6232,-6650,106,404,-380,1,0,30,17,720,1,53298,1
2,32414,31197,33440,45407,2833,-3184,134,-2863,2596,-6251,-7040,111,413,-371,1,0,30,17,760,1,53298,1
2,33014,31586,33540,45408,2837,-3366,-87,-2802,4681,-6339,-8262,120,428,-366,1,0,30,17,800,1,53298,1
2,31505,30650,32312,45409,2841,-3486,49,-2847,6062,-7217,-8262,139,423,-361,1,0,30,17,840,1,53298,1
2,31122,30469,32043,45410,2844,-3384,14,-2908,4240,-8312,-7367,144,442,-340,1,0,30,17,880,1,53298,1
2,31496,30642,32398,45411,2846,-3623,-199,-2774,1627,-8222,-6413,157,439,-343,1,0,30,17,920,1,53298,1
2,31228,30532,32161,45412,2846,-3869,-482,-2435,1916,-8283,-5685,172,444,-328,1,0,30,17,960,1,53298,1
1,31163,30497,32125,45413,2254,-4451,-889,-1997,2252,-10108,-6228,173,457,-311,1,0,30,18,0,0,53298,1
2,31180,30505,32160,45414,2258,-4710,-841,-1773,2677,-10898,-6019,188,448,-300,1,0,30,18,40,0,53298,1
2,31256,30530,32223,45415,2262,-4728,-740,-2264,1012,-10778,-6681,191,451,-291,1,0,30,18,80,0,53298,1
2,31326,30546,32287,45416,2266,-4543,-351,-2382,-718,-9809,-6066,200,450,-268,1,0,30,18,120,0,53298,1
2,31360,30482,32330,45417,2270,-4163,-241,-2616,-1587,-8187,-5033,207,457,-261,1,0,30,18,160,0,53298,1
2,31406,30617,32336,45418,2275,-3925,6,-2192,-1779,-6499,-3344,220,446,-246,1,0,30,18,200,0,53298,1
2,31423,30736,32344,45419,2278,-3976,-350,-2499,-2547,-3508,-2185,220,444,-240,1,0,30,18,240,0,53298,1
2,31434,30666,32348,45420,2282,-3824,330,-3882,-2517,776,-568,216,440,-248,1,0,30,18,280,0,53298,1
2,31435,30703,32353,45421,2287,-4277,-659,-2717,-559,358,-187,219,455,-253,1,0,30,18,320,0,53298,1
2,31432,30591,32348,45422,2291,-4265,-1260,-871,2483,69,-484,228,456,-244,1,0,30,18,360,0,53298,1
2,31430,30533,32348,45423,2295,-4227,-1233,-1232,356,105,-235,222,452,-242,1,0,30,18,400,0,53298,1
2,31551,30745,32475,45424,2300,-4439,-950,-1854,-305,-13,-369,226,454,-246,1,0,30,18,440,0,53298,1
2,31363,30684,32282,45425,2304,-4296,-1236,-1373,1171,276,-416,228,448,-234,1,0,30,18,480,0,53298,1
2,31348,30627,32250,45426,2308,-4329,-1274,-1306,1407,573,-289,215,447,-239,1,0,30,18,520,0,53298,1
2,31367,30702,32275,45427,2312,-4424,-1162,-1456,1356,486,-391,233,453,-241,1,0,30,18,560,0,53298,1
2,31420,30704,32323,45428,2316,-4257,-1224,-1487,1100,306,-307,218,456,-246,1,0,30,18,600,0,53298,1
2,31370,30702,32277,45429,2319,-4219,-1253,-1490,733,54,-130,218,452,-238,1,0,30,18,640,0,53298,1
2,31349,30649,32257,45430,2323,-4268,-1237,-1480,244,-59,-22,230,454,-242,1,0,30,18,680,0,53298,1
2,31345,30617,32244,45431,2327,-4253,-1219,-1453,122,34,-30,221,455,-245,1,0,30,18,720,0,53298,1
2,31340,30628,32247,45432,2330,-4244,-1229,-1465,138,80,-98,221,447,-245,1,0,30,18,760,0,53298,1
2,31341,30632,32246,45433,2333,-4242,-1248,-1480,207,97,-108,223,451,-249,1,0,30,18,800,0,53298,1
2,31334,30638,32240,45434,2336,-4235,-1245,-1486,225,75,-65,228,458,-246,1,0,30,18,840,0,53298,1
2,31333,30648,32238,45435,2339,-4240,-1242,-1491,169,40,-35,219,451,-239,1,0,30,18,880,0,53298,1
2,31324,30647,32227,45436,2343,-4232,-1226,-1493,106,26,5,221,453,-247,1,0,30,18,920,0,53298,1
2,31319,30651,32224,45437,2343,-4227,-1235,-1489,28,-1,10,225,445,-243,1,0,30,18,960,0,53298,1
1,31311,30662,32216,45438,1757,-4240,-1252,-1501,-11,-11,34,225,455,-249,1,0,30,19,0,1,53298,1
2,31309,30669,32211,45439,1761,-4251,-1245,-1501,108,-31,29,230,452,-246,1,0,30,19,40,1,53298,1
2,31304,30673,32201,45440,1765,-4243,-1237,-1480,114,11,35,230,454,-254,1,0,30,19,80,1,53298,1
2,31299,30677,32201,45441,1768,-4229,-1282,-1497,45,-81,123,220,452,-240,1,0,30,19,120,1,53298,1
2,31295,30674,32199,45442,1771,-4299,-1223,-1549,62,-9,119,229,453,-251,1,0,30,19,160,1,53298,1
2,31292,30675,32190,45443,1774,-4238,-1240,-1577,28,-59,194,227,457,-245,1,0,30,19,200,1,53298,1
2,31291,30679,32193,45444,1778,-4149,-1291,-1370,-447,-158,328,229,455,-249,1,0,30,19,240,1,53298,1
2,31291,30685,32196,45445,1782,-4194,-1269,-1367,-433,-32,292,217,453,-245,1,0,30,19,280,1,53298,1
2,31293,30680,32193,45446,1785,-4296,-1129,-1451,153,-39,-146,225,453,-243,1,0,30,19,320,1,53298,1
2,31294,30670,32198,45447,1789,-4249,-1256,-1537,213,135,-159,223,453,-241,1,0,30,19,360,1,53298,1
2,31300,30650,32200,45448,1792,-4213,-1256,-1516,141,86,-48,231,461,-249,1,0,30,19,400,1,53298,1
2,31303,30650,32204,45449,1796,-4249,-1205,-1469,-61,78,-9,234,452,-250,1,0,30,19,440,1,53298,1
2,31302,30641,32204,45450,1800,-4236,-1254,-1509,-213,-93,112,234,452,-234,1,0,30,19,480,1,53298,1
2,31304,30613,32204,45451,1804,-4227,-1225,-1504,-141,-153,102,220,454,-244,1,0,30,19,520,1,53298,1
2,31303,30590,32206,45452,1808,-4218,-1225,-1446,-43,3,19,230,452,-254,1,0,30,19,560,1,53298,1
2,31305,30604,32206,45453,1813,-4265,-1223,-1486,187,103,-77,225,457,-249,1,0,30,19,600,1,53298,1
2,31304,30590,32203,45454,1816,-4242,-1228,-1483,110,105,-57,225,443,-249,1,0,30,19,640,1,53298,1
2,31303,30577,32202,45455,1819,-4248,-1248,-1497,-21,-28,21,224,456,-244,1,0,30,19,680,1,53298,1
2,31300,30569,32201,45456,1822,-4229,-1233,-1497,-38,-41,16,222,450,-248,1,0,30,19,720,1,53298,1
2,31299,30583,32202,45457,1825,-4232,-1241,-1481,16,-2,-3,221,453,-247,1,0,30,19,760,1,53298,1
2,31303,30591,32204,45458,1829,-4240,-1221,-1473,81,45,-39,226,452,-252,1,0,30,19,800,1,53298,1
2,31302,30575,32201,45459,1832,-4250,-1218,-1490,144,39,-46,226,448,-242,1,0,30,19,840,1,53298,1
2,31305,30570,32206,45460,1836,-4216,-1250,-1487,51,-8,20,229,461,-241,1,0,30,19,880,1,53298,1
2,31300,30596,32199,45461,1840,-4279,-1208,-1515,97,-53,26,225,445,-243,1,0,30,19,920,1,53298,1
2,31300,30604,32201,45462,1840,-4230,-1243,-1541,63,-127,44,229,453,-249,1,0,30,19,960,1,53298,1
1,31300,30607,32205,45463,1260,-4254,-1235,-1548,36,-49,22,226,448,-242,1,0,30,20,0,1,53298,1
2,31300,30611,32201,45464,1264,-4263,-1235,-1653,89,82,78,220,450,-246,1,0,30,20,40,1,53298,1
2,31296,30605,32198,45465,1266,-4193,-1176,-1838,342,809,204,226,448,-246,1,0,30,20,80,1,53298,1
2,31291,30594,32191,45466,1269,-4074,-1099,-1985,821,1691,524,214,448,-250,1,0,30,20,120,1,53298,1
2,31276,30606,32181,45467,1272,-4014,-990,-2019,1147,2645,912,226,448,-250,1,0,30,20,160,1,53298,1
2,31266,30572,32174,45468,1276,-3976,-920,-1587,1544,3001,1062,220,454,-262,1,0,30,20,200,1,53298,1
2,31265,30569,32177,45469,1279,-4022,-1161,-1558,1342,2448,810,219,457,-263,1,0,30,20,240,1,53298,1
2,31260,30570,32176,45470,1283,-4272,-1319,-1531,884,2068,534,217,459,-267,1,0,30,20,280,1,53298,1
2,31256,30567,32178,45471,1287,-4300,-1352,-2037,527,2281,872,219,451,-265,1,0,30,20,320,1,53298,1
2,31240,30585,32155,45472,1290,-4029,-874,-2541,363,3843,2030,214,452,-274,1,0,30,20,360,1,53298,1
2,31230,30502,32133,45473,1294,-3733,-490,-2692,110,5007,2907,203,451,-265,1,0,30,20,400,1,53298,1
2,31217,30490,32103,45474,1298,-3793,-368,-2919,-1178,6399,4256,196,462,-284,1,0,30,20,440,1,53298,1
2,31200,30497,32074,45475,1302,-3922,-234,-2883,-2649,8186,5741,192,450,-292,1,0,30,20,480,1,53298,1
2,31192,30508,32043,45476,1306,-4226,-280,-2681,-2249,8865,6537,190,446,-314,1,0,30,20,520,1,53298,1
2,31183,30499,32014,45477,1310,-4693,-522,-2537,-2437,8635,6753,176,452,-322,1,0,30,20,560,1,53298,1
2,31181,30511,31995,45478,1314,-4715,-787,-2415,-2861,8304,6735,171,449,-327,1,0,30,20,600,1,53298,1
2,31170,30500,31977,45479,1317,-4245,-932,-2459,-3234,7860,6143,148,430,-352,1,0,30,20,640,1,53298,1
2,31159,30497,31960,45480,1322,-3812,-737,-2499,-2675,7324,5487,141,435,-355,1,0,30,20,680,1,53298,1
2,31156,30506,31948,45481,1326,-3382,-587,-2541,-1921,6611,5045,136,424,-366,1,0,30,20,720,1,53298,1
2,31149,30499,31934,45482,1330,-3149,-456,-2714,-1822,5872,4823,130,422,-368,1,0,30,20,760,1,53298,1
2,31145,30508,31923,45483,1334,-3110,-333,-3048,-1854,4997,4290,128,418,-382,1,0,30,20,800,1,53298,1
2,31143,30496,31911,45484,1338,-3061,1,-3272,-1692,4340,3980,120,418,-386,1,0,30,20,840,1,53298,1
2,31140,30512,31900,45485,1342,-2976,312,-3293,-3017,4464,4343,109,407,-385,1,0,30,20,880,1,53298,1
2,31141,30507,31890,45486,1346,-2991,249,-3299,-3600,4665,4355,107,409,-385,1,0,30,20,920,1,53298,1
2,31136,30506,31891,45487,1346,-2947,238,-3317,-2755,4609,4070,109,393,-387,1,0,30,20,960,1,53298,1
1,31133,30493,31884,45488,764,-2773,434,-3215,-1272,4780,3701,97,389,-397,1,0,30,21,0,0,53298,1
2,31136,30510,31880,45489,768,-2517,356,-3119,-373,4786,3507,80,398,-392,1,0,30,21,40,0,53298,1
2,31133,30524,31878,45490,772,-2426,496,-2995,-46,4190,3033,78,394,-402,1,0,30,21,80,0,53298,1
2,31133,30533,31875,45491,777,-2308,561,-3129,-107,3264,2546,78,382,-410,1,0,30,21,120,0,53298,1
2,31132,30550,31872,45492,781,-2211,497,-3192,-393,2725,2193,80,382,-406,1,0,30,21,160,0,53298,1
2,31133,30557,31865,45493,784,-2097,662,-3449,-599,2437,1997,77,375,-415,1,0,30,21,200,0,53298,1
2,31135,30550,31864,45494,788,-2102,744,-3619,-276,2261,1869,78,368,-424,1,0,30,21,240,0,53298,1
2,31137,30544,31859,45495,792,-2047,701,-3665,-85,2399,1883,68,370,-410,1,0,30,21,280,0,53298,1
2,31132,30554,31859,45496,796,-1926,853,-3704,-33,2752,1893,69,371,-421,1,0,30,21,320,0,53298,1
2,31135,30560,31859,45497,800,-1920,881,-3719,310,2957,2026,71,361,-419,1,0,30,21,360,0,53298,1
2,31134,30562,31857,45498,804,-1809,748,-3596,215,3300,2231,76,362,-432,1,0,30,21,400,0,53298,1
2,31135,30570,31857,45499,808,-1779,830,-3547,311,3304,2151,65,357,-433,1,0,30,21,440,0,53298,1
2,31137,30563,31845,45500,812,-1687,697,-3529,174,3149,2068,58,352,-430,1,0,30,21,480,0,53298,1
2,31138,30570,31849,45501,816,-1592,701,-3387,359,2998,1852,62,344,-438,1,0,30,21,520,0,53298,1
2,31143,30556,31848,45502,821,-1474,738,-3432,95,2526,1702,68,338,-438,1,0,30,21,560,0,53298,1
2,31145,30555,31845,45503,826,-1455,715,-3450,-36,2206,1384,66,338,-444,1,0,30,21,600,0,53298,1
2,31149,30570,31845,45504,831,-1399,704,-3494,-299,1673,1050,66,332,-442,1,0,30,21,640,0,53298,1
2,31145,30539,31846,45505,836,-1334,765,-3667,-770,1228,912,54,334,-438,1,0,30,21,680,0,53298,1
2,31147,30560,31846,45506,840,-1277,905,-3805,-595,1416,800,56,332,-430,1,0,30,21,720,0,53298,1
2,31149,30559,31846,45507,845,-1302,840,-3624,111,1360,770,57,329,-443,1,0,30,21,760,0,53298,1
2,31155,30583,31855,45508,850,-1213,896,-3698,-179,1286,685,61,333,-441,1,0,30,21,800,0,53298,1
2,31160,30564,31856,45509,854,-1193,825,-3428,-607,1206,686,59,329,-441,1,0,30,21,840,0,53298,1
2,31161,30586,31861,45510,859,-1160,972,-3602,-1112,844,668,59,325,-441,1,0,30,21,880,0,53298,1
2,31161,30538,31860,45511,864,-1064,855,-3370,-1142,1758,969,50,324,-448,1,0,30,21,920,0,53298,1
2,31181,30543,31887,45512,864,-1091,818,-3727,-904,1889,1344,55,323,-451,1,0,30,21,960,0,53298,1
1,31211,30467,31915,45513,267,-1018,1012,-3710,-585,2577,1390,61,315,-443,1,0,30,22,0,0,53298,1
3,31528,30797,32178,45514,275,-995,1040,-3769,-306,2622,1541,46,324,-444,1,0,30,22,40,0,53298,1
3,31431,31098,32480,45515,282,-862,1113,-3789,-878,2186,1187,48,306,-446,1,0,30,22,80,0,53298,1
0,34961,30796,35312,45516,289,-862,1113,-3789,-878,2186,1187,50,308,-452,1,0,30,22,120,0,53298,1
2,32865,31704,32987,45517,297,-752,964,-3608,-854,1600,1029,47,313,-445,1,0,30,22,160,0,53298,1
2,31308,30426,32050,45518,306,-861,1098,-3634,-630,1156,747,49,309,-453,1,0,30,22,200,0,53298,1
2,31645,30980,33629,45519,314,-741,1104,-3577,-575,515,391,42,308,-452,1,0,30,22,240,0,53298,1
2,31508,30530,32232,45520,322,-735,1090,-3564,-603,468,358,43,307,-459,1,0,30,22,280,0,53298,1
2,31440,30592,32290,45521,331,-708,1182,-3630,-1073,416,371,34,306,-450,1,0,30,22,320,0,53298,1
2,33556,32773,32651,45522,341,-662,1098,-3610,-1535,335,309,39,301,-455,1,0,30,22,360,0,53298,1
2,34108,30732,37802,45523,351,-705,1120,-3670,-1192,200,264,45,307,-457,1,0,30,22,400,0,53298,1
2,38118,33493,37960,45524,361,-686,1123,-3650,-622,60,178,40,294,-448,1,0,30,22,440,0,53298,1
2,38511,33957,39510,45525,371,-682,1242,-3739,71,121,247,43,301,-449,1,0,30,22,480,0,53298,1
2,31751,30792,32399,45526,382,-690,1221,-3728,185,190,258,40,310,-448,1,0,30,22,520,0,53298,1
2,31928,30683,32636,45527,393,-640,1208,-3767,-176,165,140,47,299,-453,1,0,30,22,560,0,53298,1
2,38576,33918,39253,45528,404,-672,1172,-3647,25,282,233,41,311,-445,1,0,30,22,600,0,53298,1
2,38491,33863,39057,45529,415,-679,1211,-3618,107,283,246,44,302,-446,1,0,30,22,640,0,53298,1
2,38277,34123,39010,45530,425,-683,1165,-3596,23,269,216,40,296,-458,1,0,30,22,680,0,53298,1
2,38040,37171,38706,45531,437,-688,1203,-3583,14,80,63,34,302,-454,1,0,30,22,720,0,53298,1
2,37837,36577,38565,45532,447,-654,1165,-3566,-219,-161,-158,45,307,-445,1,0,30,22,760,0,53298,1
2,37936,36751,38607,45533,457,-669,1232,-3638,-126,-225,-186,46,302,-450,1,0,30,22,800,0,53298,1
2,38026,35849,38647,45534,466,-660,1191,-3654,-297,-252,-229,32,304,-442,1,0,30,22,840,0,53298,1
2,37796,35388,38501,45535,475,-674,1209,-3719,-101,-176,-132,34,300,-442,1,0,30,22,880,0,53298,1
2,37974,34757,38720,45536,484,-701,1171,-3663,-61,-175,-163,36,296,-442,1,0,30,22,920,0,53298,1
2,37835,34249,38535,45537,484,-674,1243,-3695,292,-258,-105,38,308,-434,1,0,30,22,960,0,53298,1
1,37385,35460,37733,45538,0,-720,1125,-3654,643,-167,-59,36,302,-446,1,0,30,23,0,0,53298,1
2,31718,30534,32453,45539,39781,-713,1228,-3733,852,-319,-117,35,299,-443,1,0,30,23,40,0,53298,1
2,34097,33171,35663,45540,39789,-868,1281,-3706,955,-775,-374,34,300,-450,1,0,30,23,80,0,53298,1
2,36345,31025,32410,45541,39796,-530,910,-3479,199,-2467,-1003,37,311,-451,1,0,30,23,120,0,53298,1
2,34012,33485,36917,45542,39801,-965,1318,-3619,1003,-1360,-220,44,306,-446,1,0,30,23,160,0,53298,1
2,35556,32786,36046,45543,39806,-991,1103,-3566,-321,-2588,-1146,47,309,-449,1,0,30,23,200,0,53298,1
2,31307,30232,32179,45544,39811,-648,1270,-3390,479,-2711,-1238,40,312,-442,1,0,30,23,240,0,53298,1
2,36011,31731,34831,45545,39817,-1121,1067,-3631,131,-917,-658,46,314,-430,1,0,30,23,280,0,53298,1
2,32451,31268,32969,45546,39822,-1120,1039,-3789,-1363,-2030,-1441,46,316,-440,1,0,30,23,320,0,53298,1
2,32899,32831,35952,45547,39827,-814,1176,-3662,-259,-2450,-1575,52,328,-434,1,0,30,23,360,0,53298,1
2,37084,33321,37954,45548,39832,-1145,1351,-3679,780,-730,-488,41,329,-429,1,0,30,23,400,0,53298,1
2,36872,33205,37637,45549,39836,-1223,1210,-3410,3234,-827,-288,47,319,-431,1,0,30,23,440,0,53298,1
2,33971,31390,33563,45550,39841,-1020,1109,-3663,1738,-1708,-910,48,332,-442,1,0,30,23,480,0,53298,1
2,36870,33184,36635,45551,39845,-1264,1112,-3658,-516,-875,-570,43,329,-433,1,0,30,23,520,0,53298,1
2,36714,33040,37221,45552,39849,-1269,899,-3598,967,-1431,-589,50,330,-440,1,0,30,23,560,0,53298,1
2,33160,31281,33529,45553,39852,-1307,936,-3705,1524,-2308,-1251,64,328,-436,1,0,30,23,600,0,53298,1
2,31898,30956,32891,45554,39857,-1305,783,-3587,750,-2378,-1221,49,337,-441,1,0,30,23,640,0,53298,1
2,32003,30993,32610,45555,39862,-1517,768,-3546,-64,-3151,-1249,54,336,-424,1,0,30,23,680,0,53298,1
2,31675,30902,32559,45556,39867,-1730,964,-3435,1061,-4314,-1815,63,345,-427,1,0,30,23,720,0,53298,1
2,36961,33205,37830,45557,39872,-1554,818,-3525,527,-5481,-2574,60,350,-432,1,0,30,23,760,0,53298,1
2,35728,32246,37342,45558,39878,-1525,878,-3345,-147,-4691,-3267,67,363,-429,1,0,30,23,800,0,53298,1
2,31694,31390,32179,45559,39884,-1618,720,-3672,-1092,-3036,-1905,59,357,-405,1,0,30,23,840,0,53298,1
2,33759,32430,36994,45560,39890,-1844,810,-3440,274,-1877,-1643,66,372,-404,1,0,30,23,880,0,53298,1
2,31560,30834,32424,45561,39897,-1861,992,-3430,634,-1843,-1444,66,366,-420,1,0,30,23,920,0,53298,1
2,32895,31366,33578,45562,39903,-1938,563,-3306,-55,-1830,-1439,77,375,-423,1,0,30,23,960,0,53298,1
1,32069,30943,32868,45563,0,-2046,822,-3160,296,-2143,-1933,80,372,-414,1,0,30,24,0,0,53298,1
2,31894,30884,32719,45564,39283,-1998,386,-3146,-425,-3039,-2042,73,371,-417,1,0,30,24,40,0,53298,1
2,31744,30813,32559,45565,39289,-2159,659,-2982,-152,-3631,-2651,85,379,-407,1,0,30,24,80,0,53298,1
2,31687,30780,32512,45566,39294,-2244,668,-3209,-974,-4512,-2906,78,386,-400,1,0,30,24,120,0,53298,1
2,31682,30774,32519,45567,39300,-2387,604,-3282,-1057,-4517,-3291,80,388,-396,1,0,30,24,160,0,53298,1
2,31655,30770,32496,45568,39306,-2656,746,-3318,-462,-4609,-3645,85,399,-379,1,0,30,24,200,0,53298,1
2,31731,30806,32583,45569,39310,-2665,420,-3194,104,-4803,-3947,89,397,-393,1,0,30,24,240,0,53298,1
2,31731,30801,32591,45570,39316,-2783,315,-3003,981,-4735,-4617,95,405,-389,1,0,30,24,280,0,53298,1
2,31752,30812,32623,45571,39321,-2956,394,-2889,2066,-4893,-5159,98,402,-376,1,0,30,24,320,0,53298,1
2,31784,30814,32662,45572,39326,-2977,302,-2884,2647,-5212,-5271,114,410,-372,1,0,30,24,360,0,53298,1
2,31589,30764,32437,45573,39330,-3229,60,-2801,2549,-5524,-5327,124,420,-362,1,0,30,24,400,0,53298,1
2,31494,30732,32380,45574,39335,-3472,380,-2950,2938,-5753,-5294,127,429,-361,1,0,30,24,440,0,53298,1
2,31741,30848,32614,45575,39339,-3496,392,-3172,2530,-6110,-5010,136,434,-348,1,0,30,24,480,0,53298,1
2,32539,31158,33310,45576,39343,-3597,-232,-2831,1364,-5828,-4542,144,442,-344,1,0,30,24,520,0,53298,1
2,32390,31176,33297,45577,39346,-3895,-411,-2691,933,-5327,-4264,143,447,-329,1,0,30,24,560,0,53298,1
2,33772,31598,34718,45578,39351,-3970,-304,-2692,2393,-5951,-4834,155,441,-319,1,0,30,24,600,0,53298,1
2,31923,30903,32753,45579,39356,-3964,-446,-2745,2704,-6193,-5118,160,440,-318,1,0,30,24,640,0,53298,1
2,31669,30870,32687,45580,39361,-3938,-607,-2383,2450,-5984,-5008,169,457,-311,1,0,30,24,680,0,53298,1
2,31460,30702,32398,45581,39366,-4171,-620,-2351,1250,-5577,-4413,183,463,-303,1,0,30,24,720,0,53298,1
2,31413,30695,32378,45582,39371,-3924,-486,-2154,813,-5167,-4004,184,456,-298,1,0,30,24,760,0,53298,1
2,31372,30673,32335,45583,39376,-4135,-664,-2288,-394,-5405,-3434,184,454,-292,1,0,30,24,800,0,53298,1
2,31297,30636,32255,45584,39381,-4131,-505,-2294,1399,-6117,-3962,191,453,-289,1,0,30,24,840,0,53298,1
2,31313,30636,32268,45585,39386,-4083,-482,-2120,812,-5530,-4277,197,457,-279,1,0,30,24,880,0,53298,1
2,31347,30642,32300,45586,39391,-4276,-76,-3588,-3255,-3325,-2380,205,451,-277,1,0,30,24,920,0,53298,1
2,31386,30677,32358,45587,39396,-4155,-48,-2135,37,-1112,-1604,212,464,-268,1,0,30,24,960,0,53298,1
1,31552,30693,32477,45588,0,-4279,-860,-1559,409,-1664,-703,208,456,-266,1,0,30,25,0,1,53298,1
2,31770,30890,32798,45589,38786,-4265,-1306,-1171,-1638,-1915,-541,207,449,-263,1,0,30,25,40,1,53298,1
2,32518,31126,33407,45590,38792,-4061,-1474,-1215,-1854,-2736,-1044,212,450,-256,1,0,30,25,80,1,53298,1
2,31597,30810,32558,45591,38797,-3845,-1058,-1676,-775,-3217,-1397,203,461,-251,1,0,30,25,120,1,53298,1
2,31412,30696,32330,45592,38803,-3611,-333,-2778,-1071,-1568,-1247,217,449,-259,1,0,30,25,160,1,53298,1
2,31374,30560,32302,45593,38808,-4064,-22,-2774,-211,723,-352,212,462,-250,1,0,30,25,200,1,53298,1
2,31356,30432,32287,45594,38814,-4252,-1028,-1283,2762,313,-550,213,449,-253,1,0,30,25,240,1,53298,1
2,31341,30451,32275,45595,38819,-4276,-1325,-1416,715,82,-420,212,448,-258,1,0,30,25,280,1,53298,1
2,31313,30355,32246,45596,38824,-4294,-958,-1779,-794,-103,-119,211,455,-241,1,0,30,25,320,1,53298,1
2,31446,30664,32407,45597,38828,-4207,-1005,-1645,474,-399,-62,206,446,-260,1,0,30,25,360,1,53298,1
2,31986,30943,32992,45598,38833,-4261,-1152,-1475,447,-242,-251,211,455,-259,1,0,30,25,400,1,53298,1
2,32482,31134,33525,45599,38838,-4305,-987,-1532,395,142,-159,212,460,-254,1,0,30,25,440,1,53298,1
2,32413,31157,33629,45600,38844,-4246,-1056,-1603,921,472,-457,218,452,-260,1,0,30,25,480,1,53298,1
2,32350,31167,33335,45601,38850,-4189,-1107,-1641,707,432,-516,217,457,-257,1,0,30,25,520,1,53298,1
2,32307,30968,33336,45602,38857,-4220,-1142,-1644,313,222,-285,227,455,-259,1,0,30,25,560,1,53298,1
2,32297,31036,33191,45603,38863,-4213,-1118,-1635,108,31,-19,219,455,-259,1,0,30,25,600,1,53298,1
2,32206,30989,33120,45604,38869,-4198,-1084,-1619,79,-75,84,217,457,-253,1,0,30,25,640,1,53298,1
2,33027,31447,33780,45605,38874,-4208,-1102,-1635,50,-33,49,209,449,-253,1,0,30,25,680,1,53298,1
2,33323,31460,34387,45606,38879,-4203,-1096,-1621,115,58,-42,217,457,-253,1,0,30,25,720,1,53298,1
2,32755,31298,33756,45607,38884,-4186,-1098,-1642,184,65,-80,223,453,-255,1,0,30,25,760,1,53298,1
2,32645,31174,33478,45608,38889,-4206,-1116,-1640,183,46,-62,212,454,-260,1,0,30,25,800,1,53298,1
2,32201,31024,33172,45609,38894,-4193,-1110,-1634,97,41,-30,218,456,-260,1,0,30,25,840,1,53298,1
2,31847,30848,32807,45610,38900,-4213,-1097,-1665,57,5,15,215,451,-255,1,0,30,25,880,1,53298,1
2,31680,30768,32598,45611,38905,-4219,-1096,-1649,145,-16,29,218,452,-254,1,0,30,25,920,1,53298,1
2,31547,30739,32492,45612,38911,-4277,-1116,-1652,220,-19,-50,217,451,-245,1,0,30,25,960,1,53298,1
1,31462,30685,32402,45613,0,-4211,-1039,-1670,411,-169,-98,221,451,-255,1,0,30,26,0,0,53298,1
2,31433,30675,32368,45614,38290,-4141,-1103,-1701,506,174,-285,225,461,-259,1,0,30,26,40,0,53298,1
2,31410,30666,32340,45615,38295,-4244,-1118,-1806,308,431,-136,222,450,-256,1,0,30,26,80,0,53298,1
2,31398,30660,32331,45616,38300,-4094,-1042,-1848,492,645,266,220,458,-266,1,0,30,26,120,0,53298,1
2,31381,30685,32317,45617,38306,-3923,-767,-2200,512,1574,832,209,461,-259,1,0,30,26,160,0,53298,1
2,31364,30669,32289,45618,38312,-3841,-729,-2331,989,2889,1297,209,453,-265,1,0,30,26,200,0,53298,1
2,31352,30660,32278,45619,38317,-4010,-444,-2253,1345,3660,1628,212,452,-266,1,0,30,26,240,0,53298,1
2,31336,30652,32258,45620,38323,-3917,-521,-2164,-360,4105,2554,208,454,-276,1,0,30,26,280,0,53298,1
2,31322,30668,32234,45621,38329,-3983,-605,-2389,-1993,5038,3322,190,456,-280,1,0,30,26,320,0,53298,1
2,31315,30712,32201,45622,38334,-3917,-437,-2411,-1599,6284,3989,199,451,-295,1,0,30,26,360,0,53298,1
2,31297,30699,32173,45623,38339,-4051,-285,-2663,-817,7113,5459,185,453,-287,1,0,30,26,400,0,53298,1
2,31287,30681,32146,45624,38344,-4126,-396,-2705,-24,7786,6498,169,451,-317,1,0,30,26,440,0,53298,1
2,31279,30682,32128,45625,38349,-4347,-519,-2619,-440,8820,7077,167,453,-323,1,0,30,26,480,0,53298,1
2,31269,30670,32116,45626,38355,-4412,-342,-2503,-1341,8579,7339,162,442,-342,1,0,30,26,520,0,53298,1
2,31261,30673,32093,45627,38360,-4014,-427,-2844,-3161,7248,6749,145,437,-355,1,0,30,26,560,0,53298,1
2,31254,30670,32073,45628,38366,-3573,-196,-3068,-3466,6656,6047,135,429,-353,1,0,30,26,600,0,53298,1
2,31246,30669,32050,45629,38371,-3338,-87,-3142,-3260,6727,6235,129,419,-361,1,0,30,26,640,0,53298,1
2,31245,30665,32033,45630,38376,-3292,41,-3316,-3296,7157,6495,115,419,-367,1,0,30,26,680,0,53298,1
2,31240,30658,32025,45631,38381,-3167,182,-3407,-3999,7357,6792,108,418,-370,1,0,30,26,720,0,53298,1
2,31238,30638,32010,45632,38386,-3108,206,-3307,-4260,7568,6469,101,401,-383,1,0,30,26,760,0,53298,1
2,31233,30618,32003,45633,38391,-2801,500,-3150,-3065,7359,5758,92,402,-396,1,0,30,26,800,0,53298,1
2,31230,30576,31984,45634,38396,-2613,476,-3001,-1633,6949,5494,77,389,-403,1,0,30,26,840,0,53298,1
2,31232,30518,31972,45635,38400,-2435,528,-2881,-64,6542,5047,74,386,-402,1,0,30,26,880,0,53298,1
2,31231,30529,31972,45636,38406,-2142,675,-2892,-109,5853,4697,70,376,-406,1,0,30,26,920,0,53298,1
2,31236,30539,31963,45637,38411,-2077,627,-3227,-799,5599,4504,68,372,-406,1,0,30,26,960,0,53298,1
1,31234,30527,31954,45638,0,-1907,755,-3351,-417,4980,3900,67,367,-419,1,0,30,27,0,1,53298,1
2,31239,30540,31947,45639,37794,-1728,655,-3450,373,4484,3575,65,359,-427,1,0,30,27,40,1,53298,1
2,31240,30550,31948,45640,37799,-1638,736,-3453,763,4306,3120,59,351,-425,1,0,30,27,80,1,53298,1
2,31243,30550,31942,45641,37804,-1526,748,-3416,568,3878,2691,54,354,-432,1,0,30,27,120,1,53298,1
2,31249,30565,31938,45642,37810,-1433,669,-3413,512,3460,2197,56,336,-434,1,0,30,27,160,1,53298,1
2,31244,30562,31936,45643,37815,-1380,795,-3368,876,3001,1716,57,329,-443,1,0,30,27,200,1,53298,1
2,31247,30576,31931,45644,37820,-1277,772,-3367,550,2242,1408,55,329,-437,1,0,30,27,240,1,53298,1
2,31246,30573,31937,45645,37825,-1013,780,-3111,-782,1507,1271,55,335,-437,1,0,30,27,280,1,53298,1
2,31252,30562,31942,45646,37830,-1269,922,-3574,-2743,1728,1351,54,328,-440,1,0,30,27,320,1,53298,1
2,31257,30563,31949,45647,37835,-934,843,-3326,-2172,1806,1208,50,332,-442,1,0,30,27,360,1,53298,1
2,31266,30547,31950,45648,37840,-1246,1419,-4216,-2765,2454,1271,46,328,-436,1,0,30,27,400,1,53298,1
2,31258,30571,31958,45649,37846,-963,1374,-3961,-704,2938,1795,45,323,-431,1,0,30,27,440,1,53298,1
2,31254,30554,31953,45650,37852,-1011,1385,-4035,629,3486,2089,43,311,-441,1,0,30,27,480,1,53298,1
2,31244,30534,31939,45651,37858,-897,1181,-3632,120,3345,2049,37,303,-439,1,0,30,27,520,1,53298,1
2,31248,30513,31944,45652,37865,-755,1131,-3695,-1017,3287,2028,43,307,-445,1,0,30,27,560,1,53298,1
2,31246,30315,31946,45653,37871,-606,831,-3291,-821,3505,2078,33,291,-443,1,0,30,27,600,1,53298,1
2,31250,30205,31964,45654,37879,-678,866,-2962,-679,3024,1513,35,293,-455,1,0,30,27,640,1,53298,1
2,31158,29975,31848,45655,37887,-633,1000,-3380,-948,2423,1233,23,285,-435,1,0,30,27,680,1,53298,1
2,31212,30248,31913,45656,37895,-628,948,-3308,-281,1081,435,34,286,-438,1,0,30,27,720,1,53298,1
2,31772,30640,32449,45657,37903,-495,1183,-3527,336,-398,-369,34,288,-448,1,0,30,27,760,1,53298,1
2,33013,33126,34166,45658,37911,-489,1414,-3746,1094,-291,-125,35,283,-453,1,0,30,27,800,1,53298,1
2,31288,30709,32077,45659,37919,-464,1510,-3861,203,275,247,39,281,-449,1,0,30,27,840,1,53298,1
2,35879,32187,33361,45660,37928,-448,1270,-3923,-851,787,539,35,289,-451,1,0,30,27,880,1,53298,1
2,31487,31172,32073,45661,37939,-471,1199,-3883,-651,1126,743,33,287,-449,1,0,30,27,920,1,53298,1
2,31523,30783,32395,45662,37949,-460,1033,-3534,197,1088,807,28,282,-452,1,0,30,27,960,1,53298,1
1,31457,30580,32222,45663,0,-492,1061,-3426,-93,670,432,38,280,-456,1,0,30,28,0,0,53298,1
2,31376,30800,32069,45664,37303,-436,1044,-3382,-309,-2,44,36,294,-454,1,0,30,28,40,0,53298,1
2,32800,31232,34157,45665,37314,-479,1202,-3506,-187,-483,-251,36,292,-450,1,0,30,28,80,0,53298,1
2,33834,32308,33455,45666,37326,-464,1376,-3713,22,-698,-284,26,288,-452,1,0,30,28,120,0,53298,1
2,37367,33462,36712,45667,37337,-456,1345,-3837,-370,-646,-226,34,284,-448,1,0,30,28,160,0,53298,1
2,37488,30953,38162,45668,37349,-421,1307,-3855,-551,-499,-172,30,290,-460,1,0,30,28,200,0,53298,1
2,37942,36303,38406,45669,37362,-452,1256,-3705,-105,-177,90,39,287,-461,1,0,30,28,240,0,53298,1
2,34263,33148,36268,45670,37374,-505,1224,-3718,-116,-24,110,37,295,-443,1,0,30,28,280,0,53298,1
2,38064,34188,38777,45671,37386,-502,1208,-3606,-255,-116,-103,37,295,-447,1,0,30,28,320,0,53298,1
2,37938,34014,38357,45672,37398,-473,1262,-3652,-377,-231,-307,33,295,-447,1,0,30,28,360,0,53298,1
2,37959,33769,38584,45673,37410,-524,1255,-3675,-32,-157,-240,40,292,-448,1,0,30,28,400,0,53298,1
2,37720,33899,38399,45674,37421,-489,1347,-3761,-153,-231,-250,35,287,-449,1,0,30,28,440,0,53298,1
2,32223,32737,38323,45675,37431,-480,1313,-3656,-43,-109,-86,32,292,-444,1,0,30,28,480,0,53298,1
2,31862,32510,35510,45676,37442,-535,1326,-3648,225,86,56,34,290,-446,1,0,30,28,520,0,53298,1
2,37521,33890,38333,45677,37452,-458,1158,-3574,-326,6,-13,36,290,-446,1,0,30,28,560,0,53298,1
2,34146,33926,37873,45678,37462,-542,1222,-3537,156,48,71,38,286,-452,1,0,30,28,600,0,53298,1
2,36345,34385,37768,45679,37471,-499,1246,-3550,-134,-211,-114,29,291,-439,1,0,30,28,640,0,53298,1
2,36899,33495,37732,45680,37480,-612,1130,-3690,-272,-415,-128,35,289,-451,1,0,30,28,680,0,53298,1
2,36730,33165,37256,45681,37489,-601,1603,-3564,382,-736,-240,27,297,-439,1,0,30,28,720,0,53298,1
2,36284,33225,37100,45682,37497,-535,1335,-3658,567,-581,-462,38,298,-448,1,0,30,28,760,0,53298,1
2,37259,33485,34966,45683,37505,-671,1255,-3746,-2682,-948,-959,31,301,-449,1,0,30,28,800,0,53298,1
2,31749,30697,32197,45684,37513,-303,559,-2685,-527,-2456,-1426,29,293,-447,1,0,30,28,840,0,53298,1
2,32073,33295,34372,45685,37520,-790,949,-3749,271,-576,-585,35,299,-447,1,0,30,28,880,0,53298,1
2,33142,33216,32322,45686,37527,-982,1478,-4081,-911,-1709,-970,31,303,-429,1,0,30,28,920,0,53298,1
2,37015,33228,37375,45687,37533,-942,1394,-3512,1368,-4665,-2728,40,310,-440,1,0,30,28,960,0,53298,1
1,37315,33300,37934,45688,0,-687,1043,-3474,2365,-4551,-2008,27,315,-433,1,0,30,29,0,0,53298,1
2,37166,33211,37384,45689,36803,-811,1001,-3437,99,-2505,-967,45,323,-433,1,0,30,29,40,0,53298,1
2,36781,33220,37601,45690,36808,-1031,979,-3317,2432,-1433,-506,37,317,-431,1,0,30,29,80,0,53298,1
2,31549,30693,35725,45691,36813,-1053,1128,-3568,2921,-2016,-886,46,322,-440,1,0,30,29,120,0,53298,1
2,31951,30935,32675,45692,36819,-1187,1140,-3736,713,-1761,-1059,40,324,-432,1,0,30,29,160,0,53298,1
2,37019,33168,37690,45693,36824,-1272,1009,-3887,-208,-2439,-1184,50,328,-436,1,0,30,29,200,0,53298,1
2,36265,32447,35671,45694,36830,-1305,1296,-3910,1154,-2820,-1183,46,334,-438,1,0,30,29,240,0,53298,1
2,37341,33291,38098,45695,36836,-1169,1037,-3795,1331,-3155,-854,60,332,-436,1,0,30,29,280,0,53298,1
2,37127,33177,37344,45696,36842,-1559,1106,-3637,882,-3566,-2280,54,326,-434,1,0,30,29,320,0,53298,1
2,32930,32051,38150,45697,36848,-1447,868,-3621,-49,-2831,-1620,57,343,-425,1,0,30,29,360,0,53298,1
2,31036,30609,31839,45698,36855,-1300,1073,-3382,303,-2210,-1491,61,347,-429,1,0,30,29,400,0,53298,1
2,31144,30677,31953,45699,36862,-1509,806,-3384,-174,-1662,-1237,56,348,-426,1,0,30,29,440,0,53298,1
2,31282,30724,32212,45700,36869,-1538,851,-3433,-92,-1705,-1113,56,348,-428,1,0,30,29,480,0,53298,1
2,31318,30734,32130,45701,36877,-1630,1030,-3295,8,-1991,-1503,55,351,-423,1,0,30,29,520,0,53298,1
2,31194,30688,32010,45702,36884,-1686,817,-3558,-617,-2034,-1242,65,351,-425,1,0,30,29,560,0,53298,1
2,31066,30629,31884,45703,36891,-1731,1178,-3590,-270,-1778,-1134,57,355,-411,1,0,30,29,600,0,53298,1
2,31087,30634,31895,45704,36899,-1772,1074,-3671,-359,-1439,-807,64,362,-416,1,0,30,29,640,0,53298,1
2,31114,30644,31925,45705,36907,-1757,1046,-3668,-383,-1009,-539,63,367,-409,1,0,30,29,680,0,53298,1
2,31075,30629,31893,45706,36915,-1801,1000,-3504,-176,-433,-234,65,361,-421,1,0,30,29,720,0,53298,1
2,31055,30618,31873,45707,36923,-1802,859,-3325,194,-528,-264,53,363,-407,1,0,30,29,760,0,53298,1
2,31054,30617,31877,45708,36930,-1806,809,-3253,111,-827,-535,66,368,-418,1,0,30,29,800,0,53298,1
2,31060,30619,31883,45709,36937,-1853,714,-3045,7,-1296,-767,70,362,-416,1,0,30,29,840,0,53298,1
2,31054,30616,31889,45710,36943,-1978,469,-2829,-290,-2768,-1393,59,371,-409,1,0,30,29,880,0,53298,1
2,31058,30616,31895,45711,36950,-2028,741,-2903,-426,-4713,-2710,67,373,-397,1,0,30,29,920,0,53298,1
2,31062,30624,31899,45712,36956,-2091,370,-3032,-1546,-5262,-3380,70,374,-394,1,0,30,29,960,0,53298,1
1,31060,30625,31925,45713,0,-2183,583,-3147,-969,-5333,-3778,76,384,-388,1,0,30,30,0,0,53298,1
2,31057,30619,31942,45714,36310,-2577,789,-3208,729,-5222,-4025,73,391,-393,1,0,30,30,40,0,53298,1
2,31063,30621,31950,45715,36317,-2781,594,-3172,2124,-5241,-4934,83,397,-371,1,0,30,30,80,0,53298,1
2,31066,30625,31958,45716,36324,-2917,15,-2813,1704,-5721,-5989,86,412,-372,1,0,30,30,120,0,53298,1
2,31076,30637,31984,45717,36330,-3136,28,-3086,2030,-5735,-7486,91,413,-375,1,0,30,30,160,0,53298,1
2,31197,30601,32129,45718,36336,-3426,105,-3048,3690,-4736,-8253,111,411,-373,1,0,30,30,200,0,53298,1
2,31332,30608,32276,45719,36341,-3499,-51,-2854,4422,-5556,-8302,127,425,-361,1,0,30,30,240,0,53298,1
2,31786,30928,32591,45720,36346,-3621,96,-2666,5579,-7331,-8438,135,435,-359,1,0,30,30,280,0,53298,1
2,36295,32426,34922,45721,36351,-3748,99,-2862,3852,-8166,-7896,152,442,-352,1,0,30,30,320,0,53298,1
2,34068,32178,35873,45722,36357,-3705,-168,-2658,2640,-8323,-7420,157,437,-323,1,0,30,30,360,0,53298,1
2,31262,30684,32234,45723,36362,-3978,-188,-2802,1336,-7986,-6534,166,446,-316,1,0,30,30,400,0,53298,1
2,31163,30630,32114,45724,36366,-4021,74,-2792,2065,-7154,-5689,175,455,-315,1,0,30,30,440,0,53298,1
2,31130,30621,32094,45725,36372,-3948,-171,-2737,1336,-6217,-4262,189,451,-301,1,0,30,30,480,0,53298,1
2,31136,30624,32100,45726,36376,-4186,-308,-2512,354,-5055,-2865,183,461,-293,1,0,30,30,520,0,53298,1
2,31123,30600,32088,45727,36381,-4345,-546,-2418,-1002,-4870,-2099,192,458,-292,1,0,30,30,560,0,53298,1
2,31129,30581,32088,45728,36386,-4126,-720,-1981,-1602,-4805,-2246,199,451,-283,1,0,30,30,600,0,53298,1
2,31147,30578,32106,45729,36391,-4254,-851,-1781,-3075,-5262,-1587,196,452,-276,1,0,30,30,640,0,53298,1
2,31180,30634,32133,45730,36396,-4184,-827,-1779,-4071,-6172,-1417,201,463,-275,1,0,30,30,680,0,53298,1
2,31228,30680,32173,45731,36402,-4120,-1045,-1990,-4081,-5748,-1827,202,460,-260,1,0,30,30,720,0,53298,1
2,31212,30666,32152,45732,36408,-4169,-993,-1813,-2619,-4883,-2060,209,445,-243,1,0,30,30,760,0,53298,1
2,31185,30650,32137,45733,36414,-4207,-839,-1719,-860,-4196,-2359,210,452,-234,1,0,30,30,800,0,53298,1
2,31187,30645,32125,45734,36419,-4125,-715,-1654,630,-3656,-2990,219,457,-245,1,0,30,30,840,0,53298,1
2,31190,30649,32125,45735,36425,-4049,-302,-1790,-462,-2452,-2650,217,449,-235,1,0,30,30,880,0,53298,1
2,31198,30645,32132,45736,36431,-3995,-25,-1910,-1109,-1784,-1755,215,451,-245,1,0,30,30,920,0,53298,1
2,31204,30652,32127,45737,36438,-4131,-80,-1921,-1099,-882,-246,223,449,-229,1,0,30,30,960,0,53298,1
1,31212,30652,32107,45738,0,-4577,-1046,-1792,-527,-36,75,219,453,-235,1,0,30,31,0,1,53298,1
2,31223,30649,32096,45739,35814,-4372,-1461,-1435,399,432,-408,221,457,-235,1,0,30,31,40,1,53298,1
2,31216,30652,32102,45740,35821,-4323,-1036,-1380,2,100,-84,220,454,-234,1,0,30,31,80,1,53298,1
2,31211,30542,32096,45741,35827,-4256,-809,-1383,506,-30,161,223,451,-231,1,0,30,31,120,1,53298,1
2,31220,30635,32099,45742,35833,-4194,-1003,-1280,1040,396,-130,225,449,-243,1,0,30,31,160,1,53298,1
2,31226,30409,32101,45743,35838,-4434,-1083,-1527,216,510,-190,213,449,-231,1,0,30,31,200,1,53298,1
2,31233,30656,32118,45744,35843,-4328,-923,-1387,645,200,-85,221,455,-231,1,0,30,31,240,1,53298,1
2,31240,30651,32127,45745,35848,-4302,-979,-1399,993,259,-264,221,453,-249,1,0,30,31,280,1,53298,1
2,31250,30633,32131,45746,35852,-4364,-1048,-1365,852,397,-365,223,453,-237,1,0,30,31,320,1,53298,1
2,31256,30643,32140,45747,35856,-4275,-1021,-1452,599,303,-285,224,460,-232,1,0,30,31,360,1,53298,1
2,31270,30663,32152,45748,35860,-4237,-1062,-1464,434,312,-270,226,458,-232,1,0,30,31,400,1,53298,1
2,31291,30676,32180,45749,35864,-4324,-1092,-1414,413,181,-139,220,454,-238,1,0,30,31,440,1,53298,1
2,31318,30673,32211,45750,35868,-4340,-1022,-1386,363,56,-3,216,448,-234,1,0,30,31,480,1,53298,1
2,31325,30654,32210,45751,35873,-4281,-1055,-1423,329,181,-85,227,453,-235,1,0,30,31,520,1,53298,1
2,31297,30631,32190,45752,35878,-4271,-1073,-1441,372,200,-117,219,451,-243,1,0,30,31,560,1,53298,1
2,31283,30622,32179,45753,35883,-4307,-1081,-1417,454,152,-92,225,461,-247,1,0,30,31,600,1,53298,1
2,31283,30619,32174,45754,35887,-4294,-1062,-1434,410,126,-62,228,454,-238,1,0,30,31,640,1,53298,1
2,31282,30622,32175,45755,35892,-4288,-1073,-1436,284,100,-68,227,451,-241,1,0,30,31,680,1,53298,1
2,31284,30620,32180,45756,35897,-4280,-1086,-1450,237,84,-60,217,449,-235,1,0,30,31,720,1,53298,1
2,31286,30615,32182,45757,35901,-4279,-1088,-1444,90,7,-2,222,450,-234,1,0,30,31,760,1,53298,1
2,31286,30613,32179,45758,35907,-4277,-1097,-1433,76,-9,11,221,457,-239,1,0,30,31,800,1,53298,1
2,31282,30614,32177,45759,35911,-4289,-1083,-1430,131,14,-9,218,452,-242,1,0,30,31,840,1,53298,1
2,31281,30596,32175,45760,35916,-4311,-1083,-1453,183,38,-26,224,452,-238,1,0,30,31,880,1,53298,1
2,31284,30610,32174,45761,35921,-4248,-1111,-1422,333,41,4,220,450,-242,1,0,30,31,920,1,53298,1
2,31282,30602,32171,45762,35927,-4339,-1093,-1475,-142,-58,153,220,456,-234,1,0,30,31,960,1,53298,1
1,31274,30605,32165,45763,0,-4331,-1063,-1482,-418,-281,510,224,452,-234,1,0,30,32,0,0,53298,1
2,31270,30629,32150,45764,35318,-4349,-1046,-1471,-518,-408,712,219,459,-235,1,0,30,32,40,0,53298,1
2,31247,30131,32134,45765,35323,-4312,-964,-1535,-598,-263,881,214,454,-228,1,0,30,32,80,0,53298,1
2,31241,30560,32143,45766,35328,-4078,-654,-1875,-649,528,1072,224,452,-248,1,0,30,32,120,0,53298,1
2,31233,30618,32124,45767,35334,-3987,-233,-2215,-418,1975,1553,217,457,-241,1,0,30,32,160,0,53298,1
2,31224,30644,32101,45768,35340,-3976,23,-2349,-217,3832,2502,211,453,-251,1,0,30,32,200,0,53298,1
2,31217,30469,32088,45769,35346,-3892,-114,-2627,-533,5233,3958,206,460,-262,1,0,30,32,240,0,53298,1
2,31210,30579,32082,45770,35351,-4026,-191,-2704,-188,7139,5262,198,458,-266,1,0,30,32,280,0,53298,1
2,31189,30569,32068,45771,35356,-4213,5,-2591,1221,8995,6475,189,449,-281,1,0,30,32,320,0,53298,1
2,31177,30536,32048,45772,35362,-4294,-147,-2408,821,10154,7358,179,449,-299,1,0,30,32,360,0,53298,1
2,31155,30544,32030,45773,35365,-4289,-351,-2283,-352,10537,8062,172,448,-322,1,0,30,32,400,0,53298,1
2,31141,30541,32008,45774,35369,-4262,-517,-1716,-670,9959,8062,154,444,-326,1,0,30,32,440,0,53298,1
2,31131,30592,31984,45775,35374,-4393,-443,-1609,-1210,8214,7435,140,440,-336,1,0,30,32,480,0,53298,1
2,31127,30588,31964,45776,35377,-4166,-504,-1820,-1893,5723,6337,126,432,-346,1,0,30,32,520,0,53298,1
2,31124,30600,31945,45777,35381,-3663,-300,-2366,-2374,3689,4689,130,430,-350,1,0,30,32,560,0,53298,1
2,31119,30588,31925,45778,35384,-3251,125,-2884,-1725,2885,3517,129,427,-347,1,0,30,32,600,0,53298,1
2,31128,30589,31905,45779,35389,-3084,523,-3294,-1331,3105,3811,116,436,-342,1,0,30,32,640,0,53298,1
2,31112,30559,31895,45780,35394,-3194,605,-3619,-1621,3776,4692,104,414,-348,1,0,30,32,680,0,53298,1
2,31110,30468,31875,45781,35398,-3210,743,-3842,-2307,4606,5444,105,415,-363,1,0,30,32,720,0,53298,1
2,31109,30545,31867,45782,35404,-3111,802,-3910,-3429,5930,5720,97,415,-365,1,0,30,32,760,0,53298,1
2,31102,30449,31855,45783,35409,-3132,878,-3807,-3365,7617,6027,93,403,-367,1,0,30,32,800,0,53298,1
2,31105,30501,31844,45784,35414,-2903,934,-3633,-2385,8954,6492,75,399,-383,1,0,30,32,840,0,53298,1
2,31109,30571,31835,45785,35421,-2775,639,-3191,-207,9746,6726,73,385,-393,1,0,30,32,880,0,53298,1
2,31101,30575,31830,45786,35426,-2405,862,-2832,1500,9562,6309,58,372,-408,1,0,30,32,920,0,53298,1
2,31101,30596,31818,45787,35432,-2034,727,-2720,908,8570,5974,60,360,-412,1,0,30,32,960,0,53298,1
1,31098,30600,31817,45788,0,-1810,738,-2726,480,7640,5297,60,344,-424,1,0,30,33,0,1,53298,1
2,31098,30599,31806,45789,34825,-1586,885,-2829,350,6304,4362,55,337,-427,1,0,30,33,40,1,53298,1
2,31101,30615,31804,45790,34830,-1389,835,-3258,0,5145,3887,49,339,-425,1,0,30,33,80,1,53298,1
2,31102,30598,31797,45791,34835,-1291,805,-3199,703,4607,3173,47,331,-435,1,0,30,33,120,1,53298,1
2,31101,30607,31793,45792,34840,-1197,773,-3359,801,3731,2530,48,320,-438,1,0,30,33,160,1,53298,1
2,31107,30598,31795,45793,34846,-1101,762,-3308,1035,2846,1866,48,322,-432,1,0,30,33,200,1,53298,1
2,31109,30604,31799,45794,34852,-894,750,-3178,244,1938,1318,43,325,-435,1,0,30,33,240,1,53298,1
2,31116,30608,31801,45795,34858,-955,870,-3388,-873,1815,1093,45,317,-447,1,0,30,33,280,1,53298,1
2,31125,30609,31802,45796,34864,-868,1163,-3884,-1978,1973,1007,40,324,-444,1,0,30,33,320,1,53298,1
2,31129,30608,31809,45797,34871,-833,1310,-4037,-1970,2238,1145,40,306,-448,1,0,30,33,360,1,53298,1
2,31112,30474,31815,45798,34878,-759,1405,-3896,-1106,2464,1313,39,307,-447,1,0,30,33,400,1,53298,1
2,31107,30595,31840,45799,34884,-650,1136,-3262,255,3267,1929,44,298,-444,1,0,30,33,440,1,53298,1
2,31138,30583,31889,45800,34892,-754,1101,-3058,-303,4056,2292,33,299,-451,1,0,30,33,480,1,53298,1
2,31098,30570,31880,45801,34900,-683,1116,-3035,-578,2856,2072,34,292,-450,1,0,30,33,520,1,53298,1
2,31128,30644,31927,45802,34909,-605,1143,-3185,-136,1590,1480,45,283,-451,1,0,30,33,560,1,53298,1
2,31129,30389,31940,45803,34918,-564,1148,-3600,-2104,627,661,32,286,-442,1,0,30,33,600,1,53298,1
2,31151,30210,31980,45804,34928,-506,1249,-3883,-2031,198,274,33,281,-449,1,0,30,33,640,1,53298,1
2,31183,30309,31993,45805,34938,-350,1438,-4126,-1023,-101,-44,19,291,-435,1,0,30,33,680,1,53298,1
2,32018,31710,33276,45806,34948,-368,1668,-4136,-948,608,307,25,293,-445,1,0,30,33,720,1,53298,1
2,31315,30309,32153,45807,34959,-370,1674,-3950,-474,1184,646,34,282,-440,1,0,30,33,760,1,53298,1
2,31302,30546,32210,45808,34970,-357,1455,-3633,-1141,1660,810,23,289,-441,1,0,30,33,800,1,53298,1
2,31833,30802,32598,45809,34981,-436,1323,-3312,-1156,1693,911,22,280,-446,1,0,30,33,840,1,53298,1
2,31759,30752,32486,45810,34993,-422,1199,-3073,-629,996,537,19,281,-439,1,0,30,33,880,1,53298,1
2,31385,30598,32161,45811,35003,-394,1224,-3154,-781,319,74,25,279,-439,1,0,30,33,920,1,53298,1
2,32878,30989,33346,45812,35014,-365,1262,-3205,-566,-208,-189,31,273,-441,1,0,30,33,960,1,53298,1
1,33401,32579,35745,45813,0,-286,1535,-3610,-445,-617,-363,26,290,-438,1,0,30,34,0,1,53298,1
2,31963,30712,32648,45814,34335,-292,1464,-3633,-708,-327,-166,28,282,-446,1,0,30,34,40,1,53298,1
2,31418,30488,32189,45815,34346,-292,1624,-3733,-307,-88,55,21,279,-437,1,0,30,34,80,1,53298,1
2,34880,31125,34100,45816,34358,-404,1512,-3697,412,238,249,31,279,-435,1,0,30,34,120,1,53298,1
2,34195,31890,35130,45817,34370,-313,1473,-3499,260,22,-27,21,287,-443,1,0,30,34,160,1,53298,1
2,34720,32133,35698,45818,34380,-348,1389,-3479,-73,19,-61,16,280,-430,1,0,30,34,200,1,53298,1
2,35241,32351,36038,45819,34390,-422,1346,-3408,-1,-25,-120,20,284,-440,1,0,30,34,240,1,53298,1
2,36005,32752,36917,45820,34400,-315,1450,-3477,144,-447,-381,21,283,-435,1,0,30,34,280,1,53298,1
2,31397,30582,32120,45821,34410,-494,1566,-3552,317,-502,-420,24,282,-444,1,0,30,34,320,1,53298,1
2,36012,32761,36729,45822,34419,-229,1378,-3219,214,-1223,-734,26,286,-442,1,0,30,34,360,1,53298,1
2,36538,32856,36551,45823,34427,-517,1657,-3773,73,-846,-539,23,295,-435,1,0,30,34,400,1,53298,1
2,31919,30915,32381,45824,34435,-677,1627,-3633,-23,-2420,-1260,18,286,-434,1,0,30,34,440,1,53298,1
2,32148,30925,35271,45825,34441,-299,1493,-3474,912,-3627,-1592,24,290,-432,1,0,30,34,480,1,53298,1
2,33763,32936,37276,45826,34447,-818,1562,-3700,-596,-1638,-1153,30,298,-432,1,0,30,34,520,1,53298,1
2,36516,32954,37040,45827,34453,-836,1421,-3613,672,-2604,-1334,27,299,-425,1,0,30,34,560,1,53298,1
2,36612,32944,37246,45828,34458,-434,1348,-3327,3301,-3099,-1224,35,307,-433,1,0,30,34,600,1,53298,1
2,36616,32978,35972,45829,34463,-817,895,-3196,2967,-2177,-576,35,309,-431,1,0,30,34,640,1,53298,1
2,32723,33012,35174,45830,34468,-808,1047,-3258,1370,-1847,-1009,32,308,-428,1,0,30,34,680,1,53298,1
2,33412,31536,33307,45831,34473,-993,1468,-3565,615,-2096,-1195,35,311,-443,1,0,30,34,720,1,53298,1
2,35368,32064,35379,45832,34478,-1046,1305,-3658,1816,-2313,-920,39,315,-437,1,0,30,34,760,1,53298,1
2,33558,31985,34436,45833,34483,-1131,1315,-3738,2209,-2427,-1007,34,322,-428,1,0,30,34,800,1,53298,1
2,31437,30733,32048,45834,34489,-917,1117,-3805,882,-2723,-1139,38,316,-434,1,0,30,34,840,1,53298,1
2,32133,31249,32971,45835,34495,-1120,1137,-3710,743,-2670,-1401,42,318,-434,1,0,30,34,880,1,53298,1
2,31502,30808,32123,45836,34502,-1128,906,-3662,1057,-2228,-1540,45,327,-435,1,0,30,34,920,1,53298,1
2,31472,30741,32138,45837,34508,-1166,1000,-3563,6,-1783,-1145,50,338,-432,1,0,30,34,960,1,53298,1
1,31359,30701,32003,45838,0,-1185,1034,-3376,-15,-1312,-1298,54,332,-426,1,0,30,35,0,1,53298,1
2,36961,33127,36740,45839,33836,-1240,963,-3435,47,-1471,-1191,55,329,-433,1,0,30,35,40,1,53298,1
2,33514,31358,33472,45840,33843,-1384,1160,-3466,257,-972,-774,52,332,-428,1,0,30,35,80,1,53298,1
2,32076,31018,32895,45841,33849,-1440,1004,-3516,758,-1079,-873,57,337,-435,1,0,30,35,120,1,53298,1
2,31717,30857,32342,45842,33855,-1373,999,-3415,434,-1568,-930,47,343,-423,1,0,30,35,160,1,53298,1
2,31412,30768,32173,45843,33862,-1451,636,-3078,274,-1930,-968,67,343,-427,1,0,30,35,200,1,53298,1
2,31297,30708,32069,45844,33868,-1551,238,-2889,1048,-3069,-2045,60,344,-422,1,0,30,35,240,1,53298,1
2,31231,30687,32009,45845,33874,-1607,637,-2667,1055,-5011,-3401,67,361,-417,1,0,30,35,280,1,53298,1
2,31188,30669,31985,45846,33879,-1926,527,-2770,-1639,-7133,-4105,63,361,-419,1,0,30,35,320,1,53298,1
2,31175,30659,31977,45847,33884,-2176,602,-2942,-2613,-8282,-5311,66,368,-400,1,0,30,35,360,1,53298,1
2,31170,30655,31978,45848,33889,-2436,541,-3145,-2164,-8748,-6352,69,375,-381,1,0,30,35,400,1,53298,1
2,31165,30656,31981,45849,33894,-2705,430,-3207,-129,-8628,-7386,79,393,-383,1,0,30,35,440,1,53298,1
2,31162,30653,31994,45850,33899,-2994,552,-3089,2609,-8465,-8282,85,409,-369,1,0,30,35,480,1,53298,1
2,31163,30656,32009,45851,33903,-3359,349,-3025,4190,-8180,-8918,104,414,-368,1,0,30,35,520,1,53298,1
2,31166,30654,32016,45852,33907,-3419,536,-2947,5597,-7918,-8864,109,421,-355,1,0,30,35,560,1,53298,1
2,31167,30658,32015,45853,33912,-3692,362,-2913,5194,-8085,-8158,132,436,-362,1,0,30,35,600,1,53298,1
2,31183,30659,32018,45854,33917,-4040,177,-2855,3095,-7960,-7097,136,434,-336,1,0,30,35,640,1,53298,1
2,31171,30654,32009,45855,33921,-4101,-256,-2873,565,-8730,-6320,152,444,-330,1,0,30,35,680,1,53298,1
2,31161,30651,32014,45856,33925,-3961,-127,-2936,1560,-10153,-6282,159,451,-329,1,0,30,35,720,1,53298,1
2,31146,30644,32010,45857,33929,-4048,-219,-3017,1485,-8098,-5717,163,449,-309,1,0,30,35,760,1,53298,1
2,31141,30639,32017,45858,33933,-4035,-333,-2730,1372,-5958,-5037,177,453,-305,1,0,30,35,800,1,53298,1
2,31134,30640,32027,45859,33938,-4294,-199,-2526,1306,-5321,-4798,176,450,-296,1,0,30,35,840,1,53298,1
2,31142,30638,32035,45860,33943,-4201,-372,-2270,2000,-5780,-4611,190,448,-284,1,0,30,35,880,1,53298,1
2,31154,30640,32047,45861,33948,-4077,-332,-2226,212,-5290,-4372,189,453,-289,1,0,30,35,920,1,53298,1
2,31161,30634,32054,45862,33953,-4309,-139,-3232,-3417,-3131,-2361,195,449,-275,1,0,30,35,960,1,53298,1
1,31156,30632,32060,45863,0,-4103,-175,-2317,138,-1724,-2024,193,441,-265,1,0,30,36,0,0,53298,1
2,31171,30632,32068,45864,33340,-4150,-766,-1687,1240,-2101,-1600,195,455,-269,1,0,30,36,40,0,53298,1
2,31175,30632,32067,45865,33345,-4214,-1036,-1491,268,-1809,-1740,207,459,-259,1,0,30,36,80,0,53298,1
2,31181,30630,32074,45866,33348,-4072,-993,-1344,101,-2269,-1771,205,461,-265,1,0,30,36,120,0,53298,1
2,31192,30632,32080,45867,33352,-4049,-1064,-1624,-395,-2547,-1499,208,460,-260,1,0,30,36,160,0,53298,1
2,31204,30626,32096,45868,33357,-3867,-929,-1600,-348,-2303,-1515,204,454,-252,1,0,30,36,200,0,53298,1
2,31223,30623,32119,45869,33361,-3718,-603,-2208,-973,-1792,-1140,211,451,-243,1,0,30,36,240,0,53298,1
2,31230,30573,32125,45870,33365,-3839,31,-3339,-2834,292,-392,211,457,-247,1,0,30,36,280,0,53298,1
2,31226,30603,32133,45871,33370,-4240,-794,-1433,1231,256,-526,222,456,-252,1,0,30,36,320,0,53298,1
2,31245,30630,32166,45872,33375,-4306,-1252,-1379,397,-315,-556,216,454,-256,1,0,30,36,360,0,53298,1
2,31288,30589,32212,45873,33379,-4447,-957,-1498,-510,-93,-347,211,453,-247,1,0,30,36,400,0,53298,1
2,31359,30657,32281,45874,33383,-4339,-986,-1590,1306,270,-458,204,448,-248,1,0,30,36,440,0,53298,1
2,31378,30490,32291,45875,33388,-4217,-1129,-1611,1572,759,-591,215,461,-255,1,0,30,36,480,0,53298,1
2,31355,30581,32274,45876,33394,-4183,-1106,-1719,750,556,-249,214,454,-258,1,0,30,36,520,0,53298,1
2,31335,30529,32245,45877,33398,-4205,-1060,-1662,643,-6,0,222,458,-256,1,0,30,36,560,0,53298,1
2,31315,30474,32231,45878,33403,-4232,-1074,-1626,522,-141,-4,211,449,-259,1,0,30,36,600,0,53298,1
2,31307,30484,32225,45879,33407,-4204,-1067,-1630,203,7,-22,209,455,-251,1,0,30,36,640,0,53298,1
2,31305,30503,32221,45880,33412,-4202,-1062,-1653,203,89,-43,218,448,-256,1,0,30,36,680,0,53298,1
2,31305,30512,32222,45881,33416,-4193,-1075,-1655,385,123,-82,220,456,-260,1,0,30,36,720,0,53298,1
2,31310,30529,32226,45882,33420,-4204,-1071,-1653,430,155,-110,220,454,-260,1,0,30,36,760,0,53298,1
2,31315,30537,32229,45883,33425,-4188,-1079,-1668,392,195,-139,218,454,-252,1,0,30,36,800,0,53298,1
2,31319,30534,32229,45884,33429,-4183,-1107,-1678,325,128,-82,214,456,-260,1,0,30,36,840,0,53298,1
2,31319,30515,32232,45885,33434,-4187,-1090,-1669,155,19,-18,215,445,-263,1,0,30,36,880,0,53298,1
2,31313,30529,32225,45886,33440,-4212,-1098,-1648,38,-3,19,220,454,-256,1,0,30,36,920,0,53298,1
2,31310,30502,32220,45887,33446,-4195,-1094,-1674,1,-7,35,217,457,-265,1,0,30,36,960,0,53298,1
1,31301,30505,32211,45888,0,-4196,-1087,-1669,22,-20,23,219,451,-257,1,0,30,37,0,0,53298,1
2,31293,30465,32210,45889,32847,-4184,-1087,-1659,33,-3,8,204,452,-254,1,0,30,37,40,0,53298,1
2,31291,30476,32206,45890,32852,-4181,-1085,-1669,45,16,-1,216,460,-256,1,0,30,37,80,0,53298,1
2,31288,30480,32202,45891,32856,-4178,-1087,-1667,49,18,-10,212,450,-246,1,0,30,37,120,0,53298,1
2,31286,30480,32202,45892,32860,-4188,-1097,-1675,34,17,4,218,450,-262,1,0,30,37,160,0,53298,1
2,31284,30506,32198,45893,32865,-4190,-1100,-1669,34,2,5,220,450,-254,1,0,30,37,200,0,53298,1
2,31285,30507,32200,45894,32870,-4188,-1098,-1662,24,4,2,217,457,-257,1,0,30,37,240,0,53298,1
2,31284,30481,32197,45895,32875,-4170,-1082,-1654,10,-3,17,214,460,-254,1,0,30,37,280,0,53298,1
2,31278,30480,32196,45896,32881,-4182,-1082,-1672,10,-1,20,223,453,-259,1,0,30,37,320,0,53298,1
2,31276,30459,32189,45897,32887,-4205,-1090,-1682,46,-18,14,213,449,-255,1,0,30,37,360,0,53298,1
2,31267,30466,32182,45898,32892,-4225,-1095,-1725,140,-12,-8,213,459,-259,1,0,30,37,400,0,53298,1
2,31264,30466,32176,45899,32897,-4153,-1104,-1780,240,61,-28,209,453,-261,1,0,30,37,440,0,53298,1
2,31256,30472,32168,45900,32902,-4129,-1066,-1794,441,187,56,213,445,-261,1,0,30,37,480,0,53298,1
2,31249,30462,32174,45901,32907,-4177,-1045,-1816,699,360,26,207,451,-251,1,0,30,37,520,0,53298,1
2,31240,30470,32156,45902,32913,-4058,-981,-2093,527,906,97,218,454,-258,1,0,30,37,560,0,53298,1
2,31224,30496,32140,45903,32917,-3727,-862,-2413,800,2104,391,221,451,-263,1,0,30,37,600,0,53298,1
2,31210,30555,32120,45904,32922,-3688,-518,-2544,1813,3829,1074,215,461,-277,1,0,30,37,640,0,53298,1
2,31184,30569,32096,45905,32927,-3704,-174,-2703,2133,5193,1868,207,445,-273,1,0,30,37,680,0,53298,1
2,31174,30550,32057,45906,32931,-3799,29,-2886,537,6963,3275,203,457,-283,1,0,30,37,720,0,53298,1
2,31167,30530,32000,45907,32936,-4096,120,-2970,-2263,8743,5110,201,459,-303,1,0,30,37,760,0,53298,1
2,31165,30528,31960,45908,32941,-4749,-484,-2985,-4944,9624,6942,193,457,-321,1,0,30,37,800,0,53298,1
2,31165,30546,31934,45909,32945,-5031,-764,-2859,-4279,9941,7768,169,453,-333,1,0,30,37,840,0,53298,1
2,31160,30553,31908,45910,32950,-4643,-638,-2865,-3427,9859,8180,162,446,-336,1,0,30,37,880,0,53298,1
2,31142,30547,31895,45911,32955,-3950,-406,-3181,-3772,9910,8172,147,431,-345,1,0,30,37,920,0,53298,1
2,31133,30538,31877,45912,32960,-3425,38,-3104,-3222,10346,7820,132,422,-356,1,0,30,37,960,0,53298,1
1,31129,30543,31856,45913,0,-3302,225,-2903,-3311,10658,8402,122,418,-368,1,0,30,38,0,0,53298,1
2,31121,30502,31847,45914,32353,-3320,396,-2979,-5375,9722,9340,104,410,-382,1,0,30,38,40,0,53298,1
2,31117,30529,31837,45915,32359,-3105,170,-3008,-6524,8307,9566,97,397,-395,1,0,30,38,80,0,53298,1
2,31112,30544,31824,45916,32364,-2776,699,-3540,-6659,8090,8697,82,398,-390,1,0,30,38,120,0,53298,1
2,31120,30555,31815,45917,32370,-2484,570,-3209,-3293,8715,8229,66,376,-400,1,0,30,38,160,0,53298,1
2,31134,30548,31803,45918,32376,-2221,470,-3309,213,8933,7943,61,363,-417,1,0,30,38,200,0,53298,1
2,31145,30546,31793,45919,32381,-1819,429,-3188,2065,8857,6940,65,353,-413,1,0,30,38,240,0,53298,1
2,31142,30553,31784,45920,32387,-1568,580,-3115,1830,8402,5752,49,341,-435,1,0,30,38,280,0,53298,1
2,31145,30530,31781,45921,32392,-1366,584,-3152,1789,7595,4990,43,331,-433,1,0,30,38,320,0,53298,1
2,31146,30549,31776,45922,32398,-1177,630,-3081,2192,6551,4108,55,315,-451,1,0,30,38,360,0,53298,1
2,31143,30540,31768,45923,32403,-1038,803,-3284,923,5187,3226,58,316,-452,1,0,30,38,400,0,53298,1
2,31143,30543,31770,45924,32408,-910,692,-3327,-105,4163,2735,50,304,-454,1,0,30,38,440,0,53298,1
2,31149,30540,31769,45925,32414,-795,795,-3494,-593,3288,2171,54,302,-458,1,0,30,38,480,0,53298,1
2,31143,30534,31769,45926,32419,-709,835,-3606,-1096,2752,1848,45,297,-461,1,0,30,38,520,0,53298,1
2,31148,30511,31768,45927,32425,-628,1065,-3731,-515,2564,1598,49,291,-461,1,0,30,38,560,0,53298,1
2,31148,30475,31765,45928,32430,-608,1133,-3944,-265,2630,1533,48,284,-464,1,0,30,38,600,0,53298,1
2,31156,30470,31763,45929,32436,-486,1197,-4067,-404,2916,1640,44,286,-462,1,0,30,38,640,0,53298,1
2,31156,30450,31761,45930,32442,-370,838,-3705,-143,3473,1992,40,278,-462,1,0,30,38,680,0,53298,1
2,31150,30430,31761,45931,32448,-405,949,-3448,-325,3257,1596,45,277,-465,1,0,30,38,720,0,53298,1
2,31142,30435,31765,45932,32454,-259,644,-3005,-694,2447,1549,42,270,-458,1,0,30,38,760,0,53298,1
2,31134,30408,31763,45933,32459,-316,800,-2900,-1160,2284,920,40,266,-450,1,0,30,38,800,0,53298,1
2,31125,30385,31763,45934,32464,-186,699,-2829,-737,320,403,50,270,-466,1,0,30,38,840,0,53298,1
2,31134,30359,31769,45935,32469,-198,1105,-3676,-1126,-282,-96,36,262,-454,1,0,30,38,880,0,53298,1
2,31125,30347,31773,45936,32474,-257,1299,-3929,-1007,-112,-161,35,279,-451,1,0,30,38,920,0,53298,1
2,31119,30326,31778,45937,32480,-238,1334,-4145,-125,-944,-341,36,272,-456,1,0,30,38,960,0,53298,1
1,31121,30246,31779,45938,0,-184,1297,-4055,-181,-367,-136,38,266,-458,1,0,30,39,0,1,53298,1
2,31117,30379,31779,45939,31859,-233,1123,-3689,-759,433,172,33,273,-459,1,0,30,39,40,1,53298,1
2,31123,30422,31791,45940,31864,-47,1104,-3913,-1238,462,388,28,270,-456,1,0,30,39,80,1,53298,1
2,31119,30218,31797,45941,31870,-107,984,-3010,-786,1671,661,36,262,-454,1,0,30,39,120,1,53298,1
2,31129,30214,31814,45942,31876,-143,1044,-3763,-1597,2176,900,36,264,-452,1,0,30,39,160,1,53298,1
2,31209,30398,31901,45943,31883,-52,1007,-3575,-545,1948,834,28,258,-458,1,0,30,39,200,1,53298,1
2,31165,30487,31874,45944,31891,-159,1354,-3562,-617,764,225,27,265,-459,1,0,30,39,240,1,53298,1
2,31157,30520,31882,45945,31899,-160,1477,-3713,23,-209,-28,31,261,-457,1,0,30,39,280,1,53298,1
2,31143,30520,31869,45946,31906,-33,1685,-4106,219,-610,-136,26,270,-460,1,0,30,39,320,1,53298,1
2,31147,30440,31869,45947,31914,-57,1511,-4188,-40,-64,183,34,258,-456,1,0,30,39,360,1,53298,1
2,31141,30420,31870,45948,31922,128,1226,-3879,64,21,248,33,267,-463,1,0,30,39,400,1,53298,1
2,31143,30378,31876,45949,31930,-15,1299,-3832,292,1182,846,27,267,-449,1,0,30,39,440,1,53298,1
2,31184,30464,31960,45950,31936,20,992,-3342,129,1581,888,29,257,-453,1,0,30,39,480,1,53298,1
2,31359,30637,32414,45951,31944,-40,1024,-3106,-474,1423,635,30,254,-452,1,0,30,39,520,1,53298,1
2,31213,30177,31916,45952,31952,-70,1012,-3195,-666,939,330,28,254,-454,1,0,30,39,560,1,53298,1
2,31322,30639,32072,45953,31960,98,1120,-3383,-374,-6,-105,28,260,-456,1,0,30,39,600,1,53298,1
2,31231,30631,31935,45954,31969,46,1340,-3538,-269,-206,-238,29,255,-455,1,0,30,39,640,1,53298,1
2,31857,30658,32231,45955,31978,115,1525,-3796,-854,-402,-403,21,263,-453,1,0,30,39,680,1,53298,1
2,31329,30816,32451,45956,31986,78,1461,-3897,-1600,-177,-341,25,265,-455,1,0,30,39,720,1,53298,1
2,31357,30478,32085,45957,31996,86,1257,-3761,-753,302,-20,24,262,-456,1,0,30,39,760,1,53298,1
2,31267,30715,31945,45958,32003,-36,1239,-3609,18,434,49,23,267,-449,1,0,30,39,800,1,53298,1
2,31250,30678,31932,45959,32012,13,1152,-3423,-404,87,-139,26,254,-458,1,0,30,39,840,1,53298,1
2,31289,30685,31969,45960,32021,-34,1265,-3277,256,-189,-129,27,257,-453,1,0,30,39,880,1,53298,1
2,31300,30675,31990,45961,32029,1,1369,-3523,10,-642,-329,26,256,-462,1,0,30,39,920,1,53298,1
2,31282,30660,31975,45962,32037,74,1272,-3473,210,-733,-329,20,256,-452,1,0,30,39,960,1,53298,1
1,31253,30610,31951,45963,0,-38,1413,-3783,-211,-743,-399,30,266,-454,1,0,30,40,0,1,53298,1
2,31416,30630,32048,45964,31368,44,1300,-3549,-327,-875,-424,23,263,-457,1,0,30,40,40,1,53298,1
2,31386,30630,32080,45965,31375,-53,1478,-3543,788,-450,-197,14,266,-444,1,0,30,40,80,1,53298,1
2,31410,30624,32132,45966,31381,-134,1247,-3664,-655,-499,-457,23,263,-447,1,0,30,40,120,1,53298,1
2,32817,30958,33085,45967,31389,-62,1241,-3611,-1135,-869,-557,18,268,-440,1,0,30,40,160,1,53298,1
2,37043,33065,37077,45968,31394,-232,1510,-3542,1268,-1132,-498,22,266,-454,1,0,30,40,200,1,53298,1
2,35479,31321,36972,45969,31400,-372,1304,-3625,-197,-2982,-1543,26,270,-448,1,0,30,40,240,1,53298,1
2,37325,33435,38125,45970,31404,-165,1285,-3625,-1259,-4162,-1886,23,271,-439,1,0,30,40,280,1,53298,1
2,37369,33381,38050,45971,31408,-300,1773,-3289,1688,-2460,-689,26,280,-438,1,0,30,40,320,1,53298,1
2,36952,33263,37733,45972,31412,-393,1429,-3358,3621,-1968,38,29,281,-451,1,0,30,40,360,1,53298,1
2,36988,32994,37643,45973,31417,-486,927,-3613,1349,-2394,-634,35,285,-453,1,0,30,40,400,1,53298,1
2,32382,31130,33311,45974,31422,-417,840,-3585,330,-2750,-1080,34,292,-452,1,0,30,40,440,1,53298,1
2,31394,30790,32081,45975,31426,-588,1052,-3666,1599,-2956,-969,35,287,-439,1,0,30,40,480,1,53298,1
2,31385,30726,32315,45976,31431,-592,1142,-3687,1195,-3135,-1597,27,297,-447,1,0,30,40,520,1,53298,1
2,31193,30672,31915,45977,31436,-699,1108,-3706,121,-4063,-2444,36,306,-446,1,0,30,40,560,1,53298,1
2,31094,30748,31946,45978,31441,-980,1365,-3677,-44,-4127,-2415,41,311,-443,1,0,30,40,600,1,53298,1
2,31069,30629,31869,45979,31447,-916,883,-3597,226,-3625,-2507,47,319,-439,1,0,30,40,640,1,53298,1
2,31135,30663,31934,45980,31453,-623,1290,-3489,561,-2683,-2623,52,318,-440,1,0,30,40,680,1,53298,1
2,31130,30645,31962,45981,31460,-970,1169,-3560,-366,-2041,-1995,53,327,-437,1,0,30,40,720,1,53298,1
2,31071,30635,31857,45982,31466,-1069,1084,-3725,-179,-972,-928,52,330,-430,1,0,30,40,760,1,53298,1
2,31065,30649,31853,45983,31472,-1042,1185,-3590,482,-316,-399,49,329,-447,1,0,30,40,800,1,53298,1
2,31066,30655,31856,45984,31479,-1104,1037,-3557,-90,-567,31,44,328,-430,1,0,30,40,840,1,53298,1
2,31087,30666,31894,45985,31485,-1166,1017,-3371,-27,-654,-132,49,319,-437,1,0,30,40,880,1,53298,1
2,31180,30694,31970,45986,31491,-1147,934,-3293,200,-1341,-657,51,325,-439,1,0,30,40,920,1,53298,1
2,31213,30711,32014,45987,31497,-1181,812,-3299,-172,-2154,-1031,52,328,-424,1,0,30,40,960,1,53298,1
1,31210,30707,32015,45988,0,-1297,918,-3183,28,-2696,-1433,50,338,-418,1,0,30,41,0,0,53298,1
2,31205,30707,32014,45989,30874,-1402,977,-3213,-178,-3735,-2001,62,340,-422,1,0,30,41,40,0,53298,1
2,31207,30706,32022,45990,30879,-1459,614,-2892,-930,-4601,-2421,52,344,-416,1,0,30,41,80,0,53298,1
2,31202,30706,32035,45991,30884,-1897,431,-2547,-1071,-7006,-3573,52,352,-416,1,0,30,41,120,0,53298,1
2,31201,30703,32040,45992,30888,-2015,358,-2851,-694,-9903,-5440,56,364,-412,1,0,30,41,160,0,53298,1
2,31212,30703,32053,45993,30893,-2296,473,-2676,99,-9483,-7286,64,378,-402,1,0,30,41,200,0,53298,1
2,31209,30697,32059,45994,30897,-2755,403,-2799,-481,-9957,-8098,68,390,-382,1,0,30,41,240,0,53298,1
2,31232,30712,32073,45995,30902,-3019,250,-3149,-257,-10700,-9103,90,404,-372,1,0,30,41,280,0,53298,1
2,31130,30650,31970,45996,30906,-3562,110,-3029,2974,-10017,-10759,94,406,-370,1,0,30,41,320,0,53298,1
2,31112,30646,31972,45997,30910,-4087,897,-3421,6694,-9956,-11659,104,428,-352,1,0,30,41,360,0,53298,1
2,31154,30685,32033,45998,30915,-3935,801,-3673,6358,-9890,-10724,138,434,-336,1,0,30,41,400,0,53298,1
2,31177,30700,32054,45999,30920,-4031,744,-4129,3661,-8186,-9218,149,443,-333,1,0,30,41,440,0,53298,1
2,31139,30682,32009,46000,30925,-3957,20,-3625,1751,-4261,-6667,154,438,-334,1,0,30,41,480,0,53298,1
2,31118,30675,31998,46001,30929,-4237,-397,-2672,3065,-493,-4917,166,444,-328,1,0,30,41,520,0,53298,1
2,31098,30672,32013,46002,30934,-4221,-238,-2471,5526,-3805,-4280,169,441,-335,1,0,30,41,560,0,53298,1
2,31115,30561,32038,46003,30939,-3903,-308,-2317,4158,-5087,-4091,173,445,-323,1,0,30,41,600,0,53298,1
2,31135,30607,32062,46004,30944,-3824,-671,-2490,-44,-5100,-4168,182,448,-310,1,0,30,41,640,0,53298,1
2,31140,30639,32077,46005,30948,-3967,-395,-2168,182,-5085,-4813,191,457,-305,1,0,30,41,680,0,53298,1
2,31153,30597,32079,46006,30953,-3872,-687,-2138,166,-5640,-4215,191,445,-299,1,0,30,41,720,0,53298,1
2,31192,30680,32136,46007,30958,-3941,-426,-2076,1656,-5913,-3961,206,452,-286,1,0,30,41,760,0,53298,1
2,31363,30756,32271,46008,30963,-3871,-426,-2202,1053,-6286,-3222,202,452,-276,1,0,30,41,800,0,53298,1
2,31595,30798,32453,46009,30967,-3731,-378,-2122,-433,-5911,-2903,202,458,-274,1,0,30,41,840,0,53298,1
2,31277,30701,32192,46010,30972,-3664,-399,-1923,-1340,-5559,-2139,207,449,-267,1,0,30,41,880,0,53298,1
2,31240,30678,32155,46011,30977,-3835,-775,-2069,-1754,-5393,-1411,214,460,-264,1,0,30,41,920,0,53298,1
2,31261,30672,32147,46012,30982,-3899,35,-3386,-1914,-4048,-546,199,457,-247,1,0,30,41,960,0,53298,1
1,31245,30684,32156,46013,0,-4874,-839,-2716,-3360,1570,-160,221,449,-255,1,0,30,42,0,1,53298,1
2,31217,30552,32140,46014,30380,-4272,-1212,-878,824,-1543,394,214,456,-262,1,0,30,42,40,1,53298,1
2,31220,30128,32122,46015,30385,-4158,-1103,-1330,425,-466,390,207,455,-255,1,0,30,42,80,1,53298,1
2,31215,30037,32130,46016,30390,-4197,-881,-2018,-385,634,79,202,460,-248,1,0,30,42,120,1,53298,1
2,31217,30437,32135,46017,30395,-4232,-1084,-1526,601,16,-245,211,451,-247,1,0,30,42,160,1,53298,1
2,31223,30504,32140,46018,30400,-4259,-1061,-1568,1060,351,-299,218,456,-242,1,0,30,42,200,1,53298,1
2,31229,30592,32152,46019,30404,-4255,-983,-1705,703,481,-260,216,452,-254,1,0,30,42,240,1,53298,1
2,31233,30646,32157,46020,30408,-4230,-1071,-1623,978,171,-392,211,457,-257,1,0,30,42,280,1,53298,1
2,31242,30603,32165,46021,30413,-4254,-1097,-1602,898,176,-240,214,448,-254,1,0,30,42,320,1,53298,1
2,31248,30602,32171,46022,30417,-4258,-1180,-1610,675,162,0,214,452,-264,1,0,30,42,360,1,53298,1
2,31250,30603,32175,46023,30422,-4212,-1067,-1636,55,13,144,215,455,-251,1,0,30,42,400,1,53298,1
2,31257,30630,32179,46024,30427,-4209,-1065,-1647,57,-34,100,219,449,-257,1,0,30,42,440,1,53298,1
2,31259,30650,32184,46025,30432,-4190,-1075,-1625,88,-6,28,213,457,-253,1,0,30,42,480,1,53298,1
2,31255,30595,32182,46026,30437,-4211,-1069,-1621,163,11,-37,211,455,-259,1,0,30,42,520,1,53298,1
2,31249,30599,32178,46027,30442,-4215,-1083,-1624,249,52,-86,216,454,-258,1,0,30,42,560,1,53298,1
2,31244,30518,32171,46028,30448,-4203,-1087,-1647,243,76,-96,213,451,-257,1,0,30,42,600,1,53298,1
2,31241,30533,32162,46029,30453,-4217,-1109,-1627,138,38,-41,218,460,-256,1,0,30,42,640,1,53298,1
2,31244,30628,32165,46030,30458,-4197,-1077,-1628,71,12,-2,215,459,-251,1,0,30,42,680,1,53298,1
2,31236,30653,32163,46031,30464,-4188,-1086,-1638,51,-11,-21,216,456,-258,1,0,30,42,720,1,53298,1
2,31235,30662,32164,46032,30469,-4207,-1100,-1628,72,-24,-15,219,445,-257,1,0,30,42,760,1,53298,1
2,31232,30667,32161,46033,30476,-4210,-1088,-1625,29,-12,23,219,455,-257,1,0,30,42,800,1,53298,1
2,31233,30671,32160,46034,30481,-4204,-1093,-1645,33,3,14,215,459,-263,1,0,30,42,840,1,53298,1
2,31233,30659,32163,46035,30487,-4192,-1090,-1629,39,-4,6,213,451,-255,1,0,30,42,880,1,53298,1
2,31236,30620,32163,46036,30492,-4206,-1091,-1633,26,-8,9,217,449,-257,1,0,30,42,920,1,53298,1
2,31232,30592,32165,46037,30498,-4201,-1092,-1644,37,-12,-12,223,459,-261,1,0,30,42,960,1,53298,1
1,31234,30579,32163,46038,0,-4192,-1082,-1630,34,-13,-15,216,460,-256,1,0,30,43,0,1,53298,1
2,31234,30588,32163,46039,29887,-4202,-1100,-1636,6,-19,-15,209,449,-261,1,0,30,43,40,1,53298,1
2,31234,30582,32164,46040,29892,-4207,-1112,-1632,12,-17,17,211,447,-265,1,0,30,43,80,1,53298,1
2,31235,30574,32165,46041,29898,-4185,-1085,-1611,-11,-13,25,219,451,-263,1,0,30,43,120,1,53298,1
2,31237,30562,32165,46042,29905,-4204,-1086,-1626,2,-17,15,218,450,-260,1,0,30,43,160,1,53298,1
2,31236,30555,32164,46043,29911,-4199,-1091,-1641,22,-1,3,215,449,-259,1,0,30,43,200,1,53298,1
2,31236,30535,32162,46044,29916,-4210,-1095,-1634,15,-20,14,222,450,-254,1,0,30,43,240,1,53298,1
2,31234,30539,32162,46045,29922,-4219,-1075,-1634,45,-17,0,215,443,-255,1,0,30,43,280,1,53298,1
2,31233,30526,32163,46046,29929,-4213,-1075,-1670,-135,-81,5,219,461,-267,1,0,30,43,320,1,53298,1
2,31235,30515,32162,46047,29934,-4244,-1045,-1658,-576,-287,153,218,456,-262,1,0,30,43,360,1,53298,1
2,31231,30552,32156,46048,29939,-4228,-1100,-1639,-684,-390,430,211,457,-259,1,0,30,43,400,1,53298,1
2,31231,30543,32151,46049,29945,-4242,-1035,-1707,-697,-496,603,215,451,-247,1,0,30,43,440,1,53298,1
2,31227,30521,32149,46050,29950,-4172,-952,-1697,-333,-380,484,209,455,-253,1,0,30,43,480,1,53298,1
2,31221,30509,32141,46051,29954,-4107,-747,-1930,-293,284,645,207,449,-251,1,0,30,43,520,1,53298,1
2,31211,30487,32120,46052,29959,-3969,-493,-2092,-185,1440,1168,217,451,-265,1,0,30,43,560,1,53298,1
2,31195,30600,32098,46053,29965,-3884,-446,-2236,101,2572,1622,202,456,-258,1,0,30,43,600,1,53298,1
2,31182,30150,32075,46054,29969,-3842,-325,-2434,-226,3467,2364,211,453,-267,1,0,30,43,640,1,53298,1
2,31180,30606,32054,46055,29974,-3888,-189,-2617,-870,4716,3268,189,455,-279,1,0,30,43,680,1,53298,1
2,31166,30625,32030,46056,29979,-3915,-76,-2571,-1435,6231,4672,189,451,-289,1,0,30,43,720,1,53298,1
2,31161,30627,32019,46057,29984,-4278,-94,-2852,-2763,8211,6719,180,456,-298,1,0,30,43,760,1,53298,1
2,31143,30625,31990,46058,29989,-4597,-81,-2930,-2139,9594,7961,171,451,-305,1,0,30,43,800,1,53298,1
2,31129,30622,31974,46059,29994,-4683,62,-2968,-1695,10091,8683,155,445,-315,1,0,30,43,840,1,53298,1
2,31115,30616,31948,46060,29999,-4511,165,-3147,-3067,10541,9359,139,443,-335,1,0,30,43,880,1,53298,1
2,31102,30585,31933,46061,30004,-4120,378,-3335,-4010,11131,9694,126,434,-358,1,0,30,43,920,1,53298,1
2,31090,30579,31911,46062,30008,-3792,496,-3249,-4412,11737,10393,108,424,-362,1,0,30,43,960,1,53298,1
1,31084,30577,31890,46063,0,-3621,387,-3056,-5571,11909,11305,99,409,-371,1,0,30,44,0,0,53298,1
2,31077,30575,31870,46064,29394,-3347,363,-3071,-6261,11192,11277,82,396,-386,1,0,30,44,40,0,53298,1
2,31071,30535,31855,46065,29399,-2900,333,-2982,-6325,10395,10349,68,378,-382,1,0,30,44,80,0,53298,1
2,31073,30484,31833,46066,29405,-2641,690,-2982,-5394,9919,9409,53,367,-391,1,0,30,44,120,0,53298,1
2,31072,30451,31820,46067,29411,-2136,522,-3032,-2212,9337,8728,45,343,-395,1,0,30,44,160,0,53298,1
2,31076,30445,31806,46068,29416,-1757,585,-2863,875,8971,7295,35,337,-411,1,0,30,44,200,0,53298,1
2,31079,30443,31796,46069,29421,-1506,944,-2998,1790,8322,5710,45,333,-417,1,0,30,44,240,0,53298,1
2,31084,30436,31789,46070,29426,-1239,995,-3032,2415,7358,4740,32,330,-426,1,0,30,44,280,0,53298,1
2,31089,30434,31785,46071,29431,-993,898,-2993,2444,6652,4018,45,309,-427,1,0,30,44,320,0,53298,1
2,31090,30435,31778,46072,29436,-977,1079,-3284,1045,5840,3298,27,299,-429,1,0,30,44,360,0,53298,1
2,31091,30438,31776,46073,29441,-811,1298,-3369,1395,4954,2684,33,299,-435,1,0,30,44,400,0,53298,1
2,31098,30430,31769,46074,29447,-680,1295,-3338,1149,4259,2364,38,290,-442,1,0,30,44,440,0,53298,1
2,31105,30428,31769,46075,29453,-532,1029,-3286,169,3323,2152,38,282,-448,1,0,30,44,480,0,53298,1
2,31099,30425,31770,46076,29458,-411,922,-3168,-851,2658,1676,32,278,-448,1,0,30,44,520,0,53298,1
2,31101,30441,31778,46077,29464,-335,724,-2324,124,1909,1330,27,279,-435,1,0,30,44,560,0,53298,1
2,31114,30047,31780,46078,29470,-507,1157,-3443,-1069,1938,1025,35,279,-455,1,0,30,44,600,0,53298,1
2,31107,30175,31791,46079,29475,-98,850,-2563,-1418,561,458,29,279,-441,1,0,30,44,640,0,53298,1
2,31109,30615,31805,46080,29481,-517,1358,-3590,-1681,1173,320,32,276,-442,1,0,30,44,680,0,53298,1
2,31110,30628,31821,46081,29488,-198,1360,-3888,543,1628,1010,33,271,-453,1,0,30,44,720,0,53298,1
2,31136,30548,31863,46082,29495,-125,1620,-3645,487,2194,1048,22,268,-454,1,0,30,44,760,0,53298,1
2,31138,30645,31868,46083,29503,-281,1570,-3696,-572,1945,1131,33,267,-439,1,0,30,44,800,0,53298,1
2,31128,30659,31879,46084,29511,-158,1642,-3779,-1495,1610,911,23,265,-447,1,0,30,44,840,0,53298,1
2,31142,30647,31886,46085,29520,24,1200,-3540,-1946,1277,658,25,273,-445,1,0,30,44,880,0,53298,1
2,31145,30626,31889,46086,29529,-68,1284,-3426,-996,1089,536,31,265,-445,1,0,30,44,920,0,53298,1
2,31153,30678,31903,46087,29539,-92,1322,-3389,113,574,331,20,268,-444,1,0,30,44,960,0,53298,1
1,31260,30678,31994,46088,0,-12,1400,-3362,157,41,-13,26,262,-448,1,0,30,45,0,0,53298,1
2,31191,30630,31974,46089,28904,-32,1512,-3509,-386,-154,-238,13,263,-439,1,0,30,45,40,0,53298,1
2,31267,30710,32469,46090,28915,-70,1527,-3712,-542,-341,-273,23,273,-447,1,0,30,45,80,0,53298,1
2,36697,32955,37446,46091,28925,1,1539,-3726,-27,-80,-46,19,269,-449,1,0,30,45,120,0,53298,1
2,32497,30910,33139,46092,28935,-71,1562,-3633,280,243,177,20,262,-450,1,0,30,45,160,0,53298,1
2,34183,31693,33625,46093,28946,-60,1430,-3615,-238,148,66,15,267,-443,1,0,30,45,200,0,53298,1
2,31438,30800,32260,46094,28957,-2,1416,-3443,114,111,84,23,267,-455,1,0,30,45,240,0,53298,1
2,31343,30712,32127,46095,28968,-62,1427,-3488,102,46,42,21,263,-447,1,0,30,45,280,0,53298,1
2,31543,30785,32329,46096,28978,-52,1317,-3399,-94,-117,-54,19,261,-451,1,0,30,45,320,0,53298,1
2,31759,30889,32515,46097,28987,-42,1399,-3388,253,-251,-97,19,259,-445,1,0,30,45,360,0,53298,1
2,32200,31085,33029,46098,28996,-98,1454,-3481,117,-354,-192,22,258,-448,1,0,30,45,400,0,53298,1
2,32332,31138,33063,46099,29006,-38,1405,-3472,-57,-596,-326,23,257,-447,1,0,30,45,440,0,53298,1
2,32590,31190,33327,46100,29015,-77,1409,-3564,80,-419,-215,19,267,-447,1,0,30,45,480,0,53298,1
2,32678,31297,33470,46101,29024,-112,1505,-3615,65,-479,-254,21,269,-443,1,0,30,45,520,0,53298,1
2,32864,31343,33570,46102,29032,-42,1367,-3579,-70,-383,-217,24,256,-442,1,0,30,45,560,0,53298,1
2,32507,31326,33306,46103,29041,-141,1453,-3506,71,-116,-57,21,263,-451,1,0,30,45,600,0,53298,1
2,32952,31492,33976,46104,29050,-117,1420,-3490,125,-312,-150,20,264,-448,1,0,30,45,640,0,53298,1
2,33258,31461,34189,46105,29059,-190,1469,-3412,163,-413,-195,21,265,-441,1,0,30,45,680,0,53298,1
2,33092,31486,34072,46106,29067,-283,1393,-3539,-291,-1452,-769,21,267,-439,1,0,30,45,720,0,53298,1
2,35459,31710,34198,46107,29075,-297,1599,-3693,-311,-2726,-1464,18,282,-432,1,0,30,45,760,0,53298,1
2,37201,33186,37730,46108,29081,-395,1766,-3672,88,-3610,-2115,22,282,-442,1,0,30,45,800,0,53298,1
2,31179,30062,31788,46109,29087,-364,1759,-3789,373,-3978,-1847,30,286,-438,1,0,30,45,840,0,53298,1
2,32410,31062,33024,46110,29092,-235,1353,-3607,1467,-2568,-401,29,281,-431,1,0,30,45,880,0,53298,1
2,31175,30560,31773,46111,29097,-594,903,-3444,2452,-987,453,26,288,-442,1,0,30,45,920,0,53298,1
2,31529,30910,32259,46112,29102,-421,870,-3349,2252,-963,-212,27,293,-443,1,0,30,45,960,0,53298,1
1,31217,30672,31811,46113,0,-511,1113,-3438,582,-1091,-762,26,284,-450,1,0,30,46,0,0,53298,1
2,31275,30695,31894,46114,28408,-674,1267,-3406,897,-1195,-795,32,288,-440,1,0,30,46,40,0,53298,1
2,31265,30759,31986,46115,28414,-731,1462,-3556,1646,-2330,-1231,38,298,-442,1,0,30,46,80,0,53298,1
2,31182,30628,31868,46116,28419,-461,1213,-3450,1613,-3446,-1549,39,295,-451,1,0,30,46,120,0,53298,1
2,31132,30699,32390,46117,28426,-950,1017,-3879,1006,-3966,-2078,40,296,-444,1,0,30,46,160,0,53298,1
2,31810,31348,32835,46118,28435,-623,1342,-3342,1925,-3834,-3361,41,311,-435,1,0,30,46,200,0,53298,1
2,31491,30921,32072,46119,28443,-898,882,-3831,-245,-2026,-1899,41,319,-435,1,0,30,46,240,0,53298,1
2,31447,30910,33426,46120,28451,-946,1064,-3688,-260,-1551,-1552,47,321,-443,1,0,30,46,280,0,53298,1
2,31636,30775,32419,46121,28459,-1008,1335,-3557,321,-1252,-1214,51,331,-441,1,0,30,46,320,0,53298,1
2,31205,30533,31920,46122,28467,-1031,1198,-3613,-183,-994,-760,48,322,-426,1,0,30,46,360,0,53298,1
2,31106,30502,31862,46123,28475,-1073,1167,-3583,-590,-523,-338,52,322,-438,1,0,30,46,400,0,53298,1
2,31099,30496,31856,46124,28482,-1128,1156,-3561,-546,-744,-143,47,327,-429,1,0,30,46,440,0,53298,1
2,31099,30499,31851,46125,28489,-1083,1166,-3544,-184,-796,-285,44,322,-428,1,0,30,46,480,0,53298,1
2,31096,30489,31846,46126,28495,-1135,1050,-3454,-210,-818,-318,50,336,-424,1,0,30,46,520,0,53298,1
2,31098,30497,31843,46127,28502,-1178,1062,-3359,91,-1356,-641,48,328,-436,1,0,30,46,560,0,53298,1
2,31100,30493,31845,46128,28507,-1145,911,-3190,-181,-1950,-889,53,339,-429,1,0,30,46,600,0,53298,1
2,31103,30492,31849,46129,28513,-1349,954,-2883,-226,-2880,-1500,44,334,-430,1,0,30,46,640,0,53298,1
2,31102,30498,31850,46130,28520,-1450,1035,-3105,-1239,-4925,-2187,55,341,-425,1,0,30,46,680,0,53298,1
2,31103,30501,31858,46131,28526,-1487,870,-3136,-2020,-5439,-2601,43,351,-413,1,0,30,46,720,0,53298,1
2,31107,30506,31862,46132,28533,-1792,853,-3070,-2151,-5903,-3153,46,360,-408,1,0,30,46,760,0,53298,1
2,31109,30514,31875,46133,28539,-1953,796,-3003,-2379,-7461,-3934,48,358,-408,1,0,30,46,800,0,53298,1
2,31109,30506,31876,46134,28544,-2126,539,-2807,-1962,-8082,-5336,56,376,-392,1,0,30,46,840,0,53298,1
2,31108,30514,31890,46135,28549,-2346,-136,-2223,-545,-8537,-6981,66,386,-378,1,0,30,46,880,0,53298,1
2,31097,30512,31898,46136,28554,-3019,-191,-2219,1367,-9531,-9258,71,387,-371,1,0,30,46,920,0,53298,1
2,31150,30530,31936,46137,28559,-3431,204,-2396,4726,-10388,-11432,94,418,-362,1,0,30,46,960,0,53298,1
1,31371,30615,32039,46138,0,-3971,975,-3412,6371,-11621,-12024,110,424,-358,1,0,30,47,0,1,53298,1
2,31151,30535,31963,46139,27915,-4008,306,-3123,5891,-12722,-11590,118,426,-332,1,0,30,47,40,1,53298,1
2,31147,30535,31975,46140,27920,-4808,-33,-3056,3599,-11743,-10196,145,437,-325,1,0,30,47,80,1,53298,1
2,31141,30535,31991,46141,27925,-5060,32,-2709,4261,-11384,-9780,154,446,-304,1,0,30,47,120,1,53298,1
2,31145,30535,32009,46142,27929,-4775,254,-2834,4135,-12083,-9465,171,455,-293,1,0,30,47,160,1,53298,1
2,31143,30538,32023,46143,27934,-4147,-84,-2326,2458,-10866,-8048,173,447,-285,1,0,30,47,200,1,53298,1
2,31156,30547,32046,46144,27939,-4415,25,-2829,-1073,-7898,-5843,188,464,-262,1,0,30,47,240,1,53298,1
2,31150,30552,32064,46145,27945,-4647,-17,-3624,-5365,-3794,-4174,190,456,-262,1,0,30,47,280,1,53298,1
2,31150,30590,32081,46146,27950,-4168,375,-2293,2463,-3827,-3795,203,455,-257,1,0,30,47,320,1,53298,1
2,31154,30600,32106,46147,27956,-4016,-519,-1410,374,-3835,-2995,192,450,-250,1,0,30,47,360,1,53298,1
2,31173,30594,32109,46148,27961,-3702,-574,-1477,-1618,-3455,-2745,210,450,-240,1,0,30,47,400,1,53298,1
2,31183,30595,32117,46149,27967,-3496,183,-2906,-3744,-1502,-1760,200,456,-254,1,0,30,47,440,1,53298,1
2,31178,30593,32120,46150,27973,-4235,-51,-2603,-1491,1050,-157,207,449,-255,1,0,30,47,480,1,53298,1
2,31192,30590,32120,46151,27979,-4121,-900,-1308,4076,72,-165,207,455,-247,1,0,30,47,520,1,53298,1
2,31192,30599,32136,46152,27985,-4517,-1183,-1262,761,117,51,203,453,-255,1,0,30,47,560,1,53298,1
2,31197,30540,32145,46153,27991,-4506,-750,-1636,-154,-204,302,207,451,-257,1,0,30,47,600,1,53298,1
2,31218,30532,32156,46154,27998,-4176,-860,-1530,1049,-74,-111,215,445,-255,1,0,30,47,640,1,53298,1
2,31240,30633,32181,46155,28004,-4244,-980,-1530,1152,438,-343,204,448,-254,1,0,30,47,680,1,53298,1
2,31227,30651,32173,46156,28010,-4348,-881,-1589,879,482,-264,203,457,-249,1,0,30,47,720,1,53298,1
2,31220,30641,32165,46157,28016,-4253,-898,-1599,980,405,-300,207,447,-253,1,0,30,47,760,1,53298,1
2,31214,30644,32155,46158,28021,-4216,-946,-1623,817,345,-297,204,454,-258,1,0,30,47,800,1,53298,1
2,31207,30631,32154,46159,28027,-4242,-925,-1602,524,155,-221,204,454,-250,1,0,30,47,840,1,53298,1
2,31208,30634,32152,46160,28032,-4237,-942,-1594,436,111,-203,209,457,-259,1,0,30,47,880,1,53298,1
2,31211,30629,32154,46161,28038,-4227,-958,-1605,260,147,-112,213,445,-255,1,0,30,47,920,1,53298,1
2,31214,30631,32155,46162,28043,-4225,-940,-1616,230,89,-27,207,449,-257,1,0,30,47,960,1,53298,1
1,31211,30628,32153,46163,0,-4233,-954,-1621,148,50,-18,205,457,-259,1,0,30,48,0,0,53298,1
2,31215,30625,32155,46164,27423,-4230,-948,-1608,87,31,-17,205,453,-261,1,0,30,48,40,0,53298,1
2,31213,30624,32153,46165,27428,-4212,-950,-1608,88,24,-11,201,451,-259,1,0,30,48,80,0,53298,1
2,31211,30630,32155,46166,27434,-4218,-948,-1611,76,18,-18,209,453,-257,1,0,30,48,120,0,53298,1
2,31218,30629,32156,46167,27440,-4219,-952,-1610,72,24,-14,205,455,-257,1,0,30,48,160,0,53298,1
2,31220,30624,32159,46168,27446,-4204,-938,-1623,39,14,-6,204,446,-254,1,0,30,48,200,0,53298,1
2,31219,30624,32160,46169,27452,-4228,-955,-1616,27,-4,9,204,450,-252,1,0,30,48,240,0,53298,1
2,31218,30621,32158,46170,27458,-4223,-955,-1625,42,-2,4,206,454,-252,1,0,30,48,280,0,53298,1
2,31218,30618,32157,46171,27463,-4207,-947,-1626,4,8,25,208,458,-246,1,0,30,48,320,0,53298,1
2,31219,30615,32161,46172,27469,-4213,-939,-1627,-2,-13,28,203,453,-261,1,0,30,48,360,0,53298,1
2,31220,30616,32160,46173,27476,-4240,-948,-1610,28,-36,41,209,457,-259,1,0,30,48,400,0,53298,1
2,31221,30618,32158,46174,27482,-4233,-949,-1623,54,-12,96,201,457,-257,1,0,30,48,440,0,53298,1
2,31223,30623,32160,46175,27487,-4215,-963,-1632,-189,-49,264,214,452,-256,1,0,30,48,480,0,53298,1
2,31223,30623,32156,46176,27493,-4265,-925,-1681,-222,-217,432,203,453,-241,1,0,30,48,520,0,53298,1
2,31222,30625,32155,46177,27499,-4222,-868,-1683,-191,-306,396,206,450,-256,1,0,30,48,560,0,53298,1
2,31221,30626,32156,46178,27505,-4169,-858,-1685,-5,-134,341,207,451,-253,1,0,30,48,600,0,53298,1
2,31223,30628,32153,46179,27510,-4199,-863,-1725,151,252,286,197,453,-249,1,0,30,48,640,0,53298,1
2,31217,30631,32141,46180,27515,-4035,-686,-2013,609,780,348,204,448,-264,1,0,30,48,680,0,53298,1
2,31214,30643,32135,46181,27520,-3742,-749,-2015,1039,2053,621,199,451,-255,1,0,30,48,720,0,53298,1
2,31221,30633,32148,46182,27525,-4155,-1047,-1820,2036,2277,622,206,458,-264,1,0,30,48,760,0,53298,1
2,31217,30635,32145,46183,27532,-4258,-793,-1944,1564,2315,719,206,458,-264,1,0,30,48,800,0,53298,1
2,31200,30625,32128,46184,27538,-3839,-354,-2448,1347,3665,1484,194,454,-264,1,0,30,48,840,0,53298,1
2,31181,30628,32106,46185,27543,-3611,66,-2690,1584,5160,2309,193,459,-281,1,0,30,48,880,0,53298,1
2,31165,30610,32059,46186,27550,-3721,371,-2858,306,6610,4030,188,452,-288,1,0,30,48,920,0,53298,1
2,31166,30614,32004,46187,27555,-4085,87,-2793,-1490,8363,5722,183,439,-295,1,0,30,48,960,0,53298,1
1,31154,30610,31973,46188,0,-5082,-649,-2786,-4888,9612,6853,169,435,-317,1,0,30,49,0,0,53298,1
2,31147,30604,31945,46189,26931,-5141,-725,-2430,-3079,9101,6606,149,447,-333,1,0,30,49,40,0,53298,1
2,31141,30584,31930,46190,26937,-4421,-533,-2404,-2664,7834,6112,142,436,-334,1,0,30,49,80,0,53298,1
2,31133,30581,31918,46191,26943,-3528,-187,-2749,-2789,6838,5688,134,436,-342,1,0,30,49,120,0,53298,1
2,31126,30579,31898,46192,26949,-3091,-13,-2728,-2285,7072,5701,140,424,-360,1,0,30,49,160,0,53298,1
2,31124,30584,31888,46193,26956,-3123,-71,-2721,-3131,7507,6200,113,423,-369,1,0,30,49,200,0,53298,1
2,31114,30598,31874,46194,26962,-3334,24,-2939,-3970,7090,6341,116,412,-366,1,0,30,49,240,0,53298,1
2,31114,30604,31860,46195,26967,-3281,417,-3280,-2975,5972,5707,109,417,-375,1,0,30,49,280,0,53298,1
2,31115,30602,31844,46196,26972,-2995,732,-3502,-2938,5701,5399,98,400,-374,1,0,30,49,320,0,53298,1
2,31120,30594,31830,46197,26977,-2857,751,-3359,-3435,6302,5763,90,388,-366,1,0,30,49,360,0,53298,1
2,31117,30583,31814,46198,26982,-2755,694,-3217,-3710,6893,6281,82,398,-384,1,0,30,49,400,0,53298,1
2,31121,30525,31812,46199,26988,-2440,703,-3056,-2676,6770,6468,69,377,-395,1,0,30,49,440,0,53298,1
2,31127,30572,31805,46200,26995,-2223,780,-3075,-1172,6633,6157,65,373,-389,1,0,30,49,480,0,53298,1
2,31123,30573,31803,46201,27000,-2069,792,-3051,159,6564,5620,62,366,-404,1,0,30,49,520,0,53298,1
2,31123,30584,31792,46202,27006,-1902,775,-3043,471,6079,4847,59,355,-415,1,0,30,49,560,0,53298,1
2,31121,30593,31786,46203,27013,-1702,843,-3148,1199,5247,4067,53,349,-423,1,0,30,49,600,0,53298,1
2,31126,30581,31785,46204,27020,-1523,695,-3077,1833,4666,3514,50,346,-428,1,0,30,49,640,0,53298,1
2,31125,30585,31785,46205,27025,-1518,924,-3330,1697,3927,2774,58,336,-434,1,0,30,49,680,0,53298,1
2,31128,30584,31780,46206,27030,-1326,906,-3502,1331,3248,2355,48,330,-430,1,0,30,49,720,0,53298,1
2,31132,30585,31781,46207,27035,-1255,890,-3600,853,3040,2033,49,335,-445,1,0,30,49,760,0,53298,1
2,31128,30577,31785,46208,27041,-990,753,-3237,-67,2473,1852,45,327,-439,1,0,30,49,800,0,53298,1
2,31130,30566,31795,46209,27047,-1116,670,-3139,-2522,2460,2037,36,326,-428,1,0,30,49,840,0,53298,1
2,31138,30521,31815,46210,27053,-1029,1069,-3162,-3313,3864,1793,44,318,-438,1,0,30,49,880,0,53298,1
2,31124,30535,31843,46211,27059,-1042,1367,-3386,-2789,4779,2567,40,306,-440,1,0,30,49,920,0,53298,1
2,31122,30455,31867,46212,27067,-831,1224,-3605,-677,5030,3282,38,308,-438,1,0,30,49,960,0,53298,1
1,31107,31752,31858,46213,0,-866,1660,-3115,529,4519,2513,37,297,-443,1,0,30,50,0,0,53298,1
2,31182,30375,32042,46214,26441,-697,1378,-3501,-1142,2508,1638,32,298,-434,1,0,30,50,40,0,53298,1
2,31147,30182,31937,46215,26450,-608,1168,-3615,-2349,1569,898,31,293,-445,1,0,30,50,80,0,53298,1
2,31174,30285,31927,46216,26460,-421,1150,-3743,-1367,1032,573,34,288,-442,1,0,30,50,120,0,53298,1
2,31925,32050,32777,46217,26469,-515,1142,-3534,330,1292,745,35,287,-453,1,0,30,50,160,0,53298,1
2,31613,30753,32542,46218,26478,-492,1443,-3601,775,904,528,19,289,-445,1,0,30,50,200,0,53298,1
2,36092,32838,37352,46219,26489,-510,1440,-3504,273,754,401,34,294,-444,1,0,30,50,240,0,53298,1
2,31601,31190,34343,46220,26499,-465,1378,-3608,-802,453,51,28,288,-438,1,0,30,50,280,0,53298,1
2,31400,30704,32102,46221,26509,-472,1234,-3553,-597,426,20,28,288,-442,1,0,30,50,320,0,53298,1
2,31304,30697,32598,46222,26519,-445,1334,-3597,-25,250,17,34,280,-442,1,0,30,50,360,0,53298,1
2,31918,30953,32794,46223,26529,-443,1453,-3587,339,201,126,32,288,-442,1,0,30,50,400,0,53298,1
2,34252,32000,34828,46224,26539,-455,1369,-3546,91,24,45,25,283,-445,1,0,30,50,440,0,53298,1
2,33887,31753,34450,46225,26548,-390,1409,-3607,-148,-102,-25,19,301,-439,1,0,30,50,480,0,53298,1
2,33615,31645,34330,46226,26558,-486,1300,-3514,236,86,169,27,291,-443,1,0,30,50,520,0,53298,1
2,32710,31280,33353,46227,26567,-503,1366,-3640,-50,-189,-78,33,287,-441,1,0,30,50,560,0,53298,1
2,32724,31249,33337,46228,26576,-420,1297,-3565,-97,-407,-244,22,292,-440,1,0,30,50,600,0,53298,1
2,36601,33209,38097,46229,26584,-731,1397,-3943,-35,-728,-349,27,281,-445,1,0,30,50,640,0,53298,1
2,37430,33372,38170,46230,26591,-697,1369,-4018,-356,-4591,-2090,37,297,-445,1,0,30,50,680,0,53298,1
2,31070,30522,31819,46231,26598,-486,1565,-3714,2429,-5729,-2602,35,307,-437,1,0,30,50,720,0,53298,1
2,33899,32569,34472,46232,26603,-640,1323,-3436,5657,-1749,-393,36,302,-438,1,0,30,50,760,0,53298,1
2,31124,30655,31785,46233,26607,-753,1261,-3552,6269,-1366,-366,45,301,-441,1,0,30,50,800,0,53298,1
2,31575,31113,32513,46234,26612,-731,834,-3951,-62,-1436,-602,50,314,-450,1,0,30,50,840,0,53298,1
2,33369,31410,37115,46235,26617,-831,1074,-3765,368,255,83,46,296,-456,1,0,30,50,880,0,53298,1
2,31465,30807,32257,46236,26621,-863,961,-3522,1985,24,757,51,299,-451,1,0,30,50,920,0,53298,1
2,31059,30607,31827,46237,26626,-717,872,-3278,2301,-504,-167,51,305,-453,1,0,30,50,960,0,53298,1
1,31028,30625,31793,46238,0,-850,703,-3208,149,-2322,-1466,51,309,-451,1,0,30,51,0,0,53298,1
2,31402,30714,32308,46239,25947,-906,608,-3283,24,-3072,-1878,52,316,-454,1,0,30,51,40,0,53298,1
2,31215,30664,32391,46240,25953,-895,671,-3410,48,-3344,-1926,56,324,-448,1,0,30,51,80,0,53298,1
2,31019,30605,31805,46241,25959,-1170,1033,-3619,-327,-3617,-2015,50,316,-446,1,0,30,51,120,0,53298,1
2,31494,30750,32444,46242,25966,-1193,969,-3878,-291,-3816,-2138,52,330,-436,1,0,30,51,160,0,53298,1
2,31069,30570,31840,46243,25972,-1341,1256,-3965,-907,-3099,-1743,47,335,-425,1,0,30,51,200,0,53298,1
2,31349,30642,32135,46244,25979,-1379,1026,-3981,-729,-2132,-1161,60,332,-428,1,0,30,51,240,0,53298,1
2,31236,30617,32014,46245,25985,-1328,1068,-3843,-545,-1261,-731,55,335,-429,1,0,30,51,280,0,53298,1
2,31128,30582,31882,46246,25992,-1360,1043,-3606,-320,-388,-241,61,343,-431,1,0,30,51,320,0,53298,1
2,31095,30575,31872,46247,25997,-1298,829,-3449,-39,16,-49,56,344,-428,1,0,30,51,360,0,53298,1
2,31063,30553,31856,46248,26003,-1338,839,-3492,-151,182,332,50,342,-428,1,0,30,51,400,0,53298,1
2,31053,30553,31863,46249,26009,-1244,862,-3372,23,321,385,62,332,-428,1,0,30,51,440,0,53298,1
2,31044,30548,31869,46250,26015,-1292,937,-3615,95,1034,714,48,332,-434,1,0,30,51,480,0,53298,1
2,31038,30549,31866,46251,26021,-1415,1116,-3613,645,1799,532,55,333,-443,1,0,30,51,520,0,53298,1
2,31037,30540,31865,46252,26026,-1205,1009,-3546,672,1391,238,59,331,-433,1,0,30,51,560,0,53298,1
2,31051,30555,31853,46253,26030,-915,921,-3353,-1366,2083,1409,52,316,-426,1,0,30,51,600,0,53298,1
2,31456,30701,32190,46254,26035,-1042,850,-3160,-4669,3963,2166,39,329,-423,1,0,30,51,640,0,53298,1
2,31277,30659,32047,46255,26041,-1134,952,-4328,-4715,3526,2185,37,325,-433,1,0,30,51,680,0,53298,1
2,31349,30709,32163,46256,26047,-861,1861,-4608,200,4227,2732,40,312,-432,1,0,30,51,720,0,53298,1
2,31548,30746,32143,46257,26054,-953,1574,-3808,692,5636,3129,41,297,-447,1,0,30,51,760,0,53298,1
2,31180,30645,31978,46258,26062,-901,1405,-3630,-107,4737,2708,36,294,-448,1,0,30,51,800,0,53298,1
2,32359,31089,33313,46259,26071,-663,1137,-3386,-1702,3517,1939,26,296,-452,1,0,30,51,840,0,53298,1
2,32679,31838,34360,46260,26080,-661,1062,-3262,-1746,2769,1372,33,283,-445,1,0,30,51,880,0,53298,1
2,31180,30440,31971,46261,26090,-585,1034,-3228,-918,1434,597,30,292,-442,1,0,30,51,920,0,53298,1
2,31161,30112,32076,46262,26101,-413,1191,-3452,-680,310,-82,29,287,-445,1,0,30,51,960,0,53298,1
1,31218,30610,32054,46263,0,-531,1374,-3640,-672,157,-206,32,294,-442,1,0,30,52,0,1,53298,1
2,31279,30664,32050,46264,25458,-519,1458,-3767,-848,-498,-562,32,286,-438,1,0,30,52,40,1,53298,1
2,31507,30731,32307,46265,25468,-470,1585,-3867,-761,-607,-651,24,292,-444,1,0,30,52,80,1,53298,1
2,31400,30703,32188,46266,25478,-605,1269,-3551,-651,-580,-717,19,293,-431,1,0,30,52,120,1,53298,1
2,31290,30604,32054,46267,25487,-593,1219,-3442,-1069,-1202,-1016,29,299,-439,1,0,30,52,160,1,53298,1
2,31268,30596,32003,46268,25496,-810,1275,-3329,-409,-1918,-1392,29,295,-435,1,0,30,52,200,1,53298,1
2,31172,30369,31900,46269,25504,-862,1151,-3145,-445,-4860,-3056,30,310,-430,1,0,30,52,240,1,53298,1
2,31258,30132,32030,46270,25512,-613,1099,-3188,-1591,-6307,-4093,38,318,-424,1,0,30,52,280,1,53298,1
2,31358,30656,32028,46271,25519,-1309,943,-3281,-3623,-4857,-3731,23,319,-431,1,0,30,52,320,1,53298,1
2,31118,30541,31822,46272,25525,-1388,1357,-3374,-1883,-7723,-5602,26,332,-406,1,0,30,52,360,1,53298,1
2,36539,32040,35533,46273,25531,-1348,1167,-3055,2991,-8100,-5987,47,347,-417,1,0,30,52,400,1,53298,1
2,31744,30655,33110,46274,25535,-1629,736,-2797,2665,-7187,-5412,46,352,-410,1,0,30,52,440,1,53298,1
2,31116,30488,31786,46275,25539,-2112,493,-2766,1191,-7388,-6721,55,363,-401,1,0,30,52,480,1,53298,1
2,31106,30470,31791,46276,25543,-2434,112,-2563,2195,-8818,-8384,59,375,-397,1,0,30,52,520,1,53298,1
2,31155,30484,31866,46277,25548,-3068,-398,-2615,3889,-10099,-10463,75,395,-387,1,0,30,52,560,1,53298,1
2,31121,30463,31860,46278,25553,-3430,143,-2878,7966,-11313,-11915,100,410,-378,1,0,30,52,600,1,53298,1
2,31107,30462,31875,46279,25558,-3833,382,-3337,8807,-12861,-12297,109,419,-353,1,0,30,52,640,1,53298,1
2,31117,30482,31908,46280,25563,-4069,0,-3401,8125,-13372,-12173,137,427,-353,1,0,30,52,680,1,53298,1
2,31115,30444,31940,46281,25568,-4492,-45,-3441,4410,-11942,-11278,141,435,-341,1,0,30,52,720,1,53298,1
2,31119,30449,31965,46282,25574,-4402,104,-2885,5847,-11635,-10916,178,438,-330,1,0,30,52,760,1,53298,1
2,31129,30448,32002,46283,25579,-4464,103,-2674,4844,-11814,-9052,178,454,-308,1,0,30,52,800,1,53298,1
2,31135,30452,32032,46284,25584,-4479,-175,-2821,1808,-10858,-7610,191,457,-297,1,0,30,52,840,1,53298,1
2,31152,30579,32052,46285,25589,-3860,-85,-2191,1696,-9511,-6518,205,457,-277,1,0,30,52,880,1,53298,1
2,31163,30419,32076,46286,25594,-3759,-213,-2740,-2287,-8169,-4361,209,447,-273,1,0,30,52,920,1,53298,1
2,31178,30615,32087,46287,25599,-3447,247,-2263,3,-6935,-4012,215,455,-269,1,0,30,52,960,1,53298,1
1,31204,30617,32096,46288,0,-3157,108,-2478,-1122,-6106,-2681,203,445,-259,1,0,30,53,0,1,53298,1
2,31209,30640,32095,46289,24962,-4276,-733,-3273,-7315,-1335,851,213,459,-259,1,0,30,53,40,1,53298,1
2,31220,30672,32103,46290,24968,-4810,-1057,-2170,776,-139,378,216,448,-260,1,0,30,53,80,1,53298,1
2,31218,30660,32100,46291,24973,-4555,-1264,-1192,254,459,-177,210,448,-250,1,0,30,53,120,1,53298,1
2,31217,30643,32092,46292,24979,-4334,-1096,-1370,-807,-242,129,209,455,-255,1,0,30,53,160,1,53298,1
2,31213,30660,32093,46293,24983,-3996,-772,-1781,-220,-73,342,205,457,-241,1,0,30,53,200,1,53298,1
2,31214,30660,32090,46294,24989,-3975,-1036,-1767,191,370,-69,205,451,-251,1,0,30,53,240,1,53298,1
2,31216,30660,32108,46295,24994,-4295,-1051,-1605,286,462,-76,209,449,-257,1,0,30,53,280,1,53298,1
2,31218,30660,32123,46296,24999,-4465,-918,-1588,1112,373,-260,216,450,-252,1,0,30,53,320,1,53298,1
2,31229,30657,32130,46297,25005,-4354,-974,-1558,1728,454,-606,212,448,-244,1,0,30,53,360,1,53298,1
2,31233,30659,32134,46298,25010,-4234,-1108,-1670,1238,664,-782,204,450,-254,1,0,30,53,400,1,53298,1
2,31234,30655,32136,46299,25015,-4193,-1098,-1659,644,428,-495,218,458,-252,1,0,30,53,440,1,53298,1
2,31232,30655,32141,46300,25021,-4243,-1084,-1664,222,145,-137,218,454,-244,1,0,30,53,480,1,53298,1
2,31233,30655,32140,46301,25026,-4218,-1063,-1653,-41,-73,68,221,453,-259,1,0,30,53,520,1,53298,1
2,31231,30656,32140,46302,25031,-4205,-1062,-1647,-149,-144,85,220,448,-250,1,0,30,53,560,1,53298,1
2,31231,30658,32142,46303,25036,-4206,-1062,-1639,66,-54,-11,217,455,-259,1,0,30,53,600,1,53298,1
