cap1_mean,cap1_std,cap1_freq,cap1_skew,cap1_power,cap2_mean,cap2_std,cap2_freq,cap2_skew,cap2_power,cap3_mean,cap3_std,cap3_freq,cap3_skew,cap3_power,accX_mean,accX_std,accX_freq,accX_skew,accX_power,accY_mean,accY_std,accY_freq,accY_skew,accY_power,accZ_mean,accZ_std,accZ_freq,accZ_skew,accZ_power,gyroX_mean,gyroX_std,gyroX_freq,gyroX_skew,gyroX_power,gyroY_mean,gyroY_std,gyroY_freq,gyroY_skew,gyroY_power,gyroZ_mean,gyroZ_std,gyroZ_freq,gyroZ_skew,gyroZ_power,label
0.628512986756,0.0161246839645,-0.137969000194,-1.35889733832,30.8203697024,0.628479806007,0.0161222958461,-0.138071813123,-1.35862886888,30.8170648846,0.628449950067,0.0161203788527,-0.138051603397,-1.35860572767,30.8141085155,0.396702374449,0.0148855632119,0.145289126498,1.35527681981,12.9044897197,0.605870148376,1.62454116224e-05,0.00399159218237,-0.0574223155509,27.5320999125,0.413886451563,0.00308081265392,0.0518178409392,1.3843770238,13.0756297455,0.498954271332,6.48580450126e-05,-0.0189373243152,-0.368192339311,18.6764518614,0.423341940754,0.000130441710322,-0.0211526880933,-0.100747316024,13.4510325967,0.484931093836,0.000197338458297,0.0218035118472,0.17981803671,17.6514654786,5
0.627271637211,0.00521050969747,-0.366341475724,0.767830170044,29.8958057313,0.627245237342,0.00520962885837,-0.366379421456,0.769018773394,29.8932566181,0.627212255018,0.00520842849845,-0.366055682713,0.768577702641,29.8900646723,0.398102352557,0.00486109524951,0.358499203123,-0.716652044316,12.2461322818,0.60522730949,9.12169711431e-05,0.0144183107086,-2.78925112028,27.4792572673,0.414007905972,0.00101622530945,0.165528746641,-0.680575166858,12.9303916385,0.497669245234,0.000429312470961,-0.0985362699794,-1.8353877766,18.6073699467,0.421543883877,0.000756191612446,-0.142746787967,-3.04550784033,13.3834016319,0.488017039286,0.00188378543557,0.224096511572,3.14371453297,18.0014474198,5
0.632865778947,0.00118486192329,0.028640782142,1.91359880167,30.1266118445,0.632833433335,0.00118436571364,0.0287587547207,1.91624936148,30.1235046388,0.632804238662,0.00118419803072,0.0286812519505,1.91495696706,30.1207209894,0.392530659288,0.0012156000536,-0.0353672816463,-1.79305476031,11.64597829,0.604824100308,0.000485747367118,0.000812373460086,-0.797655491041,27.4718597286,0.411351913844,0.000469340706029,-0.00814941488992,-0.57935483318,12.725510989,0.499826752972,0.0017386453894,-0.139602512138,1.09768255775,18.8656684828,0.423717617428,0.00286199009736,-0.180205350451,0.473036620357,13.6770337161,0.484605579849,0.00603286910298,0.263706735569,-0.0643762006687,18.0596249152,5
0.626338264543,0.000353377200938,0.0881561408723,-1.76541989529,29.4486215351,0.626005500055,0.000337530021831,0.0691953667457,-1.94754743623,29.416193679,0.627081725087,0.000409719107446,0.108593137258,-1.10208790413,29.5226809593,0.4024637058,0.00112814624349,0.16776734823,3.86140988993,12.2317604085,0.606394235702,0.000646275164126,-0.0231533174988,-0.253055630773,27.6263720441,0.413428790729,0.000666158548881,-0.108388375018,-1.66470468054,12.8685481079,0.500928345153,0.00268373803455,-0.00570960837914,0.652833567439,19.0182871379,0.420328350195,0.00595412886787,-0.372130172788,-0.936234522398,13.6912996846,0.48209606352,0.00775003638229,-0.051436153305,0.0787677855728,18.0047487769,5
0.631675929437,0.00134828274741,0.0529097201779,-1.27371309525,30.0258589106,0.630659803206,0.000339270165032,0.00913026143696,-0.549326718819,29.8549900457,0.631852023384,0.00129926209074,-0.0109771306677,-1.57174822677,30.0389188538,0.395914754438,0.00509695296491,-0.12231372385,-1.4153109449,12.133311478,0.606689899148,0.000990950417228,0.0063507427334,0.102061824336,27.6787778605,0.413231041156,0.00103620270083,0.0479747732071,-0.039693084152,12.883671003,0.500467598033,0.0034588805408,0.121857330596,0.523970855108,19.0410434111,0.426351663579,0.00827244775264,-0.144222264051,-0.251174194659,14.2453417114,0.485161913403,0.00860764053364,0.0369098412183,0.122606792676,18.2906215658,5
0.625485255298,0.00165048269216,0.00565863547896,-1.03646103526,29.4645210639,0.627105372352,0.000380998355869,0.046173590981,-0.687739965862,29.5227799808,0.62581664843,0.00156148097723,0.0343957503326,-1.21693513713,29.4890354012,0.397405953498,0.0053998194835,0.0133129220873,-1.41076978501,12.2444485325,0.605495546678,0.00125644413366,-0.0591879893013,0.0740412454202,27.5898411444,0.413799896055,0.00123649585557,-0.0429457414545,0.198281516823,12.9337772415,0.497536221575,0.00408607299825,-0.0246168145496,0.497996680005,18.8680412853,0.425801442053,0.0113655948024,0.105547423374,-0.424218981582,14.4390691194,0.484322941884,0.00880344777837,-0.0419427715397,0.150372442979,18.2441085382,5
0.629466125659,0.00491463633678,0.230997492059,-0.421201943942,30.0807533403,0.628763924407,0.000721245446789,0.0302307939222,0.0130365693476,29.7041776108,0.629310312288,0.00499439602108,0.244899525238,-0.443548192426,30.071945492,0.395732951298,0.0063546606728,-0.0625514951268,-0.884265385641,12.2155875455,0.605628349589,0.00145697747196,-0.0651879334959,0.124277948525,27.6167436699,0.414146121933,0.00167511160455,0.0328819003293,-0.138012665868,12.9877340321,0.504766330595,0.00595809271284,0.167111320924,0.956346274523,19.5500774985,0.421027273631,0.0123471708876,-0.119409020423,-0.347738139146,14.2084880313,0.483204701418,0.00945438614675,-0.0966475320344,0.158985249128,18.2111333353,5
0.627485284218,0.00511225888267,-0.0177816361038,-0.349065934364,29.9086408006,0.628393075391,0.000750349666755,0.0130750617648,0.0628824700797,29.6713651653,0.627471180735,0.00518801193817,-0.0178464384901,-0.380647417225,29.9129190824,0.398222134646,0.00667051463715,-0.00492112374056,-0.879927297633,12.3871832223,0.605581045868,0.00176333695594,-0.099358131373,0.0269152680681,27.6351171683,0.413245211974,0.00184046631921,-0.0379956621862,-0.227919620673,12.9440648991,0.496345567035,0.00830988917087,-0.220494104604,0.313564049486,19.0918509423,0.422555800566,0.0134987389935,-0.107911494381,-0.2988324911,14.3904120299,0.482897323055,0.0104814683489,0.0368676803996,0.108297882662,18.2648655039,5
0.626471257517,0.00565638051065,-0.0890536132162,-0.390886150009,29.8535398949,0.628892568042,0.000763658989183,0.0120552470995,0.0140218836184,29.7194504256,0.627711526785,0.0053252489719,-0.0460095799055,-0.381768067688,29.9457004883,0.396626517686,0.00749448267656,0.0195121747861,-0.821350576492,12.353036308,0.606207209023,0.00179845780433,-0.0061623001643,-0.013634226812,27.6946243979,0.413915520706,0.00242491913617,0.028686880446,-0.0612032949478,13.0288983871,0.501867701723,0.00889840399439,0.031540063517,0.20597764684,19.5488211481,0.423864128318,0.013704044687,-0.0389835080119,-0.317304369072,14.4886592525,0.483735960695,0.0111122662487,-0.0135192101042,0.113253320048,18.3723436776,5
0.625980843581,0.00775156383125,0.0535443537994,-0.616334587039,29.9625169633,0.62636472999,0.00127470694913,-0.135902356131,-0.548549267655,29.5192864374,0.626666163227,0.00653922415829,0.0748373990604,-0.619484684294,29.9371885977,0.396325204584,0.00757604401734,0.00774615722868,-0.795745356261,12.3411523414,0.605353874192,0.00180636776194,-0.0136379360971,0.0465182209916,27.6176696893,0.414274085236,0.0024950715341,0.00214277508957,-0.0679376717738,13.0563616209,0.498713489397,0.00924745341972,0.0453413726764,0.258723833715,19.3379473911,0.423460793279,0.013759449964,0.00187403859881,-0.305311572878,14.4671275557,0.484650083354,0.0111270808012,-0.00238070520087,0.0869194392628,18.4398317264,5
0.624001110332,0.0115806018013,-0.117898899137,-0.488421846879,30.0602684605,0.626755146944,0.00324057913872,-0.0723085828247,0.477120147706,29.7014539228,0.624633763608,0.00911508678388,-0.157699979407,-0.580441504328,29.9370668199,0.39915198403,0.00891726695088,0.114145082702,-0.585487336142,12.609050731,0.607016866923,0.00260491425491,-0.000402963140955,-0.0208076971008,27.8279744095,0.412692748782,0.00301424829891,0.0122594264548,-0.166818009898,12.9967022414,0.495328716016,0.0101592993882,-0.0790170876943,0.201307907856,19.153078423,0.422372075477,0.0143735491732,-0.0589450714818,-0.296799393456,14.4435053995,0.482891918196,0.0122273151174,-0.0808487922524,0.0828306724608,18.3936666681,5
0.629313271359,0.012353823971,-0.0214524664668,-0.504778804542,30.616822487,0.629548358899,0.00346999022529,-0.00207579052785,0.3777385359,29.9816144911,0.629774852034,0.00951267023538,0.00842913862324,-0.667115393049,30.4501649165,0.399004391748,0.0102060863456,0.191800298835,-0.477322440265,12.6955882371,0.606311502907,0.00296401483045,-0.00113027593701,-0.0535509088772,27.7903599893,0.412967311804,0.00330739893955,-0.0824628913136,-0.124231485772,13.0353975679,0.498969564101,0.0129014094202,-0.20875568787,0.374678058084,19.6275012396,0.42558025428,0.0158940093481,-0.179510509242,-0.27110972603,14.7600481543,0.484056732883,0.0131810996678,0.0490361362929,0.107888660104,18.5487204242,5
0.628454839443,0.012795736587,0.121013308914,-0.455651912418,30.5685458989,0.628096746069,0.00377319895992,0.0818196546978,0.338972776958,29.8671309047,0.628147418427,0.0098265907337,0.0889743494738,-0.597267138938,30.3198561601,0.39688693386,0.0111968534536,-0.0359850281939,-0.428890854446,12.6425100257,0.604658284541,0.00283349304894,-0.0491514856739,-0.0240254205606,27.6305515655,0.412429037741,0.00349216715957,-0.0476115112734,-0.0659715344587,13.0157487077,0.504214441551,0.0138461184021,-0.0707553123413,0.17145001689,20.0920279919,0.426360067779,0.0158409101135,-0.297478952453,-0.267346871948,14.8059454032,0.480680188951,0.0113086023068,0.285111720042,0.04954292785,18.1658448745,5
0.628778302995,0.0134892437549,-0.102822069009,-0.396578283892,30.6503656116,0.628672912395,0.00397038474315,-0.0694731969491,0.309978617788,29.9360307794,0.628650275377,0.0106930758585,-0.104773282322,-0.492674157902,30.4313752684,0.396758445501,0.0112266186083,0.00908491358022,-0.42420718453,12.6370645827,0.605730071913,0.00254707716995,0.00481939654409,0.0042415902112,27.706652712,0.413811222507,0.00341739114744,-0.049590546248,-0.115099074153,13.0958665354,0.500707964835,0.0125203690229,-0.0693527367071,0.26338462713,19.7296422614,0.427700641322,0.0140704741659,0.0633243787788,-0.387787054617,14.7608029823,0.480342271365,0.00685329846676,0.0978694826109,0.15724861714,17.811796411,5
0.630446682922,0.0142041557641,0.167682146024,-0.3266581421,30.8608340271,0.629312534692,0.00417270180773,0.0858724837772,0.265895712886,30.0113499078,0.632556695121,0.0112132346191,-0.0127184914989,-0.45662429746,30.8393773025,0.401283331846,0.0080528377643,-0.0271919137364,0.246108182482,12.6730334258,0.607002177042,0.00242712108786,0.0594591365916,0.00807532416403,27.8134801805,0.412403337336,0.00302791893023,-0.109064848931,-0.137597081457,12.9798044493,0.501216982555,0.01258219402,-0.0764478860702,0.205447746148,19.7724671276,0.427223966916,0.0107945314682,-0.281274746622,-0.229710875994,14.4878191717,0.484692448032,0.005587990632,0.0169135775707,0.136774019492,18.0330189952,5
0.627162151162,0.0134652919064,0.13533772056,-0.250874255874,30.4963588899,0.627869070367,0.00399291311824,0.0557972878083,0.357586282328,29.861943285,0.627331749844,0.0108922372016,0.154089007299,-0.36910107414,30.3219098801,0.397231935858,0.00837150125696,0.344540165736,0.100939610635,12.4539819079,0.606177315181,0.00326194367961,0.162452454628,-0.0140776146908,27.8002041403,0.415456600546,0.00307803711983,-0.119677066039,-0.242246404213,13.1730887672,0.498174596742,0.0149144554158,-0.0455402406032,0.0575817876585,19.7170143637,0.429406691365,0.00978977296031,0.101923352684,-0.0740926197168,14.5537011932,0.485396581064,0.00743452339562,-0.043543375351,0.0984091002907,18.2208927994,5
0.625738379786,0.0126045782378,-0.177532764207,-0.33962942985,30.2988777849,0.626093182876,0.00395290545229,-0.088225884517,0.335403393423,29.6919655268,0.623036359111,0.0104968413336,-0.0620321052432,-0.511328633825,29.8898391168,0.398617449368,0.00869557977943,-0.0950470704819,0.0412452565629,12.5606632242,0.606768667515,0.00322094454769,-0.111118551075,-0.0439198436207,27.8509660874,0.41166422236,0.0030279494312,0.126704428022,-0.35317602154,12.9341256557,0.501506682893,0.0155769941349,0.103313397829,-0.111100375458,20.0158690399,0.419657741453,0.0089047055992,-0.0189350646133,-0.02541735707,13.8673947114,0.48132710672,0.00743887450264,0.00206791743812,0.146495301991,17.926160488,5
0.627915927,0.0114081632483,-0.089676416854,-0.346801242455,30.4150849339,0.628100054209,0.00393990743343,-0.0407035908419,0.293460250094,29.8797790074,0.62658832232,0.00871043289757,-0.14984366917,-0.539643544562,30.0905414595,0.397395311856,0.00785563706732,0.0243190601851,-0.0423229846261,12.4255446844,0.606598452817,0.00300018713649,-0.0197542332936,-0.0466151013543,27.8191400701,0.412931347951,0.00285668006051,-0.029661870963,-0.271297058528,12.9998166835,0.496853807815,0.0132075765979,0.155326178363,-0.193629737314,19.4921386437,0.425168355669,0.00829424914294,-0.122192058345,-0.0398499441032,14.1713842362,0.48377325559,0.0069254902022,-0.145864327622,0.110559810009,18.0652284868,5
0.626429795585,0.0118809482968,-0.123589012842,-0.292745014759,30.3102618337,0.627608023943,0.00402856805703,-0.0168521687207,0.301226891207,29.840001415,0.627449480158,0.00913384964516,-0.111632885887,-0.493092969897,30.202868635,0.399727232964,0.00821326138349,-0.191952863151,0.0850073884123,12.5914209003,0.606411837469,0.00309815504259,-0.140736375967,-0.0544638660546,27.8094122198,0.411798194619,0.00298504784017,0.194091238026,-0.615263798673,12.939225022,0.498795094574,0.0143922744508,0.213013067242,-0.20296594566,19.7247692872,0.4195493107,0.0104095928389,-0.22774437605,0.0285380487682,13.9719316783,0.480263242237,0.00696841937448,-0.019204086379,0.160593155604,17.814621672,5
0.628918831896,0.0110401637145,-0.0353974207982,-0.444553139695,30.4823893984,0.629056738644,0.00409914742697,-0.112474558672,0.242426261679,29.9817654421,0.628129747698,0.00899175598636,-0.0521737071632,-0.530446722911,30.2564134387,0.396300933012,0.00890369452485,0.174933411782,0.098894852907,12.4379556078,0.606261697108,0.00323098542064,0.0518413941846,-0.0593041275191,27.8055863247,0.413204473462,0.00348136678433,-0.15218018516,-0.437751605328,13.0629664087,0.498078273683,0.0189336633639,0.0857060584762,-0.0589907308871,20.0072385926,0.429809846065,0.012096431073,0.0809931437386,0.0296960769729,14.7503736825,0.487832152098,0.00782331634146,-0.0901633345068,0.168488898602,18.4274410558,5
0.625353639548,0.00921096455605,-0.00235747525137,-0.690128698047,30.0116494643,0.626523171292,0.0029394206042,-0.0630005349553,-1.08126892655,29.6573634371,0.623977932001,0.00749030906534,-0.223622514336,-0.603536162317,29.7554173427,0.395081068483,0.00919352772549,-0.170144934863,0.139315513085,12.3869998522,0.603812242341,0.00315100219734,0.0489312233183,-0.0437953996336,27.5773659626,0.415413334697,0.00360075253368,0.0292384753738,-0.451578115132,13.2090735858,0.498780377731,0.0189479597841,0.030936989631,-0.069172927803,20.0607889147,0.417483332843,0.0143262957431,0.0913232311851,0.00187320299433,14.1320708751,0.482242118823,0.00854386887131,0.230009341283,0.233892343601,18.074055884,5
0.629333991036,0.0065776851505,-0.0374947676315,-0.0634358923295,30.1913441217,0.630051686957,0.002098614747,-0.100709951678,0.0653224087923,29.9276821091,0.629657440004,0.00660758318873,-0.112084992186,0.125907484593,30.2240980374,0.398126386656,0.00982621617185,-0.0118992219992,0.29275003152,12.6149864781,0.60680374027,0.0037417904582,0.0552691710745,0.700999129458,27.8927009344,0.412544326768,0.003871820797,0.0137656088491,-0.615877645746,13.0509763551,0.495816263097,0.0209041718763,0.324159516635,-0.171481023109,19.9844412252,0.425453340496,0.0192051324767,-0.413696727194,0.23202478911,14.9969706737,0.483757958758,0.00925296276535,-0.0795881947256,0.0986867367357,18.2363514442,5
0.629898015283,0.0064033133605,0.0240910986372,-0.104906707595,30.231708413,0.628757346683,0.00188035346884,0.0161277620329,-0.0229094759225,29.7893312323,0.629453956713,0.00655834313508,0.0460253434467,0.116901121004,30.2012386637,0.398052777053,0.00890071526219,0.0979047684209,0.372346406739,12.5421039284,0.606204459076,0.00368489994874,-0.0174356223292,0.730683409845,27.8339710615,0.413481689442,0.00441660525959,-0.13158554771,-0.455983125111,13.149361852,0.501214126193,0.0245207050877,0.0152411444025,-0.183030320661,20.6557021986,0.428718886154,0.0196627348029,0.0436501311384,0.0965143435464,15.2400336263,0.485918413529,0.0092431254209,-0.0188162355223,0.0465806837181,18.3927441266,5
0.62891010815,0.00851298757116,-0.285264655996,0.0590968587311,30.2945553903,0.628786062964,0.00226646283674,-0.133424408127,0.182755924745,29.8206117232,0.628752885245,0.00819713762221,-0.298679362109,0.160815762833,30.2563524868,0.39683568028,0.00871574094384,0.0406513387891,0.403669656674,12.4558566156,0.606364965968,0.00377866926561,0.00730130069717,0.721386050571,27.8555069222,0.414116366081,0.00427633050639,-0.0189551747435,-0.493311300829,13.1783758067,0.498042236657,0.0241609120856,-0.0633958826971,-0.141114057419,20.3913627064,0.419431142282,0.0204117205686,-0.0656460601488,0.218878473914,14.7046535558,0.483315534878,0.00983497861109,-0.0711603269283,0.0220562085703,18.2473313863,5
0.627212895245,0.00850008653318,0.0372154804306,0.0368775070657,30.1337076006,0.627457629275,0.00220975688502,0.06507824396,0.234830595069,29.6912527496,0.625905979238,0.00807666648809,0.152630635995,0.17527647784,29.9795454336,0.39381446301,0.0144776223912,-0.330033361507,0.3550769819,12.7030814027,0.604044683062,0.00663275534578,-0.0997352072839,0.962324399098,27.8560723307,0.414731047326,0.00604798698674,0.0851426246229,-0.738525283879,13.3476891582,0.499778327783,0.0248207090187,-0.00477791416075,-0.189781050972,20.5701107365,0.41862106352,0.0293777111931,-0.178916509406,0.529750590706,15.31722024,0.481738941439,0.0147789453672,0.132885945657,-0.260037378484,18.4990725345,5
0.629880428187,0.00799453177,0.172285620537,-0.199880952596,30.347796887,0.629074118406,0.0020344116259,0.0276395794332,0.158005965118,29.830614944,0.629421394101,0.00716624653981,0.12457678044,0.06479802691,30.2431490954,0.39507693144,0.0150027729143,0.250051759481,0.356062426258,12.8166388274,0.604850426136,0.00649623922031,0.211721715982,0.882824422867,27.9190245521,0.414072176396,0.00598147892051,-0.0743173444661,-0.705225616439,13.301811985,0.502952818735,0.022580060484,-0.332664125239,-0.109337605397,20.6430398163,0.431003378943,0.0285580105021,0.0760127677432,0.402387660308,16.0455862266,0.487670443992,0.0140982102402,0.083518567817,-0.333871637874,18.8799522036,5
0.627035698017,0.00839184251421,0.0637602103125,-0.140118475473,30.1090288402,0.627940096696,0.00214496708958,0.03682896727,0.173995878753,29.7318849425,0.626377006216,0.00833110699014,0.0224944200969,-0.00619715673543,30.042613461,0.39713743653,0.0129491405129,-0.0727611098137,0.39982105634,12.78709716,0.606073808338,0.00576806608561,-0.0390073179889,1.14277682067,27.9762464768,0.41425024293,0.0058646896777,-0.0096513884779,-0.742053765621,13.3042318187,0.501634716996,0.0202429733134,-0.0359417204501,-0.128949033212,20.3707842224,0.419095931664,0.02894201312,0.15665305826,0.532571561547,15.3148139662,0.481691582879,0.0130101038313,0.0563112347823,-0.334651179081,18.3647562598,5
0.631121949488,0.00829056259947,-0.0199367282867,-0.0747876358051,30.4871202667,0.629818568048,0.00210437502604,0.0223353318908,0.25552189668,29.9060809012,0.630147860778,0.00800400594263,0.0111481699134,0.0853766306464,30.373770923,0.394403604971,0.0131544207222,-0.156727772803,0.386836376876,12.6399924045,0.604310104562,0.00593078888951,-0.113074591021,1.09862052178,27.8281810635,0.415513706498,0.00580471530456,0.0483161703737,-0.719902918235,13.3784219541,0.500424756,0.0204020477644,0.209524544454,-0.0881826577733,20.2916217659,0.42999345154,0.0308121038329,0.346315493722,0.397719060859,16.1471733112,0.487129469737,0.0134168157255,0.181452895567,-0.383988141504,18.7899783851,5
0.627752553818,0.00774315083907,-0.0702287047704,-0.0411888258362,30.128488324,0.628100915885,0.00197527556996,0.00162144754481,0.33750750547,29.7344774324,0.628905090227,0.00765700527385,-0.0817012895559,0.134763789347,30.2307393288,0.394913603214,0.0153307268669,0.0262062999488,0.3926098061,12.8312303384,0.604150368797,0.00700828538711,-0.127232299939,0.986868704855,27.8934382275,0.415096352887,0.00675304207151,0.0605807749532,-0.696807934939,13.4225987768,0.501236134212,0.0266849820405,-0.277568295058,-0.0997200808381,20.817513339,0.416926777539,0.0357901841604,0.161770609206,0.367403073078,15.685568965,0.483555819734,0.0161472431668,0.122842330088,-0.303294166016,18.7318633043,5
0.629822253675,0.00719770249209,-0.141269911085,-0.116997272688,30.2833353263,0.628629920077,0.00191262059538,-0.0806895081639,0.33199493836,29.7797021552,0.62836826654,0.00749608674128,-0.0784877738046,0.101864465511,30.1682112984,0.39612186166,0.0165057680061,-0.043866289094,0.303978585945,12.9898665288,0.605829831022,0.00749576217476,0.124254212795,0.844185527625,28.0819202126,0.412816687136,0.00744617070534,0.0140032604431,-0.406000066131,13.3323379205,0.49117087073,0.025300902205,0.303682174921,-0.269855483596,19.9659285822,0.426380606286,0.0391779814523,-0.113732639659,0.363073520977,16.5342022337,0.48736062741,0.0169842400142,0.0730286056663,-0.378809093869,19.0708623473,5
0.63315748885,0.00711894845623,-0.107991052235,-0.0492478863167,30.5934326123,0.629538433659,0.00200290798742,0.0954702293318,0.246011437716,29.8721131501,0.630785923799,0.00826648800499,0.0553479319546,0.0383625155902,30.4535362371,0.395169463651,0.016251973497,-0.00744462757238,0.322693847802,12.914563914,0.604308959441,0.00744695801158,0.0270710709588,0.911354743583,27.9402737774,0.415903671603,0.00693854919772,-0.0237405787509,-0.503451577087,13.4866424446,0.50085942246,0.0234177562214,-0.178951724258,-0.288514389731,20.5474260404,0.416018075975,0.038222687723,0.194982932388,0.489592032327,15.8088068568,0.48339018255,0.0156189847516,0.0984988507724,-0.386655443947,18.6807600155,5
0.628888343619,0.00767330086458,0.256696647551,0.14316465256,30.2303654195,0.627713862151,0.00174246800457,0.0704313024806,0.266095535158,29.6807945876,0.627560902001,0.00793754060975,0.116951921353,0.0743950282971,30.1248294341,0.395705070036,0.0161789533424,0.0200991931939,0.299658047897,12.9409302312,0.605820257166,0.00741806903112,-0.00443823258701,0.863069619875,28.0753009078,0.413629658224,0.00670279807585,-0.0142826828944,-0.474286728209,13.3277191198,0.499125549397,0.0235115903935,0.134725979014,-0.249123659228,20.4243312437,0.427687926641,0.0361655558708,-0.144435184191,0.387478837015,16.395023329,0.484870321525,0.0154171144994,-0.0507005282911,-0.425733036857,18.7733086252,5
0.627221747655,0.00796945253878,0.00414445778585,0.198995707627,30.0952735427,0.628081913332,0.00193944524771,-1.37732703348e-05,0.344937445775,29.7300356874,0.628638595072,0.00822697133721,-0.0265924080656,0.107900537214,30.24778212,0.397326841015,0.0163837039178,-0.0723454205805,0.240022911287,13.0525404842,0.606065585842,0.00728664789709,-0.0342225416968,0.605152261854,28.08787402,0.413058572584,0.00593571719711,0.102750487893,-0.507284153882,13.2355469015,0.494702684066,0.01876285652,0.493004293485,-0.449880942192,19.7432573042,0.423766044807,0.0356304989355,0.08140384793,0.246817534484,16.1049814761,0.485256217848,0.0156977648954,0.0331561882904,-0.471081908164,18.8221543742,5
0.632153783056,0.00710457284039,-0.0595271914099,0.388062610633,30.4971187976,0.630294305968,0.0017070594069,-0.0160106187262,0.618080644162,29.9216408063,0.630923039705,0.00753465489927,0.00921166519542,0.240385551801,30.4123556148,0.395886068412,0.0162030806973,-0.0105278765676,0.270199535301,12.9534614088,0.605123071989,0.00716024991629,-0.00837590693377,0.6343502247,27.9929034128,0.414154738661,0.00566512164208,0.0292555042008,-0.537551266867,13.2835300681,0.500345340185,0.016040619172,-0.117924828658,-0.29532286495,19.9629152771,0.419635506664,0.0376468433388,-0.0560542634697,0.314662467488,15.9929132911,0.484515914428,0.0149073993992,0.0301365350916,-0.494367395287,18.7098229056,5
0.626363896856,0.00516699068831,0.0493186511397,0.105101044719,29.8072371573,0.627435694442,0.00120584957756,0.0206294847755,0.443338317628,29.6148991683,0.626475544141,0.0057522299147,0.0332048322991,0.139188378867,29.8610355692,0.400178285313,0.0155885014798,-0.0907347875002,0.230535349228,13.1642486122,0.60881593234,0.00675224905881,-0.24080147778,0.636194059219,28.2989293907,0.411421650512,0.00541971478913,0.169760815753,-0.525411906382,13.0961419827,0.498260348583,0.0154867276769,0.113489040868,-0.27108214512,19.7657709709,0.421344926914,0.0321481431688,-0.224720047507,-0.0829388424743,15.6938286522,0.48125158292,0.0133408316234,-0.106029560206,-0.786361275981,18.3574529949,5
0.629324512062,0.00466461106222,-0.105793151251,0.0914580604242,30.0488818298,0.629021337914,0.00111106487679,-0.043502720805,0.430765699453,29.7573070672,0.629256380599,0.00536970650247,-0.0968774614414,0.0955380797658,30.0946277205,0.39561643434,0.0102997558986,-0.179086977432,0.233479990095,12.5006091705,0.605588790039,0.0040726908181,-0.138114921472,0.159414044681,27.8067128171,0.413539507338,0.00401310803137,0.171363866701,-0.0585064260492,13.123089304,0.495810394823,0.0161014938304,-0.155618929231,-0.250168097699,19.6286066146,0.422677230039,0.0281189972553,-0.0477745934397,0.0218266393468,15.4800088564,0.483262613406,0.0101397410263,0.0286525026977,-0.320878365859,18.2660473497,5
0.628166306953,0.00433115891204,0.0971534729073,0.0941714097072,29.9149739488,0.628356172962,0.00105853158253,0.0307493499219,0.511068269225,29.6906923446,0.628855166574,0.00497632857773,-0.138667584823,0.139218209968,30.0276598543,0.39593475137,0.0102562214687,0.0218785223623,0.225230221666,12.5162849394,0.60539436508,0.00402298069658,0.00576668687132,0.159020590451,27.7853758668,0.414457903239,0.00406243592304,-0.0128935776373,-0.104599341122,13.1837717751,0.500078326034,0.0163952819247,0.0439667211617,-0.330158560109,19.9691257751,0.42201027471,0.0280136119909,0.0836507216966,0.0349553634538,15.4299576844,0.483517476728,0.0105313234413,0.0856688981774,-0.264109457668,18.3135042073,5
0.627021675226,0.00411184333351,0.106155901189,0.127539021303,29.7909899969,0.627850150447,0.0010981034948,0.0351648941806,0.467933703997,29.6459455149,0.626994393939,0.004019654941,0.0541761092815,0.454691470815,29.7816022179,0.397058709478,0.0101776105191,-0.0359688864655,0.197719323205,12.5773145864,0.606092727217,0.00400319481434,-0.0457104894282,0.128418813892,27.8473659652,0.413556439544,0.00404412477372,0.0627397094009,-0.0634205184543,13.1264348849,0.499142153376,0.0163911252462,0.00233756881796,-0.307300635757,19.898659964,0.422533072613,0.0266235530611,-0.0941127713232,0.0392772891476,15.3602077354,0.483933852238,0.0103521791656,-0.0501668734654,-0.280559238495,18.3304592589,5
0.627129746243,0.003718009069,0.0694005160816,0.155255275991,29.7720115678,0.628184138387,0.00095198463446,0.0265418372582,0.456839647513,29.666595242,0.628155448671,0.00364727141881,0.0511955937849,0.432465189666,29.8633431621,0.394191641824,0.00847144861429,-0.129105237458,0.0351180948553,12.2809159838,0.603774784923,0.00307353597514,-0.0280790081843,-0.202991880915,27.5682409803,0.416764171703,0.00314700882975,-0.0125139047005,0.304921707165,13.2598067646,0.503205693542,0.0135333802972,0.208054470285,0.106593567507,19.992667893,0.422445561994,0.0227508060191,0.22423094619,0.0868856077216,15.068078609,0.483560665592,0.0088376740382,0.282114389034,-0.299376765452,18.1913066769,5
0.628427964821,0.00353896144022,-0.00775642271459,0.100375792501,29.8810111692,0.628343991704,0.000902718257812,0.00441771536966,0.473305875053,29.6780140444,0.627983250488,0.00335924564355,-0.00330112024977,0.477494207123,29.8258063946,0.397399406677,0.00686116855442,-0.259579490344,0.250537146822,12.3521981051,0.605002943158,0.00229088480817,-0.107937229571,-0.346962396509,27.621667568,0.413689477758,0.00250097797569,0.138479063817,0.287264092002,13.0204961708,0.498563111585,0.0085975240664,-0.224890897299,-0.58477271085,19.2786049984,0.416663449488,0.0147813825502,0.0683094877624,-0.452224058816,14.1144545692,0.480422333471,0.00609199210129,0.252030115795,-0.69610899458,17.7612288028,5
0.63125777613,0.00329773130028,-0.0927042430757,0.504111144831,30.1305106105,0.629573996897,0.000913888347376,-0.0517288407377,0.498544280617,29.7948840554,0.630841437272,0.00320340875673,-0.0561840000317,0.816108996564,30.0841211714,0.396004781292,0.00473553347285,-0.0750244951937,0.494036213348,12.1119134875,0.604794830773,0.00200619558021,-0.0745171042777,0.0883222417658,27.5817175226,0.413480171994,0.00136991082859,0.0424550785238,-0.42791357256,12.9238123487,0.497862442701,0.00502424496419,-0.0757183124026,0.145887913007,18.9618200163,0.421351803423,0.0132905336155,-0.18757395018,-0.438499975339,14.2988001561,0.482773851803,0.00494868837368,-0.0120359753671,-0.394831322139,17.8464973385,5
0.628604655869,0.00288829633006,0.100152579053,0.468348325471,29.849519932,0.628396495705,0.000834946372832,0.0525392783977,0.488413993151,29.6779477177,0.628253970972,0.00278107527652,0.129430693024,0.634110066542,29.8085284737,0.397921860133,0.00485390744872,-0.0260684934393,0.444032370112,12.2348246591,0.606392986893,0.00209014652029,-0.0367981091814,0.0425807723903,27.733104934,0.412978817839,0.0014242259851,0.0136756873501,-0.36291793046,12.8967555217,0.502611960168,0.00525499834671,0.159421349093,0.0969050677149,19.3352785654,0.426808510568,0.0130089029113,-0.180633847365,-0.531939270628,14.6250716674,0.483922577992,0.00521308567432,-0.0883791443581,-0.308416390022,17.9493479517,5
0.626464892788,0.0018483483945,0.0521479114061,-0.164966229819,29.5711474234,0.627033108726,0.000549114777642,0.0410435995751,-0.386863078384,29.5284234514,0.626033103008,0.00171380950245,0.0573289400274,-0.238654277515,29.5206303578,0.393941219495,0.00323581116615,-0.0821317468929,-1.32080631807,11.8786763576,0.603429646391,0.00134999625696,0.070116627173,-1.65209321261,27.4094500838,0.415637377839,0.00113757741635,-0.0324525754952,0.0572498164115,13.0407629681,0.496401665911,0.00521868320113,0.183411885221,0.0938550566611,18.8672786008,0.42233488536,0.0102447338215,0.372831488129,-0.400388320358,14.1356169572,0.482583884147,0.00428289042435,0.26134142451,-0.446759127818,17.7834742843,5
0.62844744219,0.0015998216521,-0.0324586184017,-0.217421087732,29.7393508719,0.628633048097,0.000452654651887,-0.021984168895,-0.443870994811,29.6719596312,0.628633359273,0.00143310262915,-0.0420907798034,-0.304670754854,29.7445421239,0.397684103295,0.00194896124736,-0.11534781975,-0.216097081383,12.0056715833,0.606027737884,0.000732426114602,-0.0139016329714,0.696658210619,27.5994209639,0.412695220191,0.00099560624918,0.0230072596569,0.0724293932624,12.8474757201,0.498259903817,0.00337354028496,0.00411769687537,-0.785165160475,18.8693618624,0.420818670142,0.00608354975951,-0.11512263017,-0.486382952917,13.7318091677,0.482314921828,0.00251265938197,0.0217555839584,0.456111899884,17.6330130806,5
0.628834185152,0.00154730129047,0.0139280961424,-0.253587499467,29.7719327267,0.628541619545,0.000430515093783,0.00723246929474,-0.472662419107,29.6617006794,0.628719900412,0.00136799458374,0.0152792716833,-0.336953408377,29.7478850873,0.395973012996,0.00197124184178,0.0981242958357,-0.431857690468,11.9054689229,0.606055113441,0.000770494442275,0.058671279543,0.588440454122,27.6047266284,0.414472893353,0.000967136801597,-0.044512143851,0.216108389834,12.9556515726,0.500579402323,0.00393330871821,0.0788156256743,-0.778180444718,19.0845451974,0.430099404917,0.00513379559901,0.054788123262,-0.192414712348,14.2538132326,0.487644447757,0.00279728324928,-0.0456562446795,0.761802457238,18.0417820175,5
0.626765401501,0.0018749782922,0.0129740527863,-0.500585044943,29.6013635325,0.627871889518,0.000555466678671,0.0265291646719,-0.635753067454,29.6078377577,0.626572273996,0.00160181042644,-0.0253643235484,-0.487191062017,29.5629950621,0.396474687845,0.00234107039728,-0.00905184057593,-0.306902418421,11.962652567,0.605534120604,0.000927162968665,-0.00394137596181,0.363651828376,27.5689779008,0.414591647159,0.0012167722477,0.0281340665076,-0.0934231090614,12.9815086884,0.499617642705,0.0038998891003,-0.026148304252,-0.740268698621,19.0099259611,0.423514866267,0.0062855297189,0.148943307491,-0.247347268683,13.9174923454,0.484234631684,0.00345299947089,0.0673781246378,0.534543219204,17.84176035,5
0.628902771203,0.00214743759456,-0.0716220979123,-0.432988805356,29.8228125541,0.627049673442,0.000889223424628,-0.0109312444368,-1.27233433356,29.5551495057,0.628677128995,0.00187290865218,-0.0617522524931,-0.367141133648,29.7812151794,0.397378477134,0.0017231981357,-0.107035532721,0.131679392026,11.9707407188,0.605615436239,0.000796092587691,-0.023336121244,0.452153106674,27.5666650973,0.413798577995,0.000853725380686,0.0142642156496,-0.233472659073,12.9053704145,0.499481657483,0.00227693564412,-0.108703528264,-0.0942111266595,18.8796376998,0.421878389492,0.00564225597296,-0.115733300654,-0.100787733374,13.7661301061,0.481024551878,0.00248911296703,0.0297086935125,0.575913062504,17.5380408228,5
0.628188654835,0.00222770882288,0.0442899898028,-0.377875095463,29.7614244077,0.627958764639,0.0011528666994,0.0259807415695,-0.199560067659,29.6602278923,0.627711478378,0.00190540974267,0.0658756628643,-0.310148174812,29.6926278276,0.396958044437,0.00154809855381,0.020207088819,0.0391611029946,11.9327359713,0.606208569158,0.0007895401254,0.00636241577024,0.397699628205,27.6200881683,0.413380347945,0.000791685897833,0.00835783805595,-0.266561882609,12.8748331615,0.499815188607,0.00216675153824,0.0416068694991,-0.159259647059,18.896481321,0.426019533091,0.00513698199088,-0.0873905867518,-0.255630646995,13.9920848604,0.485101952127,0.0022682707893,-0.0309983192932,0.548903774745,17.8171448352,5
0.626232631471,0.00155959464021,0.0436150411237,-0.265726274071,29.5279581573,0.628524078754,0.00119957573502,-0.0225681461255,0.0827170516602,29.7169574225,0.626625598312,0.00137472959719,0.0240672259772,0.00357396269874,29.5512030247,0.396324004591,0.00162561852978,0.0526308359137,0.0575367175199,11.9007495173,0.606218677703,0.000970614479674,0.11419772288,0.781146469196,27.6344068612,0.414034391688,0.000803001458236,-0.0365516649026,-0.324264937163,12.9162579205,0.499854194146,0.00212274351645,0.0453183308253,-0.176510339699,18.8961491757,0.424462768608,0.00520753409088,0.0996421589724,-0.181072456376,13.8980056678,0.485214875947,0.00228583723837,0.0808543238048,0.552446546163,17.8266626437,5
0.62814294636,0.00154418245762,-0.0202644149852,-0.254601393301,29.7065365815,0.628024201605,0.00125547800188,0.0124015132938,0.0607895776049,29.6739852073,0.628016622659,0.00150328336782,-0.0530887489884,0.0291583912482,29.6916088444,0.397703298548,0.00292516816427,-0.131885564855,0.778148297268,12.0790559698,0.60665146163,0.00185214520092,-0.0777721460115,-0.117586659978,27.7390084372,0.413570857506,0.00133728104354,0.0703170198852,-0.747620224135,12.9270228606,0.50021428964,0.00424325256993,0.3369507372,1.32286873468,19.0800758572,0.421501223502,0.00630466207148,-0.0853844209614,-0.0884264852164,13.7912910993,0.482177214744,0.00330635546779,-0.00327750590673,0.00401985327242,17.681785286,5
0.629564057027,0.00151109411869,-0.0404362447371,-0.257063002609,29.8381386073,0.629093705304,0.0012862859782,-0.0357738020139,0.019785875693,29.7771019163,0.629688882001,0.00146011256192,-0.0555478968237,0.00613378554414,29.8461549383,0.397297785296,0.00366396695973,0.0403581551806,0.271857620963,12.1095483201,0.605971986826,0.00216036357615,0.0536814165542,-0.180199985797,27.7000205659,0.413552707847,0.00145866037639,-0.0777108476027,-0.563996125544,12.9348790304,0.497919554968,0.00554476767792,-0.0625122386447,1.14438451164,19.0046040496,0.427310483536,0.0071586318031,-0.0482710698041,-0.113804262159,14.2243074539,0.484164349835,0.00418826009996,-0.139048068294,0.0571588504258,17.8910650712,5
0.629756596049,0.00116444362042,-0.0192630117984,-0.675128389366,29.830671598,0.629193381505,0.00120897161951,-0.0140221881905,-0.00177168827246,29.7807872496,0.629670196473,0.0010963751908,-0.0151101731513,-0.248799742965,29.8174734885,0.39742628015,0.00322728370773,0.00402225901982,0.352753042223,12.0848926059,0.606241745649,0.00184851493496,0.0165287742483,-0.34300782698,27.7014691678,0.413657948851,0.00135315199879,0.0148532490884,-0.700690375412,12.9336006465,0.499930090095,0.00553008674016,-0.0356936098621,1.07014769958,19.1539835425,0.425476360572,0.00721208330403,-0.0484732177612,-0.117942277603,14.1109541699,0.484742742005,0.00395791907175,-0.147128325655,0.0334187866405,17.9160504558,5
0.627910405969,0.00106502925112,0.0264273687423,-0.71667825807,29.6491730089,0.628189988615,0.00118856877132,0.00852206626744,0.076559800958,29.6846537238,0.627884635991,0.000994527462944,0.0270053396958,-0.250518516223,29.6415287408,0.398812755181,0.00323481116121,0.148692361611,0.399247144229,12.1682470531,0.607560424003,0.00176744476543,0.0371133338385,-0.488839083648,27.8155160738,0.412184334652,0.00144095349612,-0.124797460233,-0.791972290439,12.8488249886,0.498835536325,0.00513367121745,0.118426050668,1.18768655038,19.0426585927,0.423562699175,0.0071545548668,-0.22946023853,-0.406484300543,13.9848390701,0.482714117877,0.00388157560527,-0.135912765551,-0.0783396669576,17.7632055646,5
0.627407172477,0.00126194855814,0.0225213543441,-1.00889792272,29.616366199,0.628292378979,0.00123357586527,0.0128656712117,0.0338373018859,29.6976331253,0.628048904648,0.00137044768175,0.0677014599558,-0.660406962962,29.6848201256,0.396605047012,0.00712563347328,-0.0571939652103,-0.148348577136,12.3244641257,0.606690759864,0.00226013952964,0.0267481742388,-0.365879847525,27.7727761831,0.412966275885,0.00308918897388,-0.0374437288932,0.640147876127,13.0191858605,0.501289176753,0.00561091440247,0.0160304117091,0.871223984685,19.2620205705,0.426902244187,0.0135440967558,-0.19502214443,0.277297802287,14.6706776168,0.484770893558,0.00528488235247,-0.126624047222,0.364429857196,18.0162927372,5
0.627933931451,0.00167018119553,-0.0889672819126,-0.464659843844,29.6961700785,0.628025449786,0.00131993185318,-0.0389254058812,0.0874013277296,29.6788723756,0.627588699185,0.00171128247005,-0.0615473014555,-0.312090653749,29.6667030537,0.396106075673,0.00715625445134,0.0124675178446,-0.13182749597,12.2970645683,0.60531208008,0.00232641105892,-0.00410743986925,-0.287384057028,27.6523579902,0.414288566684,0.00318510081806,0.0414842284066,0.583312353658,13.1083236969,0.497604519244,0.00565421664235,0.12170918887,0.979904696341,18.9891813494,0.426047815778,0.0167186086542,0.167645205325,-0.013467312356,14.8509326401,0.485769780105,0.00556500487336,0.0355051534792,0.231707965167,18.1097313054,5
0.629321144389,0.00179663596917,0.00953269573249,-0.474732683332,29.8363337699,0.628744424321,0.00134099253279,-0.0218030771863,0.0289096566675,29.748199781,0.629275303833,0.0018230827771,0.000492557625268,-0.370042438025,29.8339637265,0.395502932787,0.00671680866645,0.0596628044938,-0.131932308081,12.2287365795,0.604947054446,0.00220195323244,0.0579164278891,-0.318510155339,27.6100149404,0.415167877416,0.00289579241582,-0.0314416204856,0.710272050813,13.1416161216,0.499267120864,0.00513316535421,-0.021671223566,1.10642982664,19.0749285844,0.421290199616,0.0164027854658,0.162234162977,0.0539219838583,14.5252135464,0.484523369185,0.00482176029766,0.0999053192649,0.216774217884,17.9640274085,5
0.629149621535,0.00167805854465,-0.159190880258,0.0186720660825,29.8113698031,0.628170779857,0.00132123536007,-0.094855292563,0.195081669065,29.6926610666,0.629011652045,0.00187934184336,-0.166208248699,0.0340416915948,29.813245677,0.397984225306,0.00718165527286,0.104479928859,-0.119010999587,12.4108007596,0.607633011214,0.00264075611069,0.0919393467106,-0.0408526206486,27.886756676,0.413801121166,0.00294115526658,-0.0432590497603,0.738219086638,13.0599980806,0.498781978796,0.00579458379134,-0.202476573863,0.773940105375,19.0875588785,0.423518561588,0.0170608530314,-0.0971609056645,0.206752643921,14.7151010251,0.485371250094,0.00477475923773,-0.0090165298655,0.301525385094,18.0222259649,5
0.630197766966,0.00182292159411,0.0917247462201,-0.154043262839,29.9210881096,0.628026025456,0.000872791877787,0.0533757894149,0.418872061806,29.6458382477,0.630040876797,0.00206847218948,0.0722828688172,-0.139574899491,29.9244299247,0.396419954045,0.00790754390968,0.113058915529,-0.156024793226,12.3713167467,0.605984868329,0.00302879828672,0.0687429660225,-0.0901196241397,27.7654556215,0.414397780663,0.00326648499669,-0.0498868437776,0.635083673449,13.1211339361,0.499572305923,0.0088954951215,-0.146657869111,0.575321128765,19.3762033024,0.424637541753,0.0177069352992,0.0611316006891,0.161880077608,14.8340913521,0.486558192194,0.00661776302395,-0.0543078479413,-0.247375483975,18.2451300431,5
0.62685186846,0.00184561399591,-0.0297279517248,0.0323536620377,29.6073203101,0.629158583622,0.000826207605194,-0.0476830746753,0.478752889318,29.7491786137,0.626986477093,0.00212485503487,-0.0292378129688,0.0271329677024,29.6406424569,0.396186803939,0.00799599100856,-0.0458265656528,-0.145130028222,12.3640021058,0.605346243658,0.0030924716433,-0.0192921433903,-0.0511401589671,27.7121485049,0.414513153701,0.00335099845361,0.0375164346842,0.596253311489,13.1345604799,0.498229464855,0.00890084168457,0.022657814396,0.616170471653,19.2761072584,0.421429361033,0.0187501561028,-0.0320646443271,0.225665783897,14.7077145272,0.483876678937,0.00679522035956,0.0589492647384,-0.166188460568,18.063094338,5
0.628180920943,0.00176118881554,0.0210584728233,-0.0846330619858,29.7261731801,0.628183823465,0.000610283060512,0.0633086019871,0.0601471149152,29.6412796512,0.628679038324,0.00208195611307,-0.0630807033648,-0.101398893305,29.7968647445,0.395138543849,0.00811041669299,0.163380498451,-0.115923378365,12.3102559979,0.606191827466,0.00255684612285,0.111332190082,0.146395244693,27.7493464896,0.414522761718,0.00339560884538,-0.1124951683,0.596404930247,13.1384590532,0.497997658046,0.00939111932401,0.0170614826568,0.575069108374,19.2950678864,0.427332870836,0.0193189468469,-0.0171269575707,0.127953035778,15.125605754,0.487328123437,0.00707002136058,-0.0647222977203,-0.218921535016,18.3348340726,5
0.627947848478,0.00182941020558,-0.155916730438,-0.208901642377,29.7092638859,0.62753280633,0.000545654504407,-0.0807773703863,-0.0446441065167,29.5751851598,0.628389516728,0.00195215851304,-0.102998043928,-0.132129081374,29.759963585,0.397961022217,0.00721523999615,0.0232551793875,-0.418008732994,12.4119009,0.606660838572,0.00218670958375,0.037793348585,0.172435052522,27.7646194885,0.413785493257,0.00330085904369,-0.0247044943612,0.937642098123,13.0856461515,0.495722713879,0.00675500325214,0.14136212191,0.0434615928635,18.9304459198,0.425133828511,0.020681908512,0.0617575514067,0.0454393009904,15.0858691407,0.484919252858,0.00663410649326,-0.0934717809651,-0.118852030983,18.1269250149,5
0.630355249389,0.00225738662608,0.0797728718248,-0.0286537397752,29.9681271428,0.629620060673,0.000646927121423,0.0395868577872,0.123346790614,29.7794791671,0.630203831565,0.00234813764336,0.0955447179085,-0.0612146391151,29.9605273845,0.395306477588,0.00719369507884,0.0206755471032,-0.328381291058,12.2523742775,0.60534955173,0.0021279812487,0.0171357807083,0.179644530091,27.6410765959,0.414842846165,0.003316530843,0.00462188692891,0.872214876768,13.1525173084,0.499566647121,0.00648094333135,-0.0453750907391,0.061342285262,19.1971024252,0.42250484433,0.0202659051919,0.0447686802715,0.0948692075766,14.8879527454,0.484646589713,0.00612060726248,-0.0341666929448,-0.166935080839,18.0690987065,5
0.629182311711,0.00318850166181,-0.0515849273743,0.23250744211,29.9262277258,0.628804538272,0.00089710266063,-0.0221129000965,0.424740662707,29.7210216482,0.629098743485,0.00324078786305,-0.0521067786779,0.130651556985,29.922210481,0.396850713755,0.00715551123623,0.00251793432067,-0.383933147389,12.3412945071,0.606145077364,0.0021285653523,-0.00473553574044,0.128867079473,27.713402947,0.414023767823,0.00329908200719,-0.0128050459554,0.91788050961,13.1003080927,0.499554871588,0.00647640526613,0.0692758111356,0.0605850154112,19.1958842193,0.423743115555,0.0198876693799,0.00508451984854,0.0736858615888,14.9385546326,0.484889482666,0.00612988414879,-0.00122585283803,-0.175255550671,18.0874472071,5
0.628961234041,0.00436453046567,0.120013016816,0.00479663417567,29.992392799,0.628582600356,0.00118861762776,0.0896192377469,0.20277017003,29.7216641147,0.628460437304,0.00419922822644,0.0629362767882,-0.0641812134023,29.932931983,0.398840270907,0.00561127069171,0.298516722988,0.188658850712,12.3457511585,0.606720688468,0.00188466696459,0.0729409591294,0.348693855784,27.7477148915,0.41180081704,0.00231016694,-0.151862061302,-0.101120460306,12.8894458222,0.500956123607,0.0056748814323,-0.123230054634,0.235818769448,19.2417190594,0.427956142618,0.0172300950197,-0.480439761172,0.395174074237,15.0110115318,0.483042022498,0.00535956167081,-0.250736232671,-0.342654788779,17.8963272261,5
0.624578788865,0.00528601118809,-0.168210795447,-0.12639203062,29.6485645904,0.626113652097,0.00145083046978,-0.0717649913782,-0.0693063055007,29.5087343555,0.623705598265,0.00504122867265,-0.102092929519,-0.0505513038874,29.5487014198,0.396212749433,0.00439608286477,-0.120470614406,-0.356590563726,12.099150843,0.606059710654,0.00183859032412,-0.10190745821,0.335182667454,27.6841836498,0.415162079903,0.00198042029303,0.0246128242697,0.478321400102,13.0735175459,0.500547182204,0.00848921503468,0.371123632972,0.348934130827,19.4192630335,0.423294140735,0.0126714806199,-0.0239402614502,0.207940646563,14.3760342844,0.483596601771,0.00540632849273,-0.0201761504005,-0.656422357964,17.9399938018,5
0.631814148992,0.00550885419372,0.0133064324557,-0.282648233097,30.3468391253,0.630123277911,0.00153117059101,0.000326825971571,-0.245041841364,29.8924575261,0.631789854708,0.00530089812709,-0.0264952655833,-0.253506220434,30.3291479998,0.397624006403,0.00472460210968,0.0176365827334,-0.403257273282,12.2074843412,0.60635001545,0.00196406395728,-0.0055582745066,0.246730726909,27.7198663256,0.413194787064,0.00197897666313,-0.00306721719935,0.523784267654,12.9511891773,0.498106266767,0.00911543247012,-0.0314149250733,0.394196212646,19.2827809773,0.424134705411,0.0125193535204,-0.027377462465,0.217386502965,14.4182007856,0.483667589268,0.00599803669978,-0.0595319670219,-0.449473618051,17.9889299839,5
0.627263124534,0.00554559581403,0.0519446700468,-0.11860736052,29.9198011452,0.627753525812,0.00154316078283,0.0399990339726,-0.0800051995653,29.6697805856,0.627168038165,0.00533497998434,0.0844614971383,-0.0801779240547,29.895269626,0.395681106018,0.00476624646573,0.0225260379601,-0.318131312565,12.094967563,0.605208590693,0.00196857843206,0.0539465387084,0.322947130629,27.6164826726,0.414634821093,0.00199773233185,-0.0758602760287,0.429558852354,13.0419848072,0.500366497534,0.00914766966546,-0.0111643687002,0.323874858199,19.4544249443,0.425445992981,0.0130390743915,0.100973012067,0.121625576158,14.5402134758,0.485180010585,0.00599281385521,0.00438156280826,-0.509442844239,18.0984414256,5
0.630618879345,0.00513196874827,-0.000705169016917,-0.24789459494,30.2057785114,0.629487670477,0.00137258851393,0.024797504284,-0.253207296388,29.8206760962,0.630285500147,0.00480545515984,0.0179616136881,-0.227201685972,30.150089559,0.394449692254,0.00428319216195,0.0699448376224,-0.507721923215,11.9862481989,0.604661496479,0.0014562501618,0.0399795291738,-0.125938059539,27.5289269113,0.415201498617,0.00204053651883,0.0365686599981,0.678873550957,13.0804210364,0.500911402481,0.00868551286379,-0.40431353055,0.605954433969,19.4611454371,0.424008780359,0.0115346139105,0.0782263217999,-0.102561870112,14.337319866,0.487905811386,0.00495211625336,0.102969389102,0.00751800824352,18.2203626616,5
0.62638570266,0.00599356986707,0.157735334729,-0.274380324593,29.8704528074,0.627845654803,0.00196511280667,0.10500006828,-0.397186519692,29.7096808168,0.626359642629,0.00560293515678,0.15043175111,-0.263401764437,29.8390973451,0.396187878709,0.00407575438176,0.0481577266469,-0.326548695266,12.0739684669,0.604935961631,0.00119617111722,0.0137255535044,0.130569338023,27.5345804883,0.41405727112,0.00219467810603,-0.0379590011744,0.474295808618,13.0206629624,0.50116010784,0.00686999348654,0.0187468684988,0.209842063803,19.3454885448,0.421026921341,0.0109031298538,0.00440905927827,-0.127975404029,14.1016067462,0.482900144014,0.00476724772303,0.0779513071872,-0.0516934469515,17.8422175132,5
0.628409216509,0.00645328966961,-0.0709055905298,-0.286473817221,30.0949041901,0.628352921304,0.00220695197966,0.0372486695535,-0.421843950238,29.7753689748,0.62850583293,0.00598838289289,-0.068517498129,-0.278057590174,30.0696089861,0.397018138193,0.00404695136273,-0.0400909307097,-0.363383970446,12.1212295549,0.606009665496,0.00118299869483,-0.0089070494609,0.0469588816123,27.631120504,0.414426360669,0.0022053093668,-0.0709323624637,0.452663366687,13.0443835245,0.498144733905,0.00692418845645,-0.0339505347799,0.268402718916,19.1235031396,0.425895025671,0.0109797678563,0.100369089924,-0.228210688952,14.4164957882,0.484534317916,0.0045807321085,0.0746802538345,-0.0935107551195,17.9469870689,5
0.627961904316,0.0065444439551,-0.0055500853267,-0.261221754254,30.0595003481,0.627832986627,0.00224628532694,-0.0281771287723,-0.370801890974,29.7292945465,0.627837347206,0.00607525431601,-0.0108894841274,-0.244710582726,30.0130489104,0.395880209214,0.00362030224347,-0.00531138139654,-0.425559746397,12.0219878696,0.604729104566,0.000997642337017,0.0364819008476,-0.14106118814,27.5011222762,0.415084581994,0.00200115786671,0.0781209311525,0.605858945831,13.0702264478,0.497827900454,0.00648432508327,-0.0359803598961,0.321264139215,19.0672864415,0.417939691781,0.0105165830474,0.0921770047841,-0.136130284539,13.8787460929,0.482503692072,0.00413700516508,0.0843244635299,-0.129717812347,17.7668743469,5
0.62572332047,0.00740961214511,0.0494134136051,-0.190322635313,29.9130368323,0.627264271915,0.00246803899103,0.022239130417,-0.262215391645,29.6921698969,0.625891200779,0.00712614462378,0.0621404011236,-0.146833156717,29.9078193431,0.396656216341,0.00457536448594,-0.252778431416,-0.0316549689695,12.1387885191,0.605643733371,0.00163852202988,-0.137510087535,0.465579905647,27.631575513,0.414215629351,0.00225054407357,0.158935208073,0.279800058779,13.0346343313,0.499997436873,0.0109160332674,0.242561463373,-0.0257104397759,19.5575942277,0.417188721211,0.0118480344341,-0.223462808895,0.428383969002,13.9302367311,0.479850964027,0.00509000431554,-0.082541545399,-0.163711609767,17.6459313952,5
0.629469738753,0.00724630507353,0.0331381455774,-0.320608284602,30.2536379758,0.628899689798,0.00242896700732,0.014307795506,-0.371832015394,29.8433550457,0.629135023241,0.00692559977235,0.0438940407391,-0.257652278743,30.1983101933,0.397733706478,0.00506020104157,0.0560095413313,-0.147435364941,12.2388624723,0.606678388102,0.00192635090461,0.0199845995095,0.405808328763,27.7469499612,0.413065907907,0.0024785168137,-0.0548472031176,0.312065879635,12.9801685649,0.497936061116,0.0118260970451,-0.0329873401163,0.102121968141,19.4706552533,0.42858980449,0.0140135850544,-0.141857662635,0.340061359768,14.8136968325,0.485158355937,0.006577093941,-0.109630739241,0.14160532429,18.1401022268,5
0.627232306369,0.00649702887694,0.182194671165,-0.383870535843,29.9873075984,0.627977838242,0.00221967581535,0.0942336908069,-0.456850024627,29.7409684095,0.62728027715,0.00619066675726,0.174910870676,-0.299485445667,29.9691502976,0.395883099602,0.0051144974683,-0.00729279273707,-0.0726674089279,12.1327299539,0.605579834453,0.00194437500625,-0.00434476418044,0.470398317689,27.6484039426,0.414985922923,0.00252790180466,0.0106254325689,0.210616486281,13.1030634503,0.499482852932,0.0118470540409,0.00969730992812,0.0591772975928,19.587916027,0.4224372558,0.0151381646462,0.165423985667,0.387886670243,14.5042168154,0.48376482011,0.00660991907463,0.0315910850759,0.187395535365,18.0412640997,5
0.625472960184,0.00503307849595,-0.0321217572147,-0.486596101035,29.7136796028,0.627312315881,0.00188747429928,-0.0361058400461,-0.522992206903,29.6537287223,0.624925443879,0.00477652190722,0.00751813960842,-0.400242989505,29.6433484017,0.397948356553,0.0050094391082,-0.189144447435,-0.101100302756,12.2479155802,0.606263514503,0.00202502230498,0.0204246436071,0.374224004993,27.7165103269,0.413840986815,0.00270113269815,0.191992100836,0.302200739314,13.0447109972,0.495640282898,0.0124665323527,0.0140218887852,0.064709634664,19.3469701464,0.420844699147,0.0148713497868,-0.1464261822,0.312715200351,14.3837494442,0.483996796011,0.00665919542368,0.0596935312249,0.148644051744,18.0617478525,5
0.631101385887,0.00465164310981,0.06324892001,-0.365172042582,30.2158935353,0.629503484857,0.00183398300453,0.0179426508635,-0.553362047052,29.8563125508,0.630546522865,0.00439472492678,0.03467752565,-0.331560791711,30.1443784569,0.398743850418,0.00395708859037,-0.0731139297793,-0.134776317759,12.2175739241,0.607358966528,0.00167231464635,-0.050167677713,0.413940873526,27.7901198505,0.412240025712,0.00236172947941,-0.00818646952841,0.448158897466,12.9204058914,0.497614262374,0.00922603785186,0.115001163573,-0.24016310766,19.2542233599,0.426805863244,0.0134369660361,-0.21965525484,0.281958147032,14.6565788542,0.484232974207,0.00578261068091,-0.166856454957,0.363284266965,18.0140311886,5
0.626510349379,0.00461435642173,0.0222535183955,-0.311744596699,29.7801037161,0.627522768856,0.00186420037692,0.00660372089081,-0.445144764783,29.6718127353,0.626636873251,0.0044282087521,0.0214666484778,-0.27972890277,29.7782202664,0.395674521134,0.00385663876043,0.070152830553,-0.0347271071637,12.0272657689,0.605578411543,0.00163738580344,0.0252826739971,0.516305096442,27.6255574889,0.414946529928,0.00236014603186,-0.0505782363686,0.330020022454,13.0881975088,0.49895887511,0.00886943321748,-0.0200691737462,-0.265937957469,19.3283349869,0.425306731251,0.0126285083118,0.201374054686,0.288647369392,14.5009457886,0.485499276438,0.00528435482783,0.013902620222,0.287156527327,18.0692583139,5
0.630743946909,0.00479209450225,0.0791232236467,-0.384235857831,30.1924594853,0.630277109974,0.0020293125195,0.0626654254991,-0.401021085115,29.9438617782,0.631783372999,0.00499054724484,0.111066650579,-0.162938413687,30.305567776,0.393921604698,0.0043303496432,-0.144358373246,-0.194888131042,11.9585131722,0.604237671222,0.00183335670534,-0.0411629017887,0.270098701654,27.5184056455,0.415656374427,0.00254732515785,0.101294025961,0.404578343018,13.1462686818,0.503631578113,0.0094840152941,0.21223200499,-0.240857817793,19.7251746172,0.425110639452,0.0145280714494,0.263759925291,0.566816051981,14.6290064704,0.485959070177,0.00619029481492,0.224278556073,0.645536751329,18.1697981578,5
0.626459068765,0.00540180256734,-0.0045802235986,-0.295068963702,29.8335557528,0.627482757497,0.00218788462877,-0.0067786006237,-0.275648177955,29.6919992842,0.626852347968,0.00556433588322,0.00616226575482,-0.106371600699,29.8825508168,0.394327581153,0.00675548125859,-0.0946892591623,0.195805487773,12.1619737075,0.604148257831,0.00279830437677,-0.0413995571251,0.497264625053,27.5817083319,0.416022729781,0.0032080405427,0.0241221864385,-0.257188512719,13.2180133773,0.501845032101,0.0168353688281,-0.15301951581,-0.29051739928,20.1344500116,0.420854901348,0.0187474238254,0.249882078867,0.320144234831,14.6712229622,0.483368883138,0.00880055931531,0.344164347773,0.10468461271,18.1746521783,5
0.626862047951,0.00431084769604,-0.0723075654638,-0.181302282642,29.7907047666,0.627057761577,0.00151457308049,-0.0214059641876,-0.0631641287636,29.6021861345,0.62645253611,0.00448148627574,-0.0544063268172,0.0695421650452,29.7648384843,0.39689884938,0.00676272913407,-0.0367778665459,0.1265610259,12.3150942038,0.605784113213,0.002985632496,0.0245391886589,0.50284129226,27.7440161913,0.41369117628,0.0034105859688,0.0451801443549,-0.165846783203,13.0879125616,0.498174993995,0.0169850576187,0.108846139479,-0.239567773583,19.8702686119,0.423189934265,0.0224772460928,-0.155044381966,0.262088107353,15.0950452456,0.484215001126,0.0092138533167,0.0246596771517,0.109382356149,18.2666376941,5
0.630229606383,0.00408653030218,-0.00290044583608,-0.289246959076,30.0916049995,0.629264932844,0.00133653670852,-0.0236511268787,-0.0375059537538,29.7969803944,0.630264221095,0.004290149242,-0.00708314942474,-0.0531854813359,30.1099451734,0.396209963391,0.00681660924828,0.0157746090054,0.147340623939,12.2781042162,0.60638986259,0.00302700785015,0.0506500691711,0.475728340267,27.8021484898,0.414044330885,0.0034349418497,0.0110372165645,-0.178531376016,13.1116387922,0.500925127723,0.0171921430785,0.158931142191,-0.267652778669,20.0916673566,0.423680625671,0.0230755608784,0.0219830679547,0.259880460604,15.1704869477,0.484127987296,0.00934133152341,-0.0706218783136,0.112687588318,18.269751639,5
0.624589640374,0.00392464129911,-0.16696591427,-0.42358274468,29.5488398709,0.625679962471,0.00133108291224,-0.0899371315217,-0.336107838037,29.4591562933,0.623547898414,0.00428266319058,-0.180140871345,-0.295786589277,29.4778156973,0.398705302832,0.00819334154467,-0.105681213676,-0.0347595574737,12.5287511623,0.607776424418,0.00299249951667,-0.0825740845448,0.45564525708,27.9258586201,0.412729064844,0.00376436179077,0.118192412853,-0.0505532583737,13.054458845,0.496779148179,0.0185034061119,-0.0288196323983,-0.300574782691,19.8784662072,0.423067118125,0.0226313978218,-0.413155843137,0.192764876432,15.0986574217,0.483128134716,0.0107349818938,-0.276280706988,0.249645045813,18.3003482517,5
0.631136244035,0.00416904250394,-0.20553209372,-0.087391464184,30.1834810354,0.629469005556,0.00139382301407,-0.109482315475,-0.224488127776,29.8204850747,0.630896501793,0.00450267117548,-0.192399691607,-0.0708423438986,30.1854773651,0.398577372415,0.0066124453287,-0.0670873798254,-0.0543256632056,12.4041150894,0.607733631897,0.00219120560086,-0.0235376169673,0.467470692164,27.8626617649,0.412339907567,0.00314360055175,0.0242872396817,-0.114530896419,12.9844413938,0.495418410999,0.0138328879986,0.0738760801718,-0.418016802136,19.4315888586,0.424892067363,0.0189654857747,-0.253892187561,0.140263873087,14.9434411154,0.484934915622,0.00874031872934,-0.191970611295,0.293736134096,18.2839240152,5
0.628117677846,0.00404548049309,0.08605137241,-0.0608223387959,29.8892518482,0.628503115302,0.0013918639975,0.0417320895757,-0.223560371516,29.7292103816,0.628141162219,0.00439756411423,0.0831701217424,-0.0465956408136,29.91751872,0.395902434217,0.00638532188486,0.0387057461449,0.00888732073293,12.2279191259,0.605783274151,0.00197675302167,0.030362897785,0.480182180474,27.6692828667,0.414956331266,0.00300876247844,-0.0478308287489,-0.218750208212,13.1368051877,0.50081000199,0.0133765491333,-0.00573053748101,-0.546478745447,19.8006639929,0.425453925435,0.0169213373075,0.113445057574,0.0458161637079,14.8280071609,0.485934888853,0.00763971002534,-0.00714135324621,0.188040766081,18.2752922572,5
0.62743910665,0.00505435838079,-0.124016732309,0.0565160807583,29.9000099617,0.627926750747,0.00161747501264,-0.06792849361,-0.146982949957,29.6915934737,0.62720628202,0.0053186130931,-0.125634596397,0.0273928675263,29.8976563843,0.400538032339,0.00788458111742,0.116302819541,0.112312837075,12.6157626539,0.608197695389,0.00229602797494,0.0831547552743,0.511786025875,27.9127388209,0.4114083452,0.00377022052629,-0.0340379391419,-0.343298599589,12.9732583064,0.491832394288,0.0178485426776,-0.460006599912,-0.818460476536,19.4632249635,0.420475757793,0.019924913486,-0.27828263841,0.195110057943,14.7344333148,0.48084774728,0.00996074664718,-0.204143852655,0.0361901738855,18.0781869567,5
0.630424903651,0.00547092457232,0.0243171264422,-0.0491813928044,30.2125153541,0.629194831879,0.00170420465349,-0.0132540071487,-0.208429388235,29.8175713791,0.630046681767,0.00570337768154,0.0124114275801,-0.0644124877764,30.1939615389,0.397409675532,0.00865738689983,-0.00366844802828,0.0524438489401,12.4857303961,0.606702153509,0.0026183864612,-0.019190956419,0.330059287891,27.8003233286,0.41334414074,0.00417745036137,-0.0725742646632,-0.204835728242,13.1231347281,0.498036024344,0.0231825020565,-0.143087519713,-0.083007899807,20.318496268,0.428899952265,0.0228648458796,0.0627574817617,0.149392542897,15.4886362741,0.485677567256,0.0103049255054,-0.0480896151599,-0.0216037150424,18.4537669376,5
0.625823438128,0.0047654675045,-0.0511155779408,0.130815690762,29.7267677736,0.626844992449,0.00137545099845,-0.00680639198806,0.0302560809562,29.5718817157,0.62567408196,0.00497467001269,-0.0363697793103,0.139518733786,29.7282298437,0.395850158575,0.00870392417679,0.0149463374165,0.100455064375,12.3963914924,0.605586776279,0.0026057306133,0.00453549010594,0.38778273592,27.6979748356,0.414590082422,0.00419757900305,-0.0269821595473,-0.262031262049,13.2019910794,0.499325811682,0.0232534858945,-0.00371411078256,-0.106790389106,20.4202279221,0.423500386071,0.0235299866453,0.0812434072748,0.20526374491,15.1926622869,0.485217233039,0.010620122228,0.0745443752062,-0.0142567614942,18.4435712877,5
0.630464914142,0.00450262968096,-0.0497924186087,-0.0023242393993,30.1446451937,0.62962939703,0.0013077680764,-0.0167333621944,-0.135506721101,29.8292631579,0.630410284549,0.00471002796653,-0.0473767825491,0.0102666628362,30.1548265845,0.397529943125,0.0099811802605,0.200248322938,0.0776603050695,12.5908615153,0.606142155351,0.00298935404739,0.0720311135802,0.237960215263,27.7768356365,0.413399652807,0.00475789928393,-0.144782619512,-0.274300030163,13.1695300176,0.498125158066,0.0257669006318,0.0285150981151,-0.183701275465,20.5164011292,0.425701673263,0.0242037668688,0.160671765187,0.174895994799,15.3827223447,0.486297159047,0.0118521371709,-0.0181549881507,0.063923775401,18.6134276679,5
0.623975520952,0.00455191054857,-0.0348918898517,-0.0175954199275,29.5377501867,0.627023760207,0.00112122753568,-0.0169626482788,-0.334485521994,29.5698805275,0.627527946337,0.00392585321293,0.050669594634,-0.0495046283184,29.8248623953,0.39310573201,0.00842972378127,-0.115479061083,-0.171702724405,12.2137083002,0.603454358527,0.00226829100562,-0.0137994577816,-0.208163342998,27.4796407463,0.417278900798,0.00380011244669,0.0048621486195,-0.0309797113822,13.3403343999,0.502723553066,0.0218834777073,0.224254936048,0.160896830084,20.5742001609,0.420464406255,0.0212788631034,0.237845527362,0.14488875518,14.8339096392,0.482961552051,0.0101247456855,0.302060962183,0.0948198670571,18.2431207377,5
0.628996328584,0.00469300961748,-0.13950788299,0.0221182465943,30.0200113146,0.628775888348,0.0011704475775,-0.0633342021067,-0.232908479169,29.7385469533,0.629240853694,0.00437570901131,-0.119858970632,-0.0555352381735,30.0196063637,0.396921415182,0.00674660644457,-0.0473446993814,-0.0131436177021,12.3152446141,0.605565074066,0.00156736726864,-0.0178281334641,-0.079249537285,27.6191645975,0.413308768537,0.00320405082351,0.0741538562614,-0.142224684707,13.0489101222,0.499106289428,0.0163680193116,-0.00953292223294,-0.193184653287,19.8942650401,0.418895676229,0.0154492466661,-0.12124451623,0.127365987599,14.3037633205,0.480518147067,0.0076201177906,0.0909811020771,0.271001349232,17.881215441,5
0.630271620299,0.00536438695053,0.206599252681,0.159996036099,30.1901382859,0.629106209024,0.00139029927887,0.107006702905,-0.0234881707242,29.7859788141,0.630559464352,0.00525703024843,0.198564312436,0.140728252857,30.2094130947,0.396640968501,0.00662387384157,0.00855513621304,-0.000956937252242,12.2894710063,0.60562764021,0.00155888145458,-0.00861864820634,-0.0823925401719,27.6242201216,0.414099878236,0.00303338487188,0.0197921960173,-0.181024024609,13.0853736672,0.49964727969,0.0163362979577,-0.0219088795981,-0.205718093956,19.9324413565,0.427068668891,0.0131120812849,-0.0690003472975,0.243430415225,14.6493676112,0.484646053176,0.00727336311772,-0.0114844336247,0.202532291098,18.1543636351,5
0.626388811279,0.00601614591971,-0.0082340469581,0.287927700594,29.8724155152,0.627522153757,0.00160919311629,0.000223289445814,0.162890499784,29.6528842998,0.626856851988,0.0055434950681,0.00161892414539,0.246577718276,29.8814321014,0.393239629043,0.00728388279187,0.118248256799,-0.0439193722036,12.1368127653,0.605412659372,0.00196969040032,-0.029793196695,0.144435095267,27.6350936992,0.416274872464,0.00346081580945,-0.0432995388961,-0.265470180323,13.2524580783,0.503387664416,0.0178599551694,0.252241660282,-0.139983171666,20.326572234,0.419869146064,0.0143208088465,-0.21196853033,0.322014427003,14.2814973409,0.48426023762,0.00848231964207,-0.154456303374,0.041706628523,18.215789984,5
0.631580783521,0.00566936315419,-0.139236934714,0.248920782801,30.3366043319,0.629690724343,0.00141552157077,-0.0758105737386,0.311523452215,29.8430292205,0.630686521053,0.00492489847205,-0.149964336186,0.376151727374,30.1968540748,0.397675227175,0.00610273051389,-0.067310442697,0.0928541510219,12.3125210312,0.606272430706,0.00199850751046,0.00503902041006,0.095735157769,27.7153590733,0.412956966017,0.00323032564464,0.0541182651938,-0.255215960214,13.0290532813,0.496812984485,0.017527380753,0.0562664651555,-0.0288744259227,19.8087617922,0.423236801159,0.0164508385792,-0.11428238193,0.34311417254,14.652066294,0.484963798352,0.00767424280702,0.0193327890669,-0.217302092223,18.2071353961,5
0.62913025477,0.00471902954124,0.0577323316962,0.231013591361,30.0345739961,0.628923372149,0.001166202326,0.0273231276626,0.357837975294,29.7521445748,0.62943168136,0.00402700995227,0.0446332853279,0.349785792495,30.0118168489,0.396416386656,0.00606605787811,-0.0505825976934,0.127912230411,12.2348346537,0.605383568366,0.0020070549626,-0.00826393805247,0.148188558626,27.6352169308,0.413779617,0.00327589343163,-0.024302868394,-0.270714435681,13.0834339723,0.499376101531,0.018127431964,-0.101337947793,-0.0925453949533,20.0446667738,0.423995180957,0.0166553060497,-0.0215104709941,0.304450770305,14.7153861583,0.484143765671,0.00782278391959,0.066742333093,-0.182468410431,18.1585249479,5
0.628930834398,0.00535535718316,-0.0133351216063,0.134591887696,30.0628460158,0.629436729753,0.00140517910861,0.0463140567459,0.532192808232,29.8182780112,0.629685831432,0.00471607588208,0.0168986682233,0.271523487083,30.0868080882,0.396692146084,0.0061946941969,0.14891448856,0.116166674547,12.2607567779,0.606429105614,0.00203586644712,0.0332384536781,0.08783009346,27.7323736273,0.414030287275,0.0032730576878,-0.121226819212,-0.283068094226,13.0987871775,0.49977993351,0.0181247978599,-0.0526791877587,-0.100675731647,20.0747336871,0.427610825865,0.0162361317283,0.0211289484,0.25381619018,14.9153001277,0.485193044156,0.00782987196186,-0.070618458042,-0.210044862812,18.2353322825,5
0.633306443949,0.00445888538059,0.0573257033102,0.0598197531703,30.4107364142,0.631512246578,0.001564373951,0.0297399503273,0.349561377268,30.0263424907,0.634033682392,0.00452602993076,0.0722263672511,0.323796876536,30.4848294955,0.395600436113,0.00449717693218,0.223289720548,-0.169049026039,12.0702689719,0.605719833327,0.00154599605132,0.0849381409924,0.119816306209,27.6316424442,0.413546407393,0.00215647307764,-0.145662975639,-0.382334697287,12.9861263378,0.497758293459,0.00974659584516,-0.214976168105,-0.492111566868,19.3034969956,0.431139129626,0.0136892503832,0.241365472052,0.38708849166,14.9540757104,0.488481821266,0.00570398257438,-0.0701606351679,0.103843246699,18.3181814385,5
0.626086320161,0.00486880503766,0.101391674105,0.0822947491495,29.7590975947,0.627082706226,0.00172163074812,0.0585679065044,0.395784774389,29.6198547089,0.625970389888,0.00518860969335,0.0962215103507,0.220500966247,29.7718767935,0.394561704512,0.00542718601821,-0.0163743096641,0.530917595698,12.0775321654,0.60427271886,0.00190148170517,0.00478398997414,-0.139908999549,27.5266235531,0.415803059239,0.00236237891542,0.0377396800135,-0.626710639216,13.1417298452,0.500757373029,0.00789772579886,0.052830004932,-0.784267087665,19.3912777073,0.419003036161,0.0121740532472,0.176784130073,0.250320715974,14.0681457637,0.482658753681,0.00655469602365,0.185080901112,-0.251839962721,17.9570079436,5
0.629004661894,0.00514811306394,-0.0876257583014,0.0217551585847,30.0544752181,0.628858207273,0.00180634588198,-0.0459750222214,0.293467163963,29.7933679593,0.628882027962,0.0055294411347,-0.091073452072,0.158499788138,30.071124026,0.397723201919,0.00541371904738,-0.0768624721656,0.420423420068,12.2643961103,0.605863013062,0.00187570159604,0.023098842951,-0.284422229079,27.6690512129,0.413154843354,0.00243122637287,0.0314414656047,-0.535117077164,12.9821800956,0.4937402163,0.0090560629552,0.0790687247351,-0.593902656824,18.9536037481,0.422556889913,0.0121031836551,-0.0258179978825,0.199556394095,14.2872099814,0.484486858448,0.00700976809677,0.157695465125,-0.197239077213,18.1232865398,5
0.628523820424,0.00521666580866,0.0518679713984,0.0367436531067,30.0141977329,0.628478280051,0.0018262577118,0.012145143273,0.310000899603,29.7590142079,0.628402989624,0.00560219945871,0.0471939454785,0.171133790811,30.0313365626,0.395134532349,0.00403398311493,0.122346126175,0.60519112647,12.0083621496,0.605017701409,0.00148744412235,0.065605361404,-0.101204672737,27.5635522914,0.41514704415,0.00188233492775,-0.0468799643409,-0.505252533839,13.0653229046,0.498617053693,0.00731764185514,-0.0882309403066,-0.057479114525,19.1879279648,0.423851390774,0.0113470275351,0.138967033517,0.179712461104,14.3134301471,0.486196501902,0.00564785866109,0.111037959341,-0.568361759049,18.1469694256,5
0.628780478105,0.0044318384132,-0.0796214455234,0.220234498083,29.980322766,0.628973540521,0.0017288129234,-0.0499136298677,0.363518179644,29.798510757,0.629787094438,0.00508944680039,-0.0960845865185,0.255116090484,30.1240028872,0.395631457907,0.00465652350497,0.0301908519687,0.381403061253,12.0839015258,0.605820486094,0.00168619239201,0.0396256476993,-0.246197649983,27.6511628398,0.41390759754,0.00237168158108,-0.0896224466735,-0.158811091566,13.0244668846,0.498818242522,0.00859726850497,0.0510200505119,-0.185589523662,19.2976707998,0.425430528851,0.0123392964453,0.143048367053,0.0967131511626,14.4874430528,0.485879200005,0.00664351071519,0.028799064794,-0.374489837087,18.1975145677,5
0.629034275314,0.00442354422703,0.116627984526,-0.0299321824807,30.0036512368,0.628288582276,0.00173801412283,0.110559322438,0.234847067935,29.7346037414,0.628688929477,0.00533143528289,0.158020782478,-0.0204111225028,30.0382589645,0.396172827331,0.00499425460276,-0.0271576001292,0.420419933449,12.1410430243,0.605786636413,0.0019070362191,0.0163839115203,-0.15986809336,27.6644293445,0.414393945561,0.00247709138958,0.0521585866694,-0.168409305143,13.0624804216,0.500467352963,0.0086192752686,-0.00389988500255,-0.237643516494,19.4228942235,0.423514751809,0.0130602903039,0.109479579384,0.116672590815,14.4188173575,0.485255813189,0.00724816160106,0.0887494027047,-0.354536952652,18.196854276,5
0.624976263793,0.00412329364215,0.0349705285782,-0.274933178103,29.5997735024,0.626463795272,0.00155150806858,0.00978495990516,0.104612171354,29.5490781061,0.625515030376,0.00511470826762,-0.000718363836673,-0.151399063974,29.7236674038,0.397639805445,0.0049804849094,-0.120174929969,0.36436935762,12.2273619989,0.606883382347,0.00189157859054,-0.101649690151,-0.230592629361,27.7630347984,0.413194867658,0.00242961450628,0.118166305911,-0.113278066841,12.9845413729,0.497049287577,0.008494629093,0.182361273617,-0.149212904439,19.1579521239,0.418783238417,0.0120426428484,0.135987143219,0.0993748523888,14.0446106292,0.480492098123,0.00687164578394,0.0457896142021,-0.31524905432,17.8239510149,5
0.629812571468,0.00385665786102,-0.0239112642621,-0.403528025977,30.0351833202,0.629264456774,0.00146880497893,-0.0179719827555,-0.00981450625345,29.8067233104,0.629436411219,0.00502257695221,-0.0144909281792,-0.273928821371,30.085935377,0.398159751653,0.00386640140446,-0.0690082558966,0.637316160137,12.1759527917,0.606720437374,0.00134512643619,-0.059192248652,-0.597958731708,27.7077660408,0.412757916529,0.00190124825271,0.0414438260833,-0.121534179803,12.918374695,0.498213926107,0.00537957316132,0.120142045245,-0.30977823061,19.0143721265,0.423581240033,0.00933222809281,-0.215125863898,-0.014552577253,14.147164897,0.483299002887,0.00527955972888,-0.053910555444,-0.227707312627,17.9090318843,5
0.629066062984,0.0038962856218,0.0920184125037,-0.360405543124,29.9676335059,0.628770418254,0.00147634199632,0.0473654149843,0.0344838922057,29.7606672231,0.628577489976,0.00511181682847,0.0855912292673,-0.225729364389,30.0114990131,0.395851041987,0.00371601221708,0.0022150693354,0.767505208438,12.0273384622,0.604405499092,0.00139139302248,-0.0719332578574,-0.60895951755,27.5009136336,0.414923031151,0.00182485319533,0.0674331121218,-0.166937944629,13.0471232699,0.500259730633,0.00523786270421,0.0110015598,-0.349078985712,19.1570866971,0.425090907893,0.00790693130941,0.0861501698521,-0.0796234327492,14.1377839149,0.483231541708,0.00529799474749,0.0821709251026,-0.230841524538,17.9055058289,5
0.627538883558,0.0039527349845,-0.0473096667082,-0.290467653892,29.8278811672,0.628081111564,0.00151194408084,-0.0276405929291,0.0744884838607,29.6983250648,0.627366249567,0.00536845397739,-0.0209643834664,-0.142185330921,29.9163964265,0.393665220827,0.00637358554314,-0.0595280126344,0.662350037676,12.0945682868,0.604408381935,0.00212575367311,-0.0709015443252,-0.107314095751,27.5555176833,0.41587246431,0.00282687518012,0.0421903574263,-0.496731830453,13.1804317562,0.504011641601,0.0126200471994,0.00601395746489,-0.424287956292,19.985963608,0.417550033978,0.013494641409,0.107870979482,0.277710462873,14.0747057799,0.481075019092,0.00875382973003,0.0542826266325,-0.181677899683,18.0052714496,5
0.629041891892,0.00331849587142,-0.11402790924,-0.332898828751,29.9225963261,0.629631537643,0.0010649472962,-0.0236852214357,0.157781691495,29.8114965896,0.629938097682,0.00449457661339,-0.162580121266,-0.244736464901,30.0942491878,0.397460971943,0.00650602235163,0.015608356183,0.540436579005,12.3295874704,0.606383008187,0.00236542449821,-0.0152428224894,0.0169330618535,27.7525678592,0.412946353683,0.00293365483775,0.00505289437955,-0.350503887924,13.0064422845,0.497790417618,0.0131369386648,-0.00351308652458,-0.286905082925,19.5567809516,0.424873743292,0.0160775521487,-0.0945795674963,0.216464136376,14.7285661894,0.484680551296,0.00968072972767,-0.0654521039401,-0.131089701232,18.3350167602,5
0.628090990201,0.00270017032613,0.125522063589,-0.309300951324,29.787184502,0.627749783701,0.000775593140216,0.0875198361302,-0.486080717186,29.6126282126,0.628254579273,0.00332894870707,0.122677991616,-0.29907355333,29.8491284327,0.395570221878,0.00506757559801,0.132636582,0.407750824677,12.110685627,0.605566617896,0.00227537094386,-0.104333181311,0.0837069776859,27.6716971031,0.414575488277,0.00243990716212,-0.0538195792566,-0.354496357778,13.071015791,0.500758939687,0.0129452998508,-0.0355127373207,-0.362834192536,19.7649158647,0.421213458609,0.0151609983327,0.135053619101,0.11436323065,14.4284722051,0.483227721476,0.00922643555295,-0.0669108677967,-0.121438827427,18.1959335411,5
0.627112857651,0.00201298064193,-0.0440862751672,-0.397404823629,29.6442507849,0.62795525111,0.000539222825287,-0.0314051538074,-0.458983125782,29.6144872938,0.626956099888,0.00257465805491,-0.0463692061469,-0.385452109831,29.6710710351,0.397799391521,0.00457179558764,0.0464038124985,0.335179546857,12.2066395656,0.606538851361,0.00179911200926,-0.0876207117314,0.336807799919,27.7248376545,0.413265330831,0.00238510149544,-0.0823694810729,-0.277653428275,12.9856150356,0.497099014879,0.0120671874069,-0.00868856156892,-0.449372332,19.4260291626,0.420262215875,0.0147174548838,-0.23532253844,0.194766291741,14.3356164183,0.480334047276,0.00748875003503,-0.124843048336,0.0595298202612,17.8582272755,5
0.627257751673,0.00234015897741,-0.0172508450231,-0.814532268145,29.6820932919,0.627715499564,0.000658055377859,-0.0830628262399,-0.959602368262,29.6007022274,0.627123703398,0.00283010042305,-0.0531460070538,-0.624375648957,29.7057378836,0.396029201452,0.00507751920772,-0.0612867237308,0.268059705821,12.1386710516,0.605509031203,0.00187242111699,-0.000441063442283,0.319843413832,27.6366481778,0.414221990714,0.0026432019351,0.00443897579998,-0.0474889160721,13.0640862625,0.498425156417,0.0112319269584,0.00642412662367,-0.415762391841,19.4632353361,0.426691811449,0.0142751403807,-0.0308049692658,0.141451403422,14.711303035,0.483583339751,0.00812779979771,0.0223963719871,0.0337438273363,18.1404206714,5
0.627939083046,0.00296021634013,-0.073778312077,-0.311551619885,29.7921179105,0.628547888173,0.000774982284275,-0.0191984941255,-0.553419529276,29.6877822686,0.628029773907,0.00337599987157,-0.0677721650297,-0.321823991943,29.831428759,0.396719649773,0.0052932448698,-0.127611403289,0.226378760346,12.1956861591,0.605233861823,0.00184092764769,-0.0287897400474,0.326564715764,27.6093307082,0.414468457561,0.00271865503265,-0.0119759976767,-0.0390402961597,13.0849881459,0.49624821542,0.011416752877,-0.135459477184,-0.376552445545,19.314511561,0.419662181092,0.0146689677318,0.218731145752,0.256567336394,14.2942295801,0.482590703251,0.00852568851417,0.147187631134,0.098695822177,18.0979349648,5
0.628794832277,0.00310379962848,-0.0224702065504,-0.349853410764,29.8834017549,0.628635983068,0.000849901009866,0.0194225006856,-0.470097443687,29.7016326153,0.628683813814,0.00353747261065,-0.0256296868348,-0.353711736972,29.9050233046,0.395455364826,0.00416563612577,0.0498725874637,0.432030789665,12.037127991,0.604583129151,0.00151005617623,0.0699876445147,0.485863078566,27.5258011611,0.414356814324,0.00215379810296,-0.000458612228023,-0.210427633389,13.0362487779,0.500718190849,0.0105259585977,0.0199165218076,-0.409535974906,19.5828239347,0.423814570442,0.0135199014676,0.0548929422922,0.244939191769,14.4718819675,0.484784178917,0.00748797609771,0.109965654119,-0.0133899458323,18.1802877408,5
0.62535121289,0.00218213548727,-0.0733539662543,-0.21187739592,29.4912884858,0.626340780729,0.000707615549127,-0.0893668572079,-0.507958679973,29.475071571,0.625053267178,0.00229069228716,-0.0647419449819,-0.0191065230116,29.47138024,0.39659697065,0.00407917429542,-0.00117543007864,0.399576889115,12.0985456825,0.606029753347,0.00140908091231,-0.0102024763898,0.551947570004,27.6496766331,0.413875068427,0.00209052313225,0.0334905646195,-0.221440317417,13.0016416317,0.498581966676,0.0106203900589,0.0385619792192,-0.346173787206,19.4297071765,0.421468355128,0.0131416121765,0.0552606220621,0.318050091461,14.2951473791,0.482603622948,0.0070463518508,0.0204325265982,0.0838685920646,17.9893993032,5
0.629283141485,0.00226403241907,-0.0285246683022,-0.0119078749433,29.8673338108,0.628355890245,0.000974928652927,-0.0194311552918,0.19559663833,29.6844790807,0.629491140445,0.00253702023024,0.0355379192258,-0.00686010141909,29.9071716895,0.397437059702,0.00549156346978,-0.148277692736,0.53742847426,12.2530919286,0.605757306554,0.00209389943649,-0.0840481050178,0.776497233414,27.6755921415,0.414073598701,0.00266835501988,0.0784459237153,-0.437460516169,13.056729157,0.501580064964,0.0146144856419,0.348728019744,-0.211004489309,19.9501640552,0.420078457091,0.0161659988035,-0.155826101534,0.267593197994,14.4312271698,0.482969489685,0.00896156259944,0.00535453570102,-0.145801855937,18.1576202299,5
0.628149415324,0.00220502997145,-0.00595309083902,0.0263848028762,29.7560488158,0.628458673206,0.000994805726244,-0.0031166612632,0.206439331729,29.6956384183,0.627644793967,0.0025192307302,-0.010161110314,0.0911573940691,29.7317721286,0.397294806574,0.00611423411349,0.0236510747817,0.343842519721,12.2906905742,0.606292759964,0.00222593512318,0.0213852251208,0.676192915144,27.734037508,0.413245382504,0.00286603060321,-0.0263612214317,-0.348172835793,13.0199672267,0.497683068637,0.0155132346829,-0.0161460528702,-0.114589536255,19.7246121272,0.426881882511,0.0174022331773,-0.0671774525568,0.16873969473,14.9548758763,0.485447394928,0.00909639501216,0.0565675673673,-0.211730156157,18.3475712241,5
0.628248793462,0.00207512641965,0.0107570463663,0.00167394443185,29.7558003415,0.628515885931,0.000954987379722,-0.019766280378,0.20289599871,29.6980854812,0.627533177433,0.00226742626773,0.0666211386551,-0.0355237217053,29.7026312022,0.396725713335,0.00584709197691,-0.324664802242,0.414015927712,12.2370316779,0.60512910862,0.00194176467548,-0.125835369264,0.724747625877,27.6072834434,0.414432315587,0.00254824729253,0.141043882097,-0.26990197211,13.0701311149,0.496896020824,0.014850359237,0.443364480254,-0.192297975132,19.6168507468,0.417225128606,0.0151615898729,0.393159116752,-0.123640876682,14.1777182461,0.479312082048,0.00753614232002,0.349807524242,-0.736294375497,17.7881799314,5
0.628493932219,0.00199131821141,-0.00301945824642,-0.00879965647604,29.7727042604,0.628422425371,0.000927840583082,0.00304513310013,0.225415046578,29.6872660563,0.628095271777,0.00208036414032,-0.0238563922798,-0.0452013766846,29.7417222286,0.397648335093,0.0035006625365,-0.00991325681555,0.181003789306,12.1183639079,0.606944583758,0.00135782062863,-0.0475640634524,0.878098659931,27.729108308,0.413009209589,0.00193458292295,0.010495738769,-0.0896368973888,12.9364046767,0.499563801429,0.00807346257047,0.0888085490082,0.0472662416989,19.3147356076,0.423996977488,0.0107261087611,-0.154195217644,-0.0343023914304,14.2767398172,0.48414403391,0.00524237331362,-0.102365128972,-0.256919091126,17.967594043,5
0.627835641558,0.002121110897,-0.0734078527976,-0.0401268970015,29.7202816672,0.627818636339,0.000990885128715,-0.058199084989,0.151613100509,29.6350435096,0.628089176229,0.00238477906821,0.0743068422145,-0.230801444598,29.7636746483,0.396716777697,0.00340914013672,-0.00543244863243,0.215960253808,12.0560914981,0.605492584899,0.00127883911613,0.0083249573856,0.869633727129,27.5912293721,0.413915732144,0.00179260463288,-0.0096511466904,-0.149457959312,12.9821202415,0.500304572595,0.00816592236208,-0.0158558927067,0.0443802971611,19.3771281568,0.42599731871,0.00870264638297,-0.0815378934621,0.0372508015206,14.2545244984,0.485008987233,0.005312889556,0.0817254287009,-0.308019044242,18.0356826544,5
0.628492292757,0.00236874130464,-0.022684775294,0.0651551988816,29.8004790106,0.62861455023,0.00106110360769,-0.0148812758023,0.141794151394,29.715240624,0.627446625399,0.00274711464769,-0.0564777513914,-0.0790389726211,29.7299815633,0.396273989205,0.00340924759306,-0.0085711435869,0.23814427297,12.0297649109,0.605683174538,0.0012710143814,0.00197466788133,0.862691534898,27.6079631581,0.41431924087,0.00177361733486,0.00685036845608,-0.183746207128,13.0057801844,0.499043328478,0.00810209434143,0.0522323229002,0.0841574106735,19.2778732587,0.423583137824,0.00859186388306,0.0473702305088,0.0891379072321,14.092498526,0.483679277389,0.00526860936252,0.0107931393718,-0.258463346698,17.935800346,5
0.629791902344,0.00271911632546,0.111683045526,0.256973211055,29.9490526275,0.629544951655,0.00121406840702,0.0885064598341,0.266794243978,29.8143545237,0.631315355521,0.00336541918581,0.151178722135,0.242536411894,30.1409718785,0.396850961754,0.0032044640754,-0.0789495295994,0.356880737714,12.04893178,0.605597538608,0.00126217352799,-0.112576764263,0.803088784422,27.5995292487,0.413931876503,0.00152549701249,0.0902339042666,-0.705214345109,12.9633566578,0.501479106749,0.00761472512374,-0.0272793903604,0.0524299309061,19.4245867471,0.42305527574,0.00813129316026,0.0828286402918,0.161427730688,14.0248981687,0.483020809617,0.00463664262722,0.00999859657135,-0.464998061719,17.8412942437,5
0.626900880484,0.00272200242222,-0.121671271588,0.693642251144,29.6767817256,0.628075243401,0.00111718138186,-0.0402610007552,0.560485741682,29.6685597752,0.627062104321,0.00322054623915,-0.0988083847851,0.432048798531,29.7288366224,0.39306781088,0.00480139628093,-0.0512725819732,0.523373813296,11.942976121,0.604139995824,0.00185911219532,-0.0740075715373,0.735859758859,27.511459394,0.416687966449,0.0021909520787,0.0184846451519,-0.504523080365,13.1842950576,0.502890841842,0.0138613308348,0.0141647335919,0.610235587018,19.9931783924,0.417800475242,0.011639084519,0.235297994711,0.342683582577,13.9530850379,0.48078906573,0.00526035180355,-0.00889439100679,-0.450076176767,17.7261254629,5
0.630453912567,0.00236065749778,-0.0160891105041,0.4888187616,29.9850988451,0.629148889767,0.00103720527402,-0.00590812168322,0.486024048732,29.7638776024,0.630080193711,0.0029293168645,-0.021537940611,0.287316684376,29.991848236,0.398035266576,0.004922640606,-0.0326048610044,0.36019075424,12.2466809127,0.606751027701,0.00198760435652,-0.0340920682267,0.593456086628,27.7580934436,0.412586765758,0.00224648039846,0.0310599869094,-0.335419793509,12.9333274954,0.500311308243,0.0149831652689,0.00771755828943,0.460022799479,19.8821096166,0.42390674189,0.0132675463969,-0.2410260706,0.439183464488,14.4590678698,0.484862505045,0.00544945321643,-0.0884857678323,-0.403309701681,18.0351331979,5
0.627492221444,0.00231865572247,0.0443194332696,0.638977657766,29.7025671214,0.628237398664,0.000995760396109,0.00445415573932,0.525567654119,29.6748534503,0.62755255949,0.00287669142338,0.040109788375,0.407615006386,29.7495412845,0.397062163972,0.00506689899785,0.104471295362,0.40086209909,12.1993276802,0.605374139668,0.00201659522231,-0.0335527518863,0.658962895827,27.6350667199,0.413516850096,0.00233338169888,-0.0715882626202,-0.396591679252,12.9973841442,0.498295344704,0.0151616840889,-0.0800059144749,0.479334870553,19.7443334141,0.42382311227,0.0130840982964,0.0389749423701,0.437430287928,14.440175561,0.483214925738,0.00542506593029,0.0131205281558,-0.344788190056,17.913704713,5
0.627664380332,0.00250365078458,-0.0794907101614,0.576439503396,29.7324632333,0.627143077363,0.000705258332088,-0.0343354392975,0.0503658947187,29.5503220779,0.627291961445,0.00279973383678,-0.101776896792,0.247160424846,29.7193206709,0.398108430227,0.00525829936819,0.126853934813,0.297515574894,12.2758883196,0.607651868078,0.00192002093957,-0.0435351814108,0.687900300853,27.8351410079,0.412188622818,0.00246408994451,0.0227346994178,-0.267217937352,12.9248022144,0.499356423671,0.0155293797243,0.0456456879007,0.446370668086,19.8509369392,0.423019478945,0.0124721595593,-0.263501437039,0.364963277532,14.3438507749,0.48323859239,0.00587198605226,-0.186110303142,-0.198661512347,17.948492256,5
0.630138476854,0.00319189725641,-0.0676513606318,-0.159983571535,30.0167878979,0.629514806504,0.000808188182055,-0.055316726607,-0.25015973878,29.7814727961,0.629962489066,0.00331598125202,-0.0960045868033,-0.153377730034,30.0093379349,0.39843629147,0.00353748443067,-0.0704440422341,0.232563109115,12.1681347249,0.606928048033,0.00130202422598,-0.0129095441251,0.277489788624,27.7234739544,0.413345437645,0.00187288488256,-0.0105416292254,-0.0558288310718,12.952677293,0.495159585511,0.0115050231571,0.138118261048,0.695421048621,19.2400978479,0.425809431557,0.0107844368981,-0.0118757679999,0.529053498094,14.3965737307,0.484132691112,0.00399005139776,-0.021614918849,0.35077489813,17.8740984987,5
0.628180009195,0.00329134919163,0.0429606204153,-0.102212715786,29.8393191366,0.628170514268,0.000818548538757,0.0276915781324,-0.192848728948,29.6554372166,0.628167200004,0.00343447998208,0.0373351330432,-0.122998024232,29.8487038557,0.396106483291,0.00334464628819,0.0294967145147,0.318906219164,12.0150297832,0.605377045226,0.00123481266159,0.0100549195635,0.352087900678,27.5774786535,0.414455249593,0.0017495402753,-0.0229359164698,-0.0562389584446,13.012452524,0.500973180843,0.0111026429272,-0.0536863030839,0.621527728061,19.6446551709,0.423769869746,0.00965707610537,0.0299449468914,0.576875344848,14.1831913196,0.483722476537,0.00396076872138,0.0311447698425,0.36968787926,17.8421544584,5
0.629800919022,0.00363476159362,-0.0881247191809,-0.10430027839,30.017662178,0.629097562949,0.000846816717809,-0.0176653117417,-0.236345431669,29.7449452152,0.629716239921,0.00377375665978,-0.074253740913,-0.115716927493,30.0199487043,0.395204112356,0.00357610151607,0.021706527122,0.243837512874,11.9786032939,0.605366992191,0.00146932007432,0.104834681819,0.434237397304,27.5939193281,0.413400130554,0.00190334755827,-0.0430500439038,-0.11640223541,12.958322815,0.499678692396,0.0112629038622,0.0630261918507,0.673044198184,19.5593645584,0.429376282717,0.0118180046104,0.229790188788,0.860814532655,14.7018317531,0.489129953373,0.00462133371022,0.169937968565,0.576626606031,18.285587041,5
0.629676568364,0.00417240243589,0.101695211032,-0.137917610553,30.0457013363,0.628474031692,0.000961981314613,0.0512268726285,-0.192172172676,29.6946572556,0.628646459082,0.00429693744604,0.0584046040423,-0.100338315119,29.9577011598,0.395597149898,0.00522674603653,0.104329898874,0.427093927579,12.1240620822,0.604556227166,0.00227682207673,0.1280003572,0.516786821535,27.5801022191,0.415147220869,0.00233808341313,-0.0485370662112,-0.262215028024,13.0990592972,0.500887209912,0.014610316991,-0.223369421516,0.392968332702,19.8977632364,0.423570072419,0.0154396864726,0.187725736888,0.54979682985,14.5984072676,0.487480920772,0.00650022860711,0.137704922761,0.104321534039,18.3038405257,5
0.627298865332,0.00403438915719,-0.0500568715356,-0.0962431284487,29.8113347812,0.628016316359,0.000894876788247,-0.0262282944026,-0.130078417405,29.6465579033,0.626313961331,0.00388160445303,-0.0585281827966,0.00634130409786,29.7074270914,0.396499089592,0.00533392076602,-0.0300585686779,0.387909663506,12.1855747402,0.605563847612,0.00238369154408,-0.0253573464865,0.512109568775,27.6794611893,0.414375970593,0.00250945798548,0.0372333768549,-0.229662487657,13.0637582663,0.498768164351,0.0145914034366,0.0164956975047,0.437762054915,19.737489987,0.423334328821,0.0169959770554,-0.11605153485,0.45369732088,14.6985988489,0.483880868322,0.00683351873143,0.0760637373217,0.160702596207,18.0662324907,5
0.630546497062,0.00396341236469,0.0493588041363,-0.22193268822,30.1124588868,0.629222488204,0.000862104332799,0.0178880518824,-0.23604667474,29.7578661953,0.630791947379,0.0037709850387,0.0283148651608,-0.164697073688,30.1214389587,0.394395535062,0.00621134157787,0.00865367443275,0.296764702091,12.1257271325,0.605450164527,0.00252028215881,0.0209134506082,0.44654708662,27.6792435091,0.414321494105,0.00272910633423,-0.0873496743879,-0.263869668251,13.0766264046,0.498628013167,0.0156170926002,-0.0113010880426,0.386312964457,19.8029070161,0.425207969432,0.0179499344661,0.195480776391,0.419476060165,14.8884314456,0.486427165754,0.00772656914704,0.0566167694212,0.110673411121,18.3176201856,5
0.625449563331,0.00577266820234,-0.0546980312766,0.0421358439414,29.7662141673,0.626971764028,0.000836134735832,0.0604740918922,-0.62356412448,29.5438934371,0.627169270602,0.00478373126986,0.168755208186,-0.348874676274,29.854593163,0.397123002107,0.00617466085672,-0.294856390813,0.314886346094,12.2849258136,0.605535606783,0.0022830383837,-0.107346903836,0.393093640862,27.6694476715,0.414909968455,0.00252151365058,0.166057992695,-0.193153971128,13.0978631544,0.499567306387,0.0152887436087,0.379778945294,0.375963025253,19.8489290478,0.417703139435,0.0163973589139,0.12358563887,0.397038689314,14.2990980116,0.481109135568,0.00723857109258,0.249118093721,0.122979158498,17.8956042854,5
0.628540672976,0.00633580443797,-0.133103772471,0.221424533385,30.0986028473,0.627956737418,0.000991671900164,-0.0897719373429,-0.276509535529,29.6481085258,0.627195691964,0.00532485614995,-0.153847759274,-0.242194585016,29.8971220565,0.397680743796,0.00450140072373,-0.0465144280845,0.231037312792,12.1943517025,0.606965682358,0.00177851352417,-0.0563691976719,0.533570658686,27.7621604678,0.413135305128,0.00183844660108,0.055534481948,-0.418262371998,12.9371035742,0.499362591075,0.00771288009463,0.10537102234,-0.138430015184,19.2729779294,0.422895527044,0.0125876727122,-0.0890251412475,0.347342468824,14.3445347902,0.483676155004,0.00597066053534,-0.060705478394,0.307426734474,17.9875255985,5
0.627923989545,0.00685805880717,0.0945687104836,0.157795541855,30.0791366002,0.628488679023,0.00112268940173,0.0505707626912,-0.258396037237,29.7079304903,0.628371757359,0.00580588976845,0.0836273809448,-0.257919882268,30.0434657514,0.396330329066,0.00437625603704,0.0242151840187,0.291637202865,12.104672677,0.60574790578,0.00167345505724,0.00788789086166,0.608119337752,27.643625076,0.413991078281,0.0017160212912,-0.00529499075829,-0.479523832991,12.9811315428,0.499113867355,0.00753983964247,-0.0408067611971,-0.133653918293,19.2415470775,0.425060106979,0.0118398745909,-0.0121617043586,0.366743675171,14.4268578106,0.484644367274,0.00583113983226,0.0125615562564,0.282201432021,18.0475165524,5
0.628642308097,0.00730798437766,-0.122721711061,0.128958525964,30.1801272087,0.628581494262,0.00122940327206,-0.0746166485583,-0.252263237111,29.7245779617,0.627978921816,0.00621569779619,-0.112454186082,-0.239294437629,30.0367761053,0.397670297111,0.00419712805444,0.109944749518,0.318294654579,12.1712123663,0.605939349635,0.00165823043271,0.0337015198486,0.603821590492,27.6598962098,0.413063422488,0.00154344745389,0.0348736918998,-0.574991039433,12.9108194364,0.501994960715,0.00714765801204,0.0124663255704,-0.18093943485,19.4288472366,0.427069621263,0.0120407586599,0.0309707045712,0.324671470891,14.5701507463,0.483623957389,0.00539219661021,0.0762310254247,0.162437540887,17.9409324612,5
0.630776641643,0.00683993405814,0.0208148121604,0.202604080154,30.3470929935,0.629884907171,0.00116761531621,-0.0134583990363,-0.0721332924715,29.8430282546,0.631436227845,0.00599540300714,-0.0490557233995,-0.168071017343,30.3470380602,0.393313876507,0.00486839522667,-0.0153608748035,0.404530138286,11.9624466557,0.604591581867,0.00176215107535,-0.0135050218804,0.566476909507,27.5452227444,0.415688808541,0.00179987210732,0.0205707073214,-0.508928157335,13.0929794519,0.501475459171,0.0117863998481,-0.0545104903762,0.371263020292,19.7330163001,0.42310067187,0.013305726938,0.322719444149,0.363053886583,14.4106871837,0.485182479631,0.00636370201695,0.0799736601153,-0.218495521706,18.1260668398,5
0.62802909667,0.00666516099635,-0.00390631048947,0.281566031091,30.0747628835,0.628350571974,0.001069314284,0.0106513130322,-0.0467735673173,29.6909623545,0.627852041339,0.00562654211199,0.0190818245785,-0.109119477024,29.9812280523,0.398566812507,0.0051593591204,0.0565606067641,0.23557972294,12.2959553773,0.607260511336,0.0018471921957,0.029867724784,0.385516930229,27.7940918696,0.413028852151,0.00194353595787,0.0438320154904,-0.344227931678,12.938284114,0.501469932693,0.0130322729348,0.0718862827521,0.220235953768,19.8247952018,0.418511214788,0.015528618254,-0.31947810247,0.267039181796,14.2854905186,0.481553793912,0.00693962265728,-0.1591895508,-0.156118667544,17.905586309,5
0.629323152004,0.00666960570514,0.0252853940602,0.23899603555,30.1971230458,0.628765366993,0.00106432394151,0.00953056517855,-0.0782282311509,29.7297014764,0.628386347767,0.00563700807023,-0.0490251692922,-0.129007290914,30.0323437517,0.396732039026,0.00614962632538,-0.00214758928022,-0.010640513059,12.2597956573,0.606274181989,0.00221671558067,-0.0130474006214,0.0664682647876,27.731665734,0.41411670143,0.00214031568519,-0.00217307580991,-0.264821780877,13.020331541,0.499872688715,0.0131970526442,0.0260459588733,0.247327460211,19.7170347649,0.427872870281,0.0165263816824,0.0445782545928,0.0868063926976,14.9535917287,0.484521588059,0.00775070166967,-0.0535838829365,-0.0660012632067,18.1806396207,5
0.629475220216,0.00697004006908,-0.0404574127596,0.192541338082,30.23371193,0.628695977256,0.00110726539733,0.0514469181529,-0.120413222677,29.7263350258,0.627530598191,0.0063999884093,-0.117094833425,-0.321511238157,30.0081980172,0.392633904857,0.00502049678389,0.132860108473,-0.405618110876,11.9336205052,0.602991769128,0.00157673028758,0.114518290598,-0.830580690357,27.386608564,0.416565471221,0.00168588274045,-0.0771882507349,0.149042380971,13.1392647088,0.504134181127,0.0108931356972,-0.175793510506,0.651226629036,19.8674374851,0.422823696562,0.0130234233571,0.148195779359,0.00929658764846,14.3722242065,0.486610021409,0.00558906764137,0.132848977544,0.182645280854,18.1727894757,5
0.626360440167,0.00671754593786,-0.000601839326141,0.295129244963,29.9216534749,0.627371769108,0.0010324431593,-0.0113529792918,-0.017068446721,29.5960510443,0.626968199752,0.0061877861893,-0.0468925108193,-0.308098547607,29.9395804406,0.396505177385,0.0040474754633,-0.0261611287796,-0.362806886296,12.0907398613,0.605375759732,0.000923719195692,-0.0115824135281,-1.15210639931,27.5543410058,0.414009417527,0.00129472722893,0.0601173785205,-0.0505459043851,12.95109465,0.499992471205,0.00843730808975,0.0791388121817,0.585820595234,19.3737961433,0.41949667248,0.0103341492639,-0.05654880766,-0.0930838252279,13.9630364122,0.482856150214,0.00420894861379,0.119725115098,-0.260935243448,17.7977168324,5
0.62714996143,0.0078140636904,-0.213100906033,0.183126780638,30.0770212722,0.628890441277,0.00116366657902,-0.0361007911357,0.0407824150056,29.7488503616,0.627137048533,0.00654040388674,-0.143199811404,-0.304679242448,29.9815557108,0.397864169751,0.00398932075399,-0.167458051956,-0.414152829479,12.1674020537,0.606068303086,0.000900703993956,-0.0443863833739,-1.24969086302,27.615561196,0.414261208741,0.00121361395782,0.0228817673714,0.00142476989905,12.9607336129,0.498039876406,0.00813832498541,-0.0877019572545,0.628654953625,19.2055149357,0.423619816312,0.00935500344318,0.0920929948858,-0.0778597382793,14.1513014127,0.483570814216,0.00391125748252,0.111384986707,-0.245253991166,17.8274879808,5
0.630491497485,0.00788197879456,0.101599903187,0.270120161111,30.3972310609,0.629002357723,0.00118121525166,0.00907692950754,0.0241164005194,29.7607073802,0.629852381384,0.006687773119,0.0950379961233,-0.199135281379,30.2484468859,0.397175668587,0.00402997893996,-0.0412174514035,0.133668916131,12.1293568204,0.606124280287,0.00137511269219,-0.0519339356385,0.0560310375616,27.6557565757,0.413660012163,0.0013718660866,0.0474131684172,-0.318769123922,12.9351135151,0.498187984953,0.00906554143321,0.125463091195,0.360953083685,19.2851951924,0.420925621093,0.00943761602316,-0.0478771008999,0.0560314877743,13.9867619726,0.481528313156,0.0044943212613,0.00208363243831,-0.281398770005,17.7227935012,5
0.63019183808,0.00597511633788,-0.117533249443,0.119967988504,30.2277900677,0.628489387035,0.00106809969547,-0.0812597345975,0.184773078907,29.7039575986,0.629471996299,0.00509673303073,-0.107530089958,-0.195796176779,30.0947828036,0.397686566802,0.00451225465261,0.0376177981231,-0.0835700333037,12.1955022504,0.606492021481,0.00171367390219,0.0140009747307,-0.329347187492,27.7142547777,0.413369816068,0.00157845439431,-0.04065654081,0.0334153263697,12.9324009879,0.497144754519,0.010784747561,-0.0144282008447,0.540942790906,19.3345393404,0.429199741682,0.010112995612,-0.00590827777987,-0.152106214221,14.5642930448,0.48559124843,0.00489502635024,0.0121954349597,-0.245118776701,18.0471464913,5
0.630312603755,0.00477206539076,-0.0787111616641,-0.115964866263,30.1501812229,0.629671155432,0.000768778344535,-0.0342581515393,0.0816739378314,29.7933218962,0.630064966858,0.00433324462743,-0.0857522109906,-0.380303920442,30.0942997871,0.395282512915,0.0048585323602,0.015295275615,-0.0471192966416,12.0781512709,0.605030601656,0.00192051871488,-0.00200633330833,-0.350330490191,27.5967705554,0.414931934656,0.00197791131245,-0.0534988424108,0.0702115916529,13.0590037169,0.499641759766,0.0116445697661,0.0241375592981,0.448249852369,19.5848397703,0.422746948825,0.0106769415457,0.138534669721,-0.0393513442247,14.19371738,0.485539365572,0.00558642130586,-0.00942407185428,-0.180393350728,18.0945308407,5
0.627024881197,0.00463580662363,0.0380966206169,-0.115132745947,29.8300648131,0.627320696857,0.000666809654393,-0.00115384498978,2.42345535903e-05,29.5641881674,0.62709704387,0.00403418699457,0.0720714077364,-0.376560438807,29.7923325199,0.396557833474,0.00492121910629,-0.0354973786306,-0.096510444184,12.1585288606,0.605918454797,0.00196573200084,-0.00983347340348,-0.38359756925,27.6807522078,0.414177918182,0.00205868262147,0.0450614299927,0.0980257048434,13.0180936072,0.49987097245,0.0116883194211,0.0387930691986,0.437676301037,19.6052598196,0.423577517027,0.0107336187529,-0.0149750127921,-0.0574493129863,14.2506312575,0.484451912181,0.00572016397223,0.0324420933651,-0.146904190155,18.0253162751,5
0.629744556793,0.00439492810042,0.0351944072479,-0.0656585196318,30.0685901902,0.629215742918,0.000597915249183,0.00995760717561,0.233168599078,29.7376795636,0.630214523203,0.00373707914755,-0.0354242916788,-0.377612798023,30.0643197511,0.396265088654,0.00467887374189,-0.125980550626,-0.0929680619701,12.1231881933,0.605171693761,0.00193812494172,-0.0055748530668,-0.349853448397,27.6108796654,0.415210932616,0.00194536032062,0.0493710337226,0.136955147516,13.073965556,0.501242335587,0.0105946764272,0.260182962611,0.714354630372,19.6272969795,0.423565502008,0.0101714262639,0.161163748933,-0.0699573237131,14.2082656304,0.484287004513,0.00529100637185,0.22235131298,-0.030866589911,17.9815771771,5
0.627044529951,0.00404971268777,0.0245223751765,-0.0327903199484,29.7885419295,0.627770982488,0.000531800307202,0.0101819255272,0.292705843325,29.5965837068,0.627109527118,0.00349075685192,0.0454837885496,-0.367290671448,29.7532929322,0.396690561399,0.00377847124472,-0.0295644508086,-0.219863835416,12.0818619848,0.606282774378,0.00180294382435,-0.0361576935855,-0.403909019239,27.7018280311,0.413691671875,0.00161437162044,0.0443229269871,0.119427611912,12.9550234533,0.500351234807,0.00542472421483,0.0348237992716,0.234580492352,19.1777814549,0.419524761219,0.00748989139435,-0.0635834907794,-0.306362190777,13.7543288589,0.482829037924,0.00446030083316,-0.0743114800875,0.374208916664,17.8143532514,5
0.629064768787,0.00425388611642,-0.148303743259,-0.185602973165,29.9939738223,0.629434558068,0.000534277622259,0.019071451953,0.11527615761,29.7536262608,0.630421975648,0.00360925777918,0.0826565235117,-0.439105417231,30.0744751292,0.39695811022,0.00321058868182,-0.00741979360032,0.317432224265,12.0557641577,0.606278690615,0.00149421120382,-0.0727821863748,-0.0454359360518,27.6786104311,0.413803905429,0.00144452054359,0.0510528895199,0.010475479449,12.9494199314,0.502959086823,0.00523355092901,0.131616202024,0.25394467601,19.3598709951,0.431540562755,0.00662025462141,0.149897129855,0.633318675178,14.4569431397,0.48810766984,0.00430290529831,0.0872165599371,0.652017794088,18.1870972938,5
0.628791770253,0.00414273394234,-0.0418639453015,-0.117559537764,29.9599940871,0.627688755021,0.000539759780626,0.0633723723534,0.27215524876,29.5894302123,0.628210760548,0.00332000148662,-0.0707557160742,-0.308800813224,29.8443370851,0.394190074139,0.00353895661508,-0.00460683436568,0.560268906259,11.9158188807,0.604880218794,0.00162366040667,0.0341179794383,0.141252199543,27.5611568017,0.415808082517,0.0018535251579,0.0394984609386,-0.408415772026,13.1043879732,0.501902976233,0.00830029362432,0.0400912288394,0.0148153329248,19.5072165446,0.42101895288,0.00803872979625,0.300126359185,0.310208733037,13.8891379062,0.486216120955,0.00623949348631,0.0631613259044,-0.165809183464,18.1921812387,5
0.627994506954,0.0034072302262,0.0484661439235,-0.0613014273303,29.830417594,0.627821897642,0.000452808052847,-0.00232531317503,0.551081337876,29.5955329328,0.629413419961,0.00242630887612,-0.0533708881018,0.37158488844,29.8916408489,0.398620837908,0.00360635872817,0.0525907736405,0.388334042177,12.184263477,0.606552993639,0.00167601492775,-0.052522556082,0.046734895022,27.7170151616,0.411778270461,0.00206975276771,-0.0328681923748,-0.255254970445,12.8702625066,0.497453151808,0.00937361744737,-0.219735004985,-0.0218560974232,19.2531205594,0.418669998142,0.0119788498342,-0.269632860764,0.0902640392282,14.0327774385,0.481485401227,0.006735242111,-0.0263597520749,-0.112817610365,17.8855222858,5
0.629464519772,0.00309868077573,-0.12121913623,-0.220723396834,29.9462210013,0.629346445068,0.000505198552763,-0.088589793024,0.356087466298,29.7431557868,0.627069350423,0.00224187419587,-0.0782898114297,0.286930363597,29.6570964585,0.396201547632,0.00401694141901,-0.0291080453422,0.237551630961,12.0704286409,0.606133328451,0.00176509816132,0.00346411017315,0.0590315003208,27.6854381534,0.413795148367,0.00257935555235,0.00399418874932,0.208397589969,13.0328541718,0.50100956053,0.00977102883748,0.0650728928716,-0.092163517452,19.5488496146,0.426397296103,0.013655855492,-0.0870089270189,0.0831335259638,14.6466323657,0.48445578123,0.00728816801815,0.0132899768276,-0.0640905982195,18.1416297309,5
0.630881659789,0.00264881578362,-0.125565941532,-0.496974976912,30.0468875174,0.630055610131,0.000613578874792,-0.0265746650516,-0.988006934243,29.8181602261,0.629986354503,0.00251144342129,-0.181976901274,0.0257586447934,29.9520573277,0.396310534221,0.00405924218731,0.15375802788,0.226835659641,12.0800368869,0.606220499552,0.00171122668946,0.0802041958358,0.100649959435,27.6893778308,0.413973675349,0.00255905620928,-0.0588285168051,0.189978032314,13.0424354507,0.498226013851,0.0099043591868,-0.0745471889894,-0.0129565739144,19.3501096457,0.424515903417,0.0145802023108,-0.117737381787,0.0736458744575,14.59496639,0.482634189333,0.00679878808837,-0.0815193051893,-0.174833334764,17.973292372,5
0.628404893032,0.00248698067432,0.0497819779837,-0.528469491688,29.8009897889,0.627891545004,0.000667956739881,0.0273089250043,-0.803419623891,29.6180132203,0.628966879517,0.00232031119502,0.0499142094455,-0.0630198784532,29.8416531932,0.398199533802,0.0022995038622,0.0364017304599,-0.302959842727,12.0623784398,0.60754750104,0.000865028105527,0.00570269988257,-0.200119333339,27.7475595313,0.412801035009,0.00190331173427,-0.0177638819512,0.535099518933,12.9211971562,0.496523583277,0.00699273924602,0.0479543763018,-0.164240219391,19.0076378605,0.426827757776,0.0129560457351,-0.149198851426,-0.017728595415,14.622392495,0.48367472419,0.00536666630039,-0.0558688420675,-0.15440748606,17.9427262177,5
0.628867358929,0.00287634045798,-0.0931977235908,-0.307637511174,29.8734108284,0.628722089872,0.000725738532992,0.000289452216538,-0.772265596835,29.7005646234,0.62925099633,0.00250288950996,0.0974690410883,0.034556486697,29.8819750525,0.395550339271,0.00240688363282,0.0041682309048,-0.244950954773,11.9126147061,0.606956997079,0.00124540089866,0.0680335800402,0.705464044753,27.7219193892,0.413469154747,0.00204231206203,-0.187999535477,0.317220977533,12.9728867371,0.496116758855,0.00725445566595,-0.356113227569,-0.503310922044,18.9967176005,0.424515103173,0.0147668260208,-0.161244308643,0.220705292708,14.6087255872,0.486015503642,0.00655300704447,-0.224172029208,-0.308925823226,18.2007527548,5
0.628910728023,0.00318243031659,0.00694155762859,-0.307276578555,29.9001526302,0.628334773935,0.000800482054872,0.0154406581637,-0.66548900124,29.6695797823,0.628127705171,0.00273725751899,-0.00640743959571,0.00141673548601,29.7933881066,0.395718942639,0.00316323443235,0.0442575627392,-0.2330628404,11.9785904652,0.605576009692,0.00132894479947,0.0444837062675,0.634657284088,27.6025146788,0.414121522652,0.00204768792427,-0.00764354431889,0.244177327587,13.0137765707,0.499220599978,0.00854876117134,-0.0858862904317,-0.14166267981,19.3241988848,0.427484265605,0.0176435675178,0.280963343001,0.318445993292,15.0113337968,0.487001391517,0.00760500006226,0.00246246552307,-0.480846857734,18.3505466551,5
0.626550062005,0.00251920836071,-0.0267181647521,-0.159249897936,29.6287949336,0.627849637612,0.000718550561881,-0.0309154419491,-0.69979936753,29.6178103002,0.627274305914,0.00235595528139,-0.0727643375069,0.0782028205688,29.6848198053,0.396447423188,0.00348053523438,-0.0294199851741,-0.159015815413,12.0453515588,0.605436555611,0.00140741095485,-0.016750509435,0.619700220237,27.5956551259,0.414100076745,0.0021569058731,0.0553003879957,0.21663619726,13.0205265516,0.498442804058,0.00895727093012,-0.00284307260007,-0.134543516081,19.2962302176,0.422161035311,0.0193439862136,0.0574235173761,0.262817095133,14.7979504599,0.483091933071,0.00784890434191,0.0922609607679,-0.354894454563,18.0841551061,5
0.630023052649,0.0024162561022,-0.0154449215193,-0.325091133909,29.9484814667,0.629183099272,0.000709561759539,0.0111815700819,-0.841124004132,29.7428605009,0.629782981694,0.00229270758867,0.0169985663146,-0.0352636138262,29.9166556639,0.396052963833,0.0035111159888,0.00289258447614,-0.138457542774,12.0241688452,0.606050438568,0.00141381311595,0.00701141338027,0.568527955908,27.6519072272,0.413628452341,0.00222326845034,0.0174463184015,0.20083151478,12.9961591093,0.501119781818,0.00916471287997,0.113353967419,-0.17816188655,19.5122664328,0.424756166352,0.0198839083799,-0.0749906444413,0.206128948895,15.0027442842,0.48414457755,0.00801361658578,-0.094503727502,-0.387972614523,18.1727055252,5
0.626832303627,0.00258173126448,-0.109235777609,-0.309426553428,29.6599533788,0.627601097439,0.00073744026558,-0.0388835694606,-0.669491447666,29.5958058927,0.626120170229,0.00265188426464,-0.163866393914,-0.203086361151,29.5982245031,0.397098112609,0.00536448148789,-0.0469270175402,-0.327053294287,12.2234899579,0.606510370118,0.00159246289517,0.0261974496067,0.370750283758,27.7069544338,0.413998381512,0.00328293637376,-0.0344455370481,0.401681656632,13.0975367837,0.499712834044,0.0105578527399,0.0317080366975,-0.321555189074,19.5097498409,0.42839578859,0.0233932093795,0.0537570166471,-0.031185943636,15.4953188702,0.485831777087,0.00967281667129,-0.0613155952678,-0.246316933856,18.4182271057,5
0.629990333597,0.0030544193101,-0.0209235626417,0.0974529963142,29.9926135609,0.629494454245,0.000787984538954,0.0146039206036,-0.638791214666,29.7780559502,0.629765818441,0.00300734806969,-0.0268885912075,0.0279199280114,29.9679177129,0.396296454857,0.0049322106354,-0.127350512366,-0.393695375802,12.1437995969,0.604617809699,0.00141279587925,0.0262515091887,0.406684087803,27.5217490804,0.415017698812,0.0032773650346,0.148566245786,0.470692673819,13.1605017871,0.499994321887,0.00923639969266,0.162163120072,-0.162135916784,19.4330677212,0.419020708302,0.0233043757844,0.294586350142,0.0234409639312,14.892900357,0.483450239275,0.00817212389765,0.248025539214,-0.190821398791,18.1340472076,5
0.628157075143,0.00338768328505,0.0193291054749,0.0484302784336,29.844286892,0.627969900881,0.000855762896776,0.0190028424125,-0.547954522327,29.6392911853,0.627964067472,0.00325004168106,0.0269779765661,0.00569551225313,29.8159183371,0.397963697833,0.00449018600883,-0.0459607833665,-0.574624027733,12.2104066241,0.606439729356,0.00134309222504,-0.0224254816148,0.345186147387,27.6820747253,0.412257306478,0.00299513824461,0.0508302347837,0.705199884966,12.968346736,0.499734810473,0.00707796007945,0.106929799295,-0.558765538196,19.2538851057,0.420515223986,0.0207634417195,-0.100106751932,-0.11086140558,14.7989737075,0.483090283442,0.00677030373488,-0.0144661485031,-0.158958929055,18.0042191231,5
0.62999912341,0.00374165346061,-0.0939219316935,-0.000756903166951,30.0442995184,0.629448336667,0.000905482524656,-0.033865991816,-0.589752598484,29.7823963467,0.629421967366,0.00372173941558,-0.13837311857,-0.126744002087,29.9883096919,0.396449345805,0.00412370434579,0.100254528765,-0.429262451036,12.0930604058,0.605847899141,0.00126380384232,0.0476977647839,0.443088803662,27.6223972514,0.412802474233,0.00241793388993,-0.0410713826131,0.4840369225,12.9593683128,0.500840313761,0.00638019752889,-0.0803378302781,-0.451924489352,19.2852111087,0.43114350474,0.0198348220201,-0.138889531865,0.04229127513,15.4091309554,0.485769492318,0.00620563190445,0.0847082327813,-0.199089630283,18.1571167359,5
0.631197287798,0.00358321872242,-0.0504200113744,0.123048169797,30.1459093948,0.629569657317,0.000753034837446,-0.0368938512168,0.0398679435848,29.7825710841,0.629967234194,0.00356676250502,-0.112882710322,-0.0186254114019,30.0283441372,0.395087770616,0.00536522291433,0.105962685413,-0.169641509314,12.1041024824,0.604924534696,0.00157818663771,0.0456504721235,0.423097862478,27.561812762,0.415215696215,0.00280665207991,-0.0558798532498,0.245862801175,13.1379978327,0.49907325373,0.0123326765879,-0.126270970816,0.30685480149,19.5931765117,0.425592910165,0.0205840957737,0.375581649988,0.080188160106,15.1079224759,0.484669050794,0.00693508882631,0.113953700904,-0.260166360433,18.1310032329,5
0.627946577816,0.00321523563721,0.0380309509665,0.137364117373,29.8116952814,0.62829125557,0.000623548215592,0.022282045118,-0.103985726982,29.6523852049,0.629117205607,0.00302896868937,-0.00257960514314,-0.237774765807,29.9082780624,0.396785103649,0.00545717236574,-0.0442790782663,-0.226634692003,12.2117121409,0.606112079591,0.0016241312959,-0.0106842882115,0.351403529882,27.6730746929,0.413876274297,0.0028944660214,0.0243096310552,0.291371967223,13.0612082675,0.499792311746,0.0125254830281,-0.00390751060407,0.271364852105,19.6613123601,0.419657629076,0.0209462813843,-0.0924659144913,0.198831853464,14.7584642455,0.483887736473,0.00697709475085,-0.00798683000013,-0.22844877855,18.0773556247,5
0.628745803905,0.003138713411,0.0295642538016,0.119105100676,29.881361237,0.628496420471,0.000579818635379,0.00117395309747,-0.107758840652,29.6684878698,0.628006576407,0.00296582328708,0.00729459500424,-0.194014226333,29.798890424,0.396703043153,0.00555528753122,0.0171588703693,-0.199205297481,12.2140891108,0.605601561721,0.0016449868783,0.0480766346941,0.382392412361,27.6282228959,0.414230555065,0.00292450530849,-0.0242975109063,0.264724439146,13.0854348491,0.498925280343,0.0130140490805,0.0308074677659,0.267974161756,19.6325222844,0.426829590983,0.0208706831329,0.0335716564748,0.0561320171583,15.2081930322,0.486031039003,0.00706086034398,0.0491735782966,-0.290564081359,18.2394664811,5
0.629788429871,0.0026526496357,0.0493785345272,-0.00252661116247,29.943806053,0.629219686502,0.000511671923569,0.0224871575421,-0.0457767566004,29.7316697634,0.629294475923,0.00291450602406,0.106547957101,-0.332600351399,29.9165387528,0.394417464904,0.00508346041847,0.113855821346,-0.313030415363,12.0435613176,0.605893437878,0.00100851996276,0.0683081881793,-0.128876695175,27.6076448321,0.414126888111,0.00252437765206,-0.0886461160385,0.405564982439,13.0493849055,0.501551952604,0.0111714008675,-0.254730205337,0.394618011934,19.6932607513,0.427363515187,0.017346831818,0.0885006959668,-0.0258551637571,14.981633613,0.487240618941,0.00486020525073,-0.0958817331738,0.309420971587,18.1649117445,5
0.628788920974,0.00301725287652,-0.0802144073901,0.0782135108322,29.8764397483,0.628871478133,0.000689139579554,-0.0410485445742,0.213531097569,29.7119465296,0.628937567958,0.00346528585784,-0.118560081849,-0.208526752873,29.9236159826,0.396408935772,0.00439512057273,-0.118752176301,-0.15672420556,12.1107422494,0.604876782482,0.000823669828602,0.020854087133,0.0671936034534,27.5016457162,0.415180129719,0.00226142649441,0.025650487941,0.419831957937,13.0954360691,0.500348885912,0.00980231159271,-0.0896029647408,0.392935440185,19.5015466303,0.420369451374,0.0145563706658,0.291392118975,-0.18037427671,14.3304571029,0.484046997315,0.0040017712713,0.0925280937372,0.226176033234,17.8687432448,5
0.629204402554,0.00322900135569,0.0411396706179,-0.0105035254808,29.9313096148,0.628603994921,0.000748970900304,0.014601022458,0.0741025531507,29.6911475289,0.629045670348,0.00360072720402,0.047887372402,-0.249885695536,29.9438379668,0.397407821329,0.00408242897664,-0.0244710500242,-0.270189309291,12.1470729783,0.606239363168,0.000771067300343,-0.0082632042543,-0.00376417012416,27.6215213893,0.413392705476,0.0021680935017,0.00498931706575,0.521552999613,12.9774535897,0.500218029682,0.00968605310704,-0.0172168432157,0.389276670862,19.4831237214,0.423197962374,0.0128508859197,-0.105664754399,-0.124034275047,14.3832042099,0.484018475625,0.00384162024358,-0.0297833388,0.240827438332,17.854821254,5
0.628955468652,0.0034323186949,0.102140310191,0.0367734836973,29.9228651994,0.62897603593,0.000805457915685,0.0454310001792,0.0862529770659,29.7304179188,0.627783646644,0.00371239638316,0.0748912407805,-0.179671289748,29.8331403569,0.39255615165,0.00390754322701,0.132055144125,-0.34667468676,11.8466831137,0.604225825287,0.000819538896761,0.0569860119931,-0.0412597937333,27.4423094742,0.416800175746,0.00202641540418,-0.128697794856,0.542154843293,13.1791337275,0.501883065118,0.00904908820971,0.334353122435,0.582437835493,19.5611283564,0.43312719879,0.012264438059,0.211164892566,0.5291164602,14.9775061913,0.48998142902,0.00380336537281,0.0159581326306,1.07615474665,18.2875840964,5
0.629972254236,0.00315446856702,-0.111156622414,0.195555543357,29.998308757,0.62891814832,0.000915532749785,-0.0531031075525,-0.221479847339,29.7331022199,0.629083792197,0.00344204236102,-0.0744553414797,-0.035869373967,29.9356924551,0.393497513528,0.00377031365936,-0.00918975050874,0.414261240426,11.8920251972,0.604248194279,0.000997523563495,-0.00524863116376,0.80504327439,27.4575077654,0.416756843464,0.0015730637817,0.0503111455854,-0.184025946734,13.1428767129,0.502921609566,0.0155386299433,-0.00618315289926,0.811974446644,20.1196195184,0.419502588063,0.0135387703803,0.445701938717,0.365317501632,14.2005506125,0.485516511248,0.00478673914746,0.0692641775103,-0.913616411898,18.033689899,5
0.62972570069,0.00228133495073,0.0193290343843,-0.10433446025,29.9104031445,0.628495688826,0.000801925267052,0.0392772520079,-0.271434072779,29.6848547852,0.629935429204,0.00270731809325,0.0169070958395,-0.381882612993,29.9617399114,0.397463596848,0.00394046157422,-0.0363250254856,0.249967453962,12.139892468,0.60665115147,0.00103360823133,-0.0120956823338,0.618046140739,27.6784084776,0.413240363505,0.00156414265302,0.0062184770133,-0.217904389108,12.9233164086,0.499572268435,0.0171723435281,0.0598202879361,0.61811186299,19.9886872753,0.421058480784,0.0133787424891,-0.185531735586,0.548307797828,14.2867952622,0.484613794567,0.00474629295553,-0.0770572891738,-0.88950542104,17.9650154201,5
0.627712628566,0.00215400607812,0.040328911601,-0.0257358459675,29.7111322543,0.628141444378,0.000742275338318,-0.00285227945146,-0.21870776813,29.6470539359,0.627469131945,0.00258839065102,0.0394660667892,-0.297947278257,29.720354274,0.396254399873,0.00399784687849,-0.026206659857,0.296378710093,12.0721568754,0.605328034786,0.00106189749524,-0.024757422317,0.698493354354,27.560232642,0.414020782663,0.00160197734031,-0.0557442573675,-0.269723282482,12.974536959,0.498069260535,0.0177599064907,-0.0811729811105,0.609413994485,19.9197072021,0.424442123563,0.013039798145,0.10782207422,0.486373894895,14.4762787818,0.483973840962,0.00475811446354,0.0918094694335,-0.862126770667,17.9194013755,5
0.629146969994,0.00227061160902,0.161089123702,-0.381094485863,29.854968498,0.628666506912,0.000815069123354,0.0907758771807,-0.475686036241,29.7019333836,0.628536923462,0.00250587989287,0.109800157723,-0.533575058941,29.8148349237,0.394293752097,0.00350973034796,0.130373076902,0.071304693429,11.9197872665,0.604740062235,0.000926977430119,0.0565570213826,0.464068480535,27.4968870452,0.415189495311,0.00146767575343,-0.061479829736,-0.102191198682,13.037281782,0.507730316365,0.0162475675257,-0.230142219137,0.782586653661,20.5365755586,0.425353075733,0.0111816557072,-0.0670493377089,0.316814770515,14.39683545,0.486247252289,0.00406996954432,-0.0773050941264,-0.975762218258,18.0339070232,5
0.626428489501,0.00235805123223,-0.0504985137813,-0.21384462583,29.6054447255,0.627481419753,0.000835375833422,-0.0261667112628,-0.321916876191,29.5917877219,0.627159677687,0.002693565019,-0.0629631381386,-0.376539019062,29.6990184101,0.396094719777,0.00274706379775,-0.0403738348472,0.470099593295,11.9701097487,0.605389268225,0.00071933033226,-0.0153938942995,1.04550911528,27.5404429007,0.414730871543,0.0011495982146,0.0354870266776,-0.320145217137,12.9851974537,0.49933791947,0.0119828088502,0.0352260790258,0.632926653331,19.5871046915,0.420658552623,0.0101761568102,0.156861563773,0.285142306449,14.024556946,0.483334342534,0.00404357988102,0.103159967166,-0.906277717376,17.8201314116,5
