sensorStatus,cap1,cap2,cap3,counter,microseconds_since_last_tick,accX,accY,accZ,gyroX,gyroY,gyroZ,magnetX,magnetY,magnetZ,day,hour,min,sec,msec,sync,battery_fuel,crc_good
2,30959,30274,31779,61364,39946,-3936,-405,-2270,-1958,-955,101,149,451,-303,1,0,40,56,40,0,53298,1
2,30960,30206,31780,61365,39950,-4455,-428,-2130,-2275,-1383,72,152,458,-316,1,0,40,56,80,0,53298,1
2,30987,30187,31798,61366,39955,-5108,-1075,-306,-6059,-4055,-1023,151,445,-305,1,0,40,56,120,0,53298,1
2,31003,30131,31791,61367,39960,-4020,-1450,-1479,-8053,-7229,-3167,154,450,-294,1,0,40,56,160,0,53298,1
2,31025,29981,31795,61368,39965,-3987,757,-2196,-2513,-5927,-3105,154,446,-272,1,0,40,56,200,0,53298,1
2,31018,29983,31795,61369,39971,-3364,596,-2400,-2106,-5109,-2280,162,450,-266,1,0,40,56,240,0,53298,1
2,30989,30086,31785,61370,39975,-3154,738,-2212,-930,-2917,-1039,165,451,-261,1,0,40,56,280,0,53298,1
2,30991,30025,31786,61371,39980,-3276,-195,-2366,-712,-133,125,169,445,-257,1,0,40,56,320,0,53298,1
2,31004,30060,31798,61372,39985,-4132,-557,-1631,1603,1467,175,159,449,-257,1,0,40,56,360,0,53298,1
2,31009,30080,31807,61373,39990,-4994,-380,-1489,2074,1497,-246,165,451,-269,1,0,40,56,400,0,53298,1
2,31008,30059,31800,61374,39996,-4399,-58,-1782,1761,1028,-430,174,446,-270,1,0,40,56,440,0,53298,1
1,31007,30052,31801,61375,0,-3880,-320,-1840,1472,1021,-500,157,455,-271,1,0,40,56,480,0,53298,1
1,31000,30036,31791,61376,5,-3955,-351,-1845,989,991,-511,169,455,-277,1,0,40,56,520,0,53298,1
1,30995,30026,31787,61377,10,-4146,-354,-1954,1007,981,-459,173,457,-277,1,0,40,56,560,0,53298,1
1,31010,30025,31789,61378,16,-4179,-370,-1913,775,734,-444,169,451,-279,1,0,40,56,600,0,53298,1
1,31012,30008,31794,61379,21,-4068,-407,-1907,756,380,-143,160,446,-274,1,0,40,56,640,0,53298,1
1,31006,30030,31789,61380,27,-4010,-360,-1980,546,124,72,165,451,-281,1,0,40,56,680,0,53298,1
1,31010,30020,31790,61381,33,-4067,-341,-1916,169,-95,44,171,443,-273,1,0,40,56,720,0,53298,1
1,30999,30020,31787,61382,38,-4116,-378,-1910,-178,-238,31,169,451,-267,1,0,40,56,760,0,53298,1
1,31003,30018,31788,61383,44,-4070,-382,-1870,-41,-274,26,166,464,-276,1,0,40,56,800,0,53298,1
1,31006,30025,31787,61384,50,-4067,-355,-1901,228,-211,44,167,455,-271,1,0,40,56,840,0,53298,1
1,31001,30021,31786,61385,56,-4092,-356,-1892,182,-118,3,165,451,-273,1,0,40,56,880,0,53298,1
1,31020,30017,31792,61386,62,-4077,-379,-1859,142,25,16,165,453,-277,1,0,40,56,920,0,53298,1
1,31005,30020,31788,61387,69,-4083,-391,-1859,215,240,55,171,449,-263,1,0,40,56,960,0,53298,1
1,31008,30036,31788,61388,0,-4079,-355,-1919,432,330,54,173,447,-279,1,0,40,57,0,0,53298,1
2,31004,30034,31784,61389,39447,-4056,-360,-1933,314,240,-25,170,454,-282,1,0,40,57,40,0,53298,1
2,31015,30037,31783,61390,39452,-4050,-378,-1942,83,77,-137,176,450,-282,1,0,40,57,80,0,53298,1
2,31007,30028,31785,61391,39457,-4064,-402,-1910,46,-75,-161,170,452,-280,1,0,40,57,120,0,53298,1
2,30994,30029,31785,61392,39464,-4088,-404,-1894,114,-71,-100,171,451,-279,1,0,40,57,160,0,53298,1
2,30990,30034,31782,61393,39469,-4071,-398,-1896,83,7,-28,168,456,-278,1,0,40,57,200,0,53298,1
2,30999,30019,31781,61394,39475,-4045,-391,-1908,71,94,28,172,448,-276,1,0,40,57,240,0,53298,1
2,31005,30015,31786,61395,39480,-4057,-374,-1910,85,123,16,167,453,-271,1,0,40,57,280,0,53298,1
2,30998,30009,31781,61396,39486,-4083,-401,-1914,78,112,-32,160,450,-270,1,0,40,57,320,0,53298,1
2,30987,30004,31782,61397,39492,-4041,-390,-1936,33,41,-49,167,451,-277,1,0,40,57,360,0,53298,1
2,30990,30029,31782,61398,39497,-4053,-395,-1916,4,-31,-46,165,453,-281,1,0,40,57,400,0,53298,1
2,30998,30028,31783,61399,39502,-4082,-416,-1895,-28,-28,9,173,457,-281,1,0,40,57,440,0,53298,1
2,30986,30014,31782,61400,39507,-4078,-410,-1919,-10,-6,88,170,452,-276,1,0,40,57,480,0,53298,1
2,30996,29999,31784,61401,39512,-4044,-388,-1933,9,-34,105,167,451,-269,1,0,40,57,520,0,53298,1
2,31000,30003,31784,61402,39517,-4061,-381,-1932,0,-50,64,168,450,-268,1,0,40,57,560,0,53298,1
2,30995,30027,31783,61403,39521,-4088,-400,-1928,-11,-49,-11,167,445,-279,1,0,40,57,600,0,53298,1
2,30999,30036,31779,61404,39526,-4059,-392,-1917,32,-47,-54,155,455,-275,1,0,40,57,640,0,53298,1
2,30986,30022,31782,61405,39531,-4063,-396,-1904,55,-17,-61,171,455,-281,1,0,40,57,680,0,53298,1
2,30998,30008,31780,61406,39535,-4067,-408,-1899,33,25,-45,174,456,-276,1,0,40,57,720,0,53298,1
2,31000,29999,31780,61407,39541,-4066,-403,-1912,54,34,-9,176,452,-280,1,0,40,57,760,0,53298,1
2,30991,29998,31785,61408,39546,-4072,-402,-1893,23,33,15,166,450,-280,1,0,40,57,800,0,53298,1
2,30997,29998,31778,61409,39551,-4072,-403,-1923,9,12,26,173,447,-277,1,0,40,57,840,0,53298,1
2,30973,29984,31777,61410,39555,-4061,-405,-1917,-2,-9,12,173,457,-279,1,0,40,57,880,0,53298,1
2,30981,29984,31776,61411,39559,-4062,-406,-1910,-1,-4,15,167,443,-281,1,0,40,57,920,0,53298,1
2,30991,29974,31780,61412,39564,-4065,-393,-1925,-17,-18,16,175,451,-271,1,0,40,57,960,0,53298,1
1,30994,29979,31779,61413,0,-4062,-397,-1924,-26,-25,11,167,443,-277,1,0,40,58,0,0,53298,1
2,30994,29985,31780,61414,38944,-4054,-400,-1912,8,-25,3,168,448,-270,1,0,40,58,40,0,53298,1
2,30994,29985,31780,61415,38950,-4062,-399,-1918,13,-1,-7,169,453,-273,1,0,40,58,80,0,53298,1
2,30989,29969,31780,61416,38956,-4057,-405,-1926,20,4,7,166,452,-276,1,0,40,58,120,0,53298,1
2,31002,29983,31784,61417,38961,-4045,-390,-1924,14,-3,29,170,450,-270,1,0,40,58,160,0,53298,1
2,30999,29981,31783,61418,38967,-4060,-402,-1916,-26,-9,40,168,442,-282,1,0,40,58,200,0,53298,1
2,31003,29983,31780,61419,38972,-4066,-405,-1933,-39,-22,42,161,447,-279,1,0,40,58,240,0,53298,1
2,30995,29980,31778,61420,38977,-4059,-388,-1904,-12,-63,48,170,448,-274,1,0,40,58,280,0,53298,1
2,30991,29985,31777,61421,38983,-4062,-385,-1914,-8,-64,15,167,449,-275,1,0,40,58,320,0,53298,1
2,30986,29981,31781,61422,38988,-4064,-407,-1912,-62,-67,-11,167,449,-281,1,0,40,58,360,0,53298,1
2,30994,29979,31784,61423,38993,-4058,-397,-1907,8,-57,-16,171,453,-273,1,0,40,58,400,0,53298,1
2,30981,29976,31780,61424,38998,-4056,-394,-1911,57,13,-16,167,451,-275,1,0,40,58,440,0,53298,1
2,30983,29975,31782,61425,39004,-4069,-412,-1914,4,59,21,161,451,-275,1,0,40,58,480,0,53298,1
2,30976,29971,31780,61426,39009,-4070,-398,-1927,1,53,55,172,456,-270,1,0,40,58,520,0,53298,1
2,30976,29974,31776,61427,39013,-4051,-380,-1917,-6,26,34,173,445,-279,1,0,40,58,560,0,53298,1
2,30983,29979,31775,61428,39018,-4072,-405,-1926,1,-44,4,173,459,-289,1,0,40,58,600,0,53298,1
2,30981,29975,31777,61429,39024,-4054,-385,-1905,2,-55,-14,169,449,-277,1,0,40,58,640,0,53298,1
2,30974,29968,31780,61430,39029,-4054,-406,-1923,-24,-33,3,172,450,-282,1,0,40,58,680,0,53298,1
2,30987,29969,31778,61431,39035,-4054,-401,-1924,3,-15,21,168,454,-272,1,0,40,58,720,0,53298,1
2,30980,29968,31776,61432,39041,-4061,-391,-1919,17,10,31,163,449,-269,1,0,40,58,760,0,53298,1
2,30980,29966,31776,61433,39047,-4065,-398,-1922,-13,16,30,173,445,-277,1,0,40,58,800,0,53298,1
2,30974,29967,31778,61434,39053,-4068,-409,-1924,5,-5,13,166,450,-272,1,0,40,58,840,0,53298,1
2,30981,29967,31778,61435,39059,-4060,-390,-1924,13,-5,9,171,451,-279,1,0,40,58,880,0,53298,1
2,30969,29960,31778,61436,39065,-4053,-406,-1915,-9,-12,20,167,445,-273,1,0,40,58,920,0,53298,1
2,30974,29961,31779,61437,39071,-4066,-405,-1921,-1,-3,28,175,447,-273,1,0,40,58,960,0,53298,1
1,30976,29957,31777,61438,0,-4064,-397,-1921,-15,-22,28,165,451,-273,1,0,40,59,0,1,53298,1
2,30986,29960,31780,61439,38445,-4061,-406,-1919,-27,-20,12,170,458,-274,1,0,40,59,40,1,53298,1
2,30977,29958,31780,61440,38451,-4071,-401,-1902,2,-32,12,180,448,-276,1,0,40,59,80,1,53298,1
2,30975,29956,31780,61441,38456,-4072,-399,-1918,-13,-9,6,167,449,-279,1,0,40,59,120,1,53298,1
2,30985,29956,31779,61442,38462,-4069,-401,-1919,-11,5,12,173,447,-281,1,0,40,59,160,1,53298,1
2,30976,29955,31780,61443,38467,-4054,-391,-1940,-4,7,16,172,462,-270,1,0,40,59,200,1,53298,1
2,30985,29950,31781,61444,38472,-4074,-401,-1906,15,-1,15,177,457,-275,1,0,40,59,240,1,53298,1
2,30979,29959,31782,61445,38477,-4061,-399,-1919,0,-18,16,162,454,-268,1,0,40,59,280,1,53298,1
2,30996,29956,31778,61446,38482,-4074,-405,-1908,-21,0,28,170,458,-278,1,0,40,59,320,1,53298,1
2,30985,29955,31779,61447,38487,-4053,-389,-1918,-6,-19,16,172,452,-272,1,0,40,59,360,1,53298,1
2,30979,29957,31779,61448,38492,-4053,-386,-1918,9,-10,10,169,449,-277,1,0,40,59,400,1,53298,1
2,30974,29956,31778,61449,38496,-4061,-390,-1921,-4,-1,-3,168,454,-274,1,0,40,59,440,1,53298,1
2,30979,29956,31779,61450,38501,-4064,-412,-1930,-4,0,6,170,452,-278,1,0,40,59,480,1,53298,1
2,30977,29958,31780,61451,38506,-4059,-389,-1922,10,2,9,174,448,-266,1,0,40,59,520,1,53298,1
2,30986,29955,31780,61452,38511,-4062,-406,-1909,11,-5,19,176,450,-274,1,0,40,59,560,1,53298,1
2,30990,29956,31776,61453,38516,-4066,-397,-1912,-26,-9,20,173,453,-275,1,0,40,59,600,1,53298,1
2,30989,29960,31781,61454,38521,-4057,-397,-1925,-8,-18,12,168,454,-270,1,0,40,59,640,1,53298,1
2,30987,29956,31777,61455,38526,-4068,-398,-1921,4,-23,7,176,446,-276,1,0,40,59,680,1,53298,1
2,30979,29952,31776,61456,38532,-4063,-399,-1908,-7,-12,-3,171,443,-277,1,0,40,59,720,1,53298,1
2,30975,29954,31778,61457,38538,-4074,-404,-1924,6,-14,10,166,444,-272,1,0,40,59,760,1,53298,1
2,30977,29956,31778,61458,38543,-4047,-404,-1924,-12,-7,15,172,452,-284,1,0,40,59,800,1,53298,1
2,30984,29958,31776,61459,38549,-4067,-400,-1924,-5,4,25,168,452,-276,1,0,40,59,840,1,53298,1
2,30979,29959,31775,61460,38554,-4069,-407,-1918,6,-10,20,167,443,-273,1,0,40,59,880,1,53298,1
2,30978,29962,31777,61461,38559,-4058,-408,-1926,-13,-10,11,177,449,-279,1,0,40,59,920,1,53298,1
2,30976,29963,31778,61462,38565,-4060,-407,-1923,-3,-9,12,169,451,-277,1,0,40,59,960,1,53298,1
1,30985,29964,31776,61463,0,-4059,-404,-1912,16,-5,17,170,458,-278,1,0,41,0,0,1,53298,1
2,30977,29963,31775,61464,37943,-4063,-404,-1924,-7,-12,17,167,451,-277,1,0,41,0,40,1,53298,1
2,30970,29952,31773,61465,37949,-4060,-405,-1931,-7,-13,15,165,449,-269,1,0,41,0,80,1,53298,1
2,30978,29962,31775,61466,37953,-4062,-404,-1910,-11,-27,8,169,455,-269,1,0,41,0,120,1,53298,1
2,30970,29962,31775,61467,37959,-4065,-413,-1904,-1,-27,10,170,448,-268,1,0,41,0,160,1,53298,1
2,30972,29958,31771,61468,37964,-4065,-406,-1922,0,-9,26,168,446,-272,1,0,41,0,200,1,53298,1
2,30971,29963,31768,61469,37970,-4062,-404,-1912,-5,-13,21,163,451,-275,1,0,41,0,240,1,53298,1
2,30976,29959,31773,61470,37976,-4060,-402,-1921,-12,-12,22,176,446,-278,1,0,41,0,280,1,53298,1
2,30973,29956,31777,61471,37982,-4077,-399,-1926,2,-13,4,169,451,-269,1,0,41,0,320,1,53298,1
2,30967,29955,31777,61472,37988,-4063,-403,-1920,-2,-9,3,164,452,-260,1,0,41,0,360,1,53298,1
2,30961,29964,31776,61473,37993,-4054,-399,-1908,-11,3,6,162,454,-270,1,0,41,0,400,1,53298,1
2,30962,29959,31774,61474,37999,-4073,-409,-1921,7,5,21,168,458,-274,1,0,41,0,440,1,53298,1
2,30967,29961,31778,61475,38004,-4061,-403,-1925,-7,-5,15,174,450,-284,1,0,41,0,480,1,53298,1
2,30963,29956,31777,61476,38010,-4064,-395,-1923,0,-11,18,169,453,-281,1,0,41,0,520,1,53298,1
2,30960,29957,31774,61477,38015,-4071,-407,-1918,2,-18,7,169,453,-281,1,0,41,0,560,1,53298,1
2,30964,29959,31777,61478,38020,-4054,-400,-1926,-2,-9,15,166,452,-270,1,0,41,0,600,1,53298,1
2,30970,29962,31779,61479,38026,-4062,-399,-1909,0,2,12,161,447,-267,1,0,41,0,640,1,53298,1
2,30967,29956,31772,61480,38032,-4053,-399,-1929,-5,10,20,163,453,-279,1,0,41,0,680,1,53298,1
2,30971,29953,31774,61481,38037,-4072,-406,-1918,14,5,5,172,454,-284,1,0,41,0,720,1,53298,1
2,30975,29950,31772,61482,38043,-4050,-388,-1920,17,-15,-2,167,457,-279,1,0,41,0,760,1,53298,1
2,30973,29957,31776,61483,38048,-4065,-407,-1922,-3,-18,3,167,453,-269,1,0,41,0,800,1,53298,1
2,30971,29949,31775,61484,38053,-4055,-397,-1924,-10,-26,11,166,450,-270,1,0,41,0,840,1,53298,1
2,30974,29949,31774,61485,38059,-4064,-398,-1934,-7,-15,22,164,450,-260,1,0,41,0,880,1,53298,1
2,30962,29952,31770,61486,38065,-4065,-398,-1919,-11,-3,17,169,453,-279,1,0,41,0,920,1,53298,1
2,30965,29952,31778,61487,38071,-4058,-397,-1916,-10,-10,20,169,453,-279,1,0,41,0,960,1,53298,1
1,30978,29954,31770,61488,0,-4070,-402,-1921,10,-3,14,167,457,-275,1,0,41,1,0,0,53298,1
2,30975,29948,31771,61489,37443,-4069,-399,-1906,5,-9,8,162,450,-268,1,0,41,1,40,0,53298,1
2,30973,29953,31775,61490,37448,-4062,-396,-1919,-3,-16,12,173,457,-277,1,0,41,1,80,0,53298,1
2,30970,29956,31776,61491,37454,-4057,-392,-1908,1,-12,19,167,449,-277,1,0,41,1,120,0,53298,1
2,30965,29955,31773,61492,37459,-4069,-405,-1930,-17,-20,21,168,446,-278,1,0,41,1,160,0,53298,1
2,30966,29956,31768,61493,37465,-4061,-395,-1930,-2,-20,27,175,457,-281,1,0,41,1,200,0,53298,1
2,30962,29952,31771,61494,37469,-4067,-389,-1915,-1,-21,13,171,449,-283,1,0,41,1,240,0,53298,1
2,30975,29953,31775,61495,37473,-4065,-408,-1927,-9,-10,7,167,447,-279,1,0,41,1,280,0,53298,1
2,30972,29954,31775,61496,37478,-4060,-399,-1918,-6,-20,17,167,459,-283,1,0,41,1,320,0,53298,1
2,30985,29955,31773,61497,37483,-4068,-395,-1930,-8,-11,35,162,446,-274,1,0,41,1,360,0,53298,1
2,30975,29958,31770,61498,37488,-4074,-407,-1915,-1,-5,14,172,444,-274,1,0,41,1,400,0,53298,1
2,30972,29955,31778,61499,37493,-4068,-404,-1926,5,-6,7,168,458,-286,1,0,41,1,440,0,53298,1
2,30975,29953,31775,61500,37498,-4064,-401,-1931,1,-18,4,169,451,-273,1,0,41,1,480,0,53298,1
2,30968,29952,31773,61501,37503,-4062,-400,-1921,-18,-18,20,167,449,-267,1,0,41,1,520,0,53298,1
2,30967,29955,31775,61502,37508,-4071,-404,-1920,-15,-25,27,170,460,-276,1,0,41,1,560,0,53298,1
2,30984,29953,31773,61503,37513,-4063,-400,-1924,-4,-22,21,173,445,-279,1,0,41,1,600,0,53298,1
2,30978,29949,31773,61504,37518,-4054,-392,-1928,-6,-8,22,167,451,-267,1,0,41,1,640,0,53298,1
2,30974,29954,31775,61505,37523,-4065,-404,-1923,-10,2,13,171,457,-269,1,0,41,1,680,0,53298,1
2,30970,29951,31775,61506,37528,-4056,-408,-1927,14,-13,7,161,449,-275,1,0,41,1,720,0,53298,1
2,30974,29953,31777,61507,37533,-4073,-418,-1913,-3,-20,19,166,446,-270,1,0,41,1,760,0,53298,1
2,30966,29953,31768,61508,37539,-4070,-414,-1940,-27,-30,21,164,446,-276,1,0,41,1,800,0,53298,1
2,30963,29960,31772,61509,37545,-4068,-400,-1916,-20,-35,22,176,440,-270,1,0,41,1,840,0,53298,1
2,30968,29958,31774,61510,37550,-4063,-400,-1928,-9,-21,15,170,446,-280,1,0,41,1,880,0,53298,1
2,30970,29954,31774,61511,37556,-4060,-400,-1919,18,1,2,172,450,-272,1,0,41,1,920,0,53298,1
2,30969,29955,31772,61512,37561,-4059,-394,-1916,7,12,10,169,449,-277,1,0,41,1,960,0,53298,1
1,30964,29947,31768,61513,0,-4055,-397,-1928,-21,1,20,172,450,-276,1,0,41,2,0,0,53298,1
2,30975,29955,31774,61514,36941,-4061,-389,-1919,-1,-18,31,175,451,-283,1,0,41,2,40,0,53298,1
2,30970,29956,31777,61515,36946,-4073,-405,-1927,-15,-13,24,163,453,-281,1,0,41,2,80,0,53298,1
2,30968,29955,31774,61516,36951,-4056,-401,-1932,-5,-32,9,161,449,-269,1,0,41,2,120,0,53298,1
2,30980,29958,31777,61517,36956,-4059,-400,-1912,-13,-34,2,174,448,-282,1,0,41,2,160,0,53298,1
2,30963,29955,31774,61518,36961,-4064,-404,-1912,-13,-5,15,171,455,-273,1,0,41,2,200,0,53298,1
2,30969,29961,31776,61519,36966,-4076,-403,-1918,16,22,37,163,453,-273,1,0,41,2,240,0,53298,1
2,30965,29957,31773,61520,36971,-4058,-396,-1921,-19,-5,17,167,445,-279,1,0,41,2,280,0,53298,1
2,30964,29956,31775,61521,36975,-4054,-401,-1932,-35,-38,9,175,451,-275,1,0,41,2,320,0,53298,1
2,30967,29953,31769,61522,36980,-4070,-399,-1912,-17,-53,2,165,449,-277,1,0,41,2,360,0,53298,1
2,30960,29955,31776,61523,36985,-4061,-398,-1920,24,-22,3,172,450,-280,1,0,41,2,400,0,53298,1
2,30968,29955,31773,61524,36989,-4068,-405,-1909,-2,21,5,174,446,-278,1,0,41,2,440,0,53298,1
2,30969,29959,31770,61525,36994,-4074,-397,-1917,-6,22,14,174,448,-284,1,0,41,2,480,0,53298,1
2,30971,29955,31774,61526,36998,-4059,-411,-1914,10,-8,23,174,452,-274,1,0,41,2,520,0,53298,1
2,30979,29955,31775,61527,37003,-4067,-406,-1920,13,-30,11,169,451,-283,1,0,41,2,560,0,53298,1
2,30970,29955,31771,61528,37008,-4060,-401,-1920,-9,-38,8,171,453,-285,1,0,41,2,600,0,53298,1
2,30971,29956,31776,61529,37014,-4057,-397,-1914,-16,-25,18,170,452,-284,1,0,41,2,640,0,53298,1
2,30970,29957,31768,61530,37019,-4067,-408,-1910,6,9,11,175,451,-277,1,0,41,2,680,0,53298,1
2,30972,29956,31771,61531,37025,-4061,-402,-1929,32,14,2,165,455,-271,1,0,41,2,720,0,53298,1
2,30965,29959,31771,61532,37031,-4056,-396,-1916,26,14,-4,166,446,-266,1,0,41,2,760,0,53298,1
2,30970,29960,31770,61533,37036,-4064,-392,-1921,17,12,-11,175,449,-287,1,0,41,2,800,0,53298,1
2,30970,29950,31771,61534,37042,-4066,-400,-1926,15,-2,-10,164,456,-270,1,0,41,2,840,0,53298,1
2,30965,29955,31770,61535,37047,-4068,-415,-1909,4,-10,4,174,456,-278,1,0,41,2,880,0,53298,1
2,30968,29952,31772,61536,37052,-4045,-401,-1922,-2,6,31,168,458,-270,1,0,41,2,920,0,53298,1
2,30964,29954,31773,61537,37057,-4067,-404,-1913,21,15,35,170,450,-284,1,0,41,2,960,0,53298,1
1,30965,29959,31772,61538,0,-4067,-407,-1935,9,17,18,173,449,-275,1,0,41,3,0,0,53298,1
2,30973,29961,31770,61539,36442,-4068,-407,-1929,-9,-3,-4,166,446,-284,1,0,41,3,40,0,53298,1
2,30963,29956,31773,61540,36449,-4069,-417,-1930,17,-27,-14,160,440,-280,1,0,41,3,80,0,53298,1
2,30972,29958,31773,61541,36455,-4056,-407,-1915,8,-31,3,168,452,-278,1,0,41,3,120,0,53298,1
2,30970,29958,31772,61542,36460,-4064,-407,-1912,-13,-34,23,171,453,-277,1,0,41,3,160,0,53298,1
2,30975,29957,31772,61543,36466,-4058,-398,-1924,-25,-17,38,171,449,-269,1,0,41,3,200,0,53298,1
2,30962,29949,31773,61544,36472,-4055,-398,-1920,-12,-3,28,170,450,-272,1,0,41,3,240,0,53298,1
2,30965,29949,31768,61545,36477,-4058,-396,-1926,9,-9,11,168,452,-280,1,0,41,3,280,0,53298,1
2,30972,29949,31772,61546,36483,-4064,-414,-1918,4,-6,8,164,462,-266,1,0,41,3,320,0,53298,1
2,30960,29950,31768,61547,36489,-4045,-401,-1921,-10,-25,4,167,453,-277,1,0,41,3,360,0,53298,1
2,30971,29952,31774,61548,36494,-4065,-407,-1927,-17,-15,31,166,448,-268,1,0,41,3,400,0,53298,1
2,30960,29948,31772,61549,36499,-4065,-396,-1919,6,-16,25,178,452,-282,1,0,41,3,440,0,53298,1
2,30960,29958,31770,61550,36505,-4051,-386,-1929,9,-14,10,171,451,-277,1,0,41,3,480,0,53298,1
2,30960,29950,31772,61551,36511,-4081,-426,-1932,-8,-16,1,166,446,-274,1,0,41,3,520,0,53298,1
2,30967,29952,31771,61552,36517,-4053,-406,-1912,0,-18,16,165,461,-285,1,0,41,3,560,0,53298,1
2,30952,29950,31770,61553,36523,-4049,-400,-1925,0,-8,22,169,445,-283,1,0,41,3,600,0,53298,1
2,30953,29950,31768,61554,36528,-4062,-407,-1919,-15,-13,14,171,449,-273,1,0,41,3,640,0,53298,1
2,30962,29949,31768,61555,36534,-4073,-404,-1924,1,-8,19,163,449,-283,1,0,41,3,680,0,53298,1
2,30960,29951,31773,61556,36540,-4066,-410,-1927,7,1,9,162,458,-270,1,0,41,3,720,0,53298,1
2,30959,29951,31766,61557,36547,-4065,-405,-1923,16,-6,3,160,446,-278,1,0,41,3,760,0,53298,1
2,30960,29951,31768,61558,36553,-4050,-395,-1920,1,-6,14,164,460,-270,1,0,41,3,800,0,53298,1
2,30953,29947,31769,61559,36559,-4058,-404,-1919,-15,-9,24,171,453,-287,1,0,41,3,840,0,53298,1
2,30959,29955,31768,61560,36565,-4066,-401,-1920,-1,-24,25,167,449,-279,1,0,41,3,880,0,53298,1
2,30965,29955,31768,61561,36572,-4063,-397,-1924,-9,-11,14,172,456,-276,1,0,41,3,920,0,53298,1
2,30960,29948,31765,61562,36578,-4058,-395,-1922,-6,-8,8,172,450,-278,1,0,41,3,960,0,53298,1
1,30954,29948,31765,61563,0,-4074,-417,-1919,13,0,8,160,456,-272,1,0,41,4,0,1,53298,1
2,30959,29954,31765,61564,35941,-4064,-413,-1910,1,-10,16,172,454,-272,1,0,41,4,40,1,53298,1
2,30957,29950,31767,61565,35948,-4063,-399,-1928,-9,-16,11,164,444,-278,1,0,41,4,80,1,53298,1
2,30952,29954,31766,61566,35954,-4067,-414,-1922,-14,-15,13,169,447,-279,1,0,41,4,120,1,53298,1
2,30951,29954,31764,61567,35962,-4071,-410,-1926,3,-15,17,168,442,-276,1,0,41,4,160,1,53298,1
2,30955,29950,31767,61568,35968,-4060,-412,-1934,2,-9,10,165,449,-273,1,0,41,4,200,1,53298,1
2,30956,29946,31768,61569,35975,-4053,-401,-1918,-6,-14,4,167,449,-279,1,0,41,4,240,1,53298,1
2,30953,29951,31761,61570,35981,-4071,-415,-1916,-1,-14,19,170,448,-278,1,0,41,4,280,1,53298,1
2,30949,29950,31763,61571,35988,-4057,-404,-1922,-13,-17,27,165,457,-275,1,0,41,4,320,1,53298,1
2,30945,29956,31763,61572,35995,-4061,-408,-1922,-2,-21,22,163,441,-273,1,0,41,4,360,1,53298,1
2,30945,29957,31764,61573,36003,-4068,-405,-1918,-22,-9,14,167,457,-271,1,0,41,4,400,1,53298,1
2,30953,29955,31763,61574,36010,-4056,-402,-1928,-1,-3,16,168,442,-266,1,0,41,4,440,1,53298,1
2,30952,29957,31764,61575,36018,-4056,-400,-1919,12,-3,14,170,454,-274,1,0,41,4,480,1,53298,1
2,30953,29958,31764,61576,36025,-4078,-413,-1924,-27,-27,2,180,450,-274,1,0,41,4,520,1,53298,1
2,30940,29973,31764,61577,36032,-4061,-411,-1913,0,-42,13,170,444,-284,1,0,41,4,560,1,53298,1
2,30950,29971,31768,61578,36040,-4048,-397,-1920,-27,-34,12,169,457,-269,1,0,41,4,600,1,53298,1
2,30945,29968,31763,61579,36046,-4059,-417,-1926,-20,-25,22,170,454,-280,1,0,41,4,640,1,53298,1
2,30943,29979,31761,61580,36053,-4068,-396,-1920,38,-19,25,168,456,-286,1,0,41,4,680,1,53298,1
2,30952,29974,31763,61581,36059,-4060,-411,-1923,-19,1,4,170,448,-274,1,0,41,4,720,1,53298,1
2,30954,29976,31760,61582,36064,-4067,-408,-1917,9,1,6,170,450,-282,1,0,41,4,760,1,53298,1
2,30949,29999,31763,61583,36069,-4072,-414,-1913,-2,-6,17,175,449,-275,1,0,41,4,800,1,53298,1
2,30947,29975,31760,61584,36075,-4054,-398,-1915,16,3,24,164,450,-280,1,0,41,4,840,1,53298,1
2,30946,29982,31761,61585,36081,-4074,-410,-1916,-2,3,10,169,455,-271,1,0,41,4,880,1,53298,1
2,30940,29997,31760,61586,36087,-4057,-406,-1936,6,-19,0,172,452,-274,1,0,41,4,920,1,53298,1
2,30942,29995,31759,61587,36093,-4052,-398,-1913,1,-10,1,164,442,-264,1,0,41,4,960,1,53298,1
1,30944,30024,31760,61588,0,-4059,-409,-1937,-9,-11,23,173,453,-283,1,0,41,5,0,0,53298,1
2,30945,30012,31757,61589,35441,-4052,-394,-1916,-6,-9,21,172,446,-282,1,0,41,5,40,0,53298,1
2,30937,30003,31760,61590,35447,-4059,-419,-1925,-14,-20,20,169,459,-279,1,0,41,5,80,0,53298,1
2,30940,30002,31756,61591,35453,-4067,-417,-1919,-7,-9,19,165,455,-275,1,0,41,5,120,0,53298,1
2,30939,29994,31760,61592,35459,-4059,-400,-1925,-5,-8,11,172,442,-278,1,0,41,5,160,0,53298,1
2,30933,29987,31760,61593,35465,-4076,-413,-1907,0,-3,8,166,452,-278,1,0,41,5,200,0,53298,1
2,30936,30005,31759,61594,35471,-4056,-404,-1923,0,-2,8,168,458,-280,1,0,41,5,240,0,53298,1
2,30942,30002,31758,61595,35476,-4056,-404,-1917,-6,-9,20,168,450,-278,1,0,41,5,280,0,53298,1
2,30947,30015,31764,61596,35482,-4048,-398,-1921,-16,-21,16,164,454,-274,1,0,41,5,320,0,53298,1
2,30928,30019,31761,61597,35489,-4072,-407,-1920,-4,-16,27,161,447,-277,1,0,41,5,360,0,53298,1
2,30936,30004,31761,61598,35496,-4062,-398,-1928,-14,-10,13,168,456,-280,1,0,41,5,400,0,53298,1
2,30935,30020,31757,61599,35502,-4072,-417,-1920,0,-12,5,159,449,-271,1,0,41,5,440,0,53298,1
2,30931,30009,31757,61600,35509,-4065,-404,-1933,10,-3,11,167,457,-277,1,0,41,5,480,0,53298,1
2,30938,30005,31763,61601,35515,-4058,-411,-1936,-11,-4,12,169,443,-279,1,0,41,5,520,0,53298,1
2,30935,29984,31760,61602,35521,-4061,-410,-1908,-6,-19,15,173,447,-277,1,0,41,5,560,0,53298,1
2,30934,29976,31755,61603,35526,-4062,-403,-1913,-18,-6,24,171,451,-283,1,0,41,5,600,0,53298,1
2,30939,29999,31755,61604,35533,-4059,-397,-1927,-1,-14,15,173,451,-277,1,0,41,5,640,0,53298,1
2,30941,30003,31758,61605,35540,-4070,-417,-1924,12,-11,7,164,448,-280,1,0,41,5,680,0,53298,1
2,30942,30002,31756,61606,35546,-4053,-399,-1928,-3,-15,5,163,455,-265,1,0,41,5,720,0,53298,1
2,30933,30021,31759,61607,35552,-4068,-406,-1918,-3,-18,17,168,452,-270,1,0,41,5,760,0,53298,1
2,30946,30000,31758,61608,35559,-4057,-399,-1927,-14,-10,22,173,451,-291,1,0,41,5,800,0,53298,1
2,30934,30001,31759,61609,35566,-4072,-418,-1918,-21,-17,20,168,452,-276,1,0,41,5,840,0,53298,1
2,30946,30049,31755,61610,35573,-4062,-395,-1913,-15,-16,21,170,444,-278,1,0,41,5,880,0,53298,1
2,30948,30019,31760,61611,35580,-4059,-418,-1927,10,1,7,174,456,-284,1,0,41,5,920,0,53298,1
2,30938,30038,31759,61612,35587,-4068,-408,-1911,-3,-5,0,171,455,-283,1,0,41,5,960,0,53298,1
1,30942,30034,31759,61613,0,-4073,-414,-1922,0,-18,6,175,453,-277,1,0,41,6,0,0,53298,1
2,30942,30041,31760,61614,34942,-4064,-396,-1925,-11,-14,26,168,458,-284,1,0,41,6,40,0,53298,1
2,30950,30043,31758,61615,34950,-4062,-398,-1919,-27,-21,23,166,444,-270,1,0,41,6,80,0,53298,1
2,30946,30025,31758,61616,34957,-4055,-401,-1909,-12,-15,18,166,450,-278,1,0,41,6,120,0,53298,1
2,30931,30031,31758,61617,34964,-4062,-398,-1924,2,-4,6,172,446,-280,1,0,41,6,160,0,53298,1
2,30935,30019,31756,61618,34971,-4063,-400,-1917,-6,-9,9,167,455,-271,1,0,41,6,200,0,53298,1
2,30929,30046,31755,61619,34977,-4060,-407,-1927,-15,-13,7,168,456,-274,1,0,41,6,240,0,53298,1
2,30934,30041,31758,61620,34983,-4057,-402,-1911,3,-9,23,170,456,-278,1,0,41,6,280,0,53298,1
2,30931,30037,31755,61621,34990,-4073,-420,-1920,-5,4,17,169,453,-275,1,0,41,6,320,0,53298,1
2,30937,30054,31757,61622,34996,-4058,-412,-1925,17,-16,6,181,447,-277,1,0,41,6,360,0,53298,1
2,30923,30068,31756,61623,35003,-4076,-412,-1921,-4,-18,0,165,451,-281,1,0,41,6,400,0,53298,1
2,30933,30095,31754,61624,35009,-4066,-416,-1926,3,-21,11,171,447,-263,1,0,41,6,440,0,53298,1
2,30934,30099,31756,61625,35014,-4062,-411,-1920,3,-21,16,168,458,-278,1,0,41,6,480,0,53298,1
2,30938,30081,31752,61626,35021,-4063,-409,-1926,-14,-13,23,171,443,-277,1,0,41,6,520,0,53298,1
2,30928,30114,31755,61627,35027,-4063,-408,-1921,-22,-5,29,165,451,-277,1,0,41,6,560,0,53298,1
2,30935,30108,31758,61628,35034,-4080,-405,-1910,4,-1,18,171,451,-279,1,0,41,6,600,0,53298,1
2,30938,30121,31755,61629,35040,-4055,-404,-1925,14,5,2,167,455,-281,1,0,41,6,640,0,53298,1
2,30930,30088,31757,61630,35046,-4060,-410,-1921,3,-14,4,169,451,-265,1,0,41,6,680,0,53298,1
2,30933,30095,31757,61631,35052,-4070,-418,-1930,-2,-8,12,171,445,-277,1,0,41,6,720,0,53298,1
2,30944,30134,31751,61632,35058,-4059,-410,-1928,-8,-18,26,162,446,-278,1,0,41,6,760,0,53298,1
2,30939,30069,31756,61633,35064,-4061,-409,-1915,-15,-25,22,175,447,-279,1,0,41,6,800,0,53298,1
2,30941,30071,31757,61634,35071,-4072,-419,-1915,-9,-21,6,173,455,-279,1,0,41,6,840,0,53298,1
2,30943,30060,31758,61635,35078,-4054,-389,-1917,-8,-14,8,175,455,-283,1,0,41,6,880,0,53298,1
2,30944,30059,31757,61636,35085,-4054,-408,-1918,4,-16,12,167,451,-279,1,0,41,6,920,0,53298,1
2,30938,30081,31755,61637,35092,-4067,-410,-1926,-5,9,15,168,448,-278,1,0,41,6,960,0,53298,1
1,30932,30092,31756,61638,0,-4050,-398,-1925,1,-8,8,176,454,-276,1,0,41,7,0,1,53298,1
2,30935,30101,31761,61639,34441,-4067,-418,-1925,-17,-35,9,164,454,-276,1,0,41,7,40,1,53298,1
2,30935,30105,31761,61640,34448,-4061,-413,-1925,-12,-27,14,168,452,-272,1,0,41,7,80,1,53298,1
2,30942,30162,31757,61641,34455,-4053,-403,-1935,27,2,14,171,447,-287,1,0,41,7,120,1,53298,1
2,30941,30289,31756,61642,34461,-4064,-414,-1929,6,23,12,169,457,-271,1,0,41,7,160,1,53298,1
2,30955,30117,31760,61643,34468,-4066,-423,-1913,-4,4,12,169,449,-275,1,0,41,7,200,1,53298,1
2,30944,30136,31756,61644,34475,-4065,-405,-1923,-20,-25,21,165,461,-277,1,0,41,7,240,1,53298,1
2,30947,30149,31759,61645,34481,-4080,-424,-1926,4,-49,15,164,450,-272,1,0,41,7,280,1,53298,1
2,30941,30129,31758,61646,34488,-4059,-406,-1920,12,-27,8,172,446,-272,1,0,41,7,320,1,53298,1
2,30928,30130,31760,61647,34495,-4054,-413,-1929,-1,-7,5,177,451,-275,1,0,41,7,360,1,53298,1
2,30939,30139,31754,61648,34501,-4062,-404,-1917,31,11,5,171,449,-271,1,0,41,7,400,1,53298,1
2,30942,30135,31755,61649,34507,-4057,-400,-1917,9,8,8,171,449,-275,1,0,41,7,440,1,53298,1
2,30933,30185,31756,61650,34514,-4057,-409,-1929,-12,-9,10,175,441,-275,1,0,41,7,480,1,53298,1
2,30940,30191,31756,61651,34519,-4061,-403,-1934,-11,-21,13,166,456,-276,1,0,41,7,520,1,53298,1
2,30940,30141,31756,61652,34525,-4057,-408,-1929,-24,-31,19,168,458,-272,1,0,41,7,560,1,53298,1
2,30936,30147,31754,61653,34531,-4057,-410,-1919,-20,-11,26,164,450,-276,1,0,41,7,600,1,53298,1
2,30939,30105,31751,61654,34538,-4074,-410,-1927,5,-6,26,169,443,-273,1,0,41,7,640,1,53298,1
2,30932,30127,31755,61655,34544,-4054,-394,-1922,22,-9,0,169,445,-283,1,0,41,7,680,1,53298,1
2,30941,30137,31757,61656,34550,-4059,-409,-1913,11,-8,-3,169,455,-279,1,0,41,7,720,1,53298,1
2,30939,30140,31751,61657,34556,-4078,-422,-1919,-2,-4,12,167,453,-273,1,0,41,7,760,1,53298,1
2,30931,30121,31758,61658,34562,-4056,-400,-1933,-7,-13,21,177,451,-283,1,0,41,7,800,1,53298,1
2,30932,30153,31755,61659,34568,-4073,-415,-1929,-22,-24,19,172,450,-276,1,0,41,7,840,1,53298,1
2,30939,30158,31751,61660,34574,-4061,-406,-1924,-16,-23,23,177,449,-275,1,0,41,7,880,1,53298,1
2,30936,30124,31754,61661,34579,-4062,-405,-1928,-13,-15,12,170,458,-280,1,0,41,7,920,1,53298,1
2,30945,30119,31759,61662,34586,-4064,-396,-1919,-13,-5,13,169,449,-275,1,0,41,7,960,1,53298,1
1,30949,30142,31757,61663,0,-4068,-413,-1915,-3,8,3,178,454,-284,1,0,41,8,0,1,53298,1
2,30939,30179,31755,61664,33941,-4064,-412,-1930,-5,-9,10,165,449,-275,1,0,41,8,40,1,53298,1
2,30929,30133,31758,61665,33946,-4069,-412,-1927,-4,-20,20,167,447,-267,1,0,41,8,80,1,53298,1
2,30931,30110,31754,61666,33952,-4054,-402,-1923,-10,-30,22,168,454,-256,1,0,41,8,120,1,53298,1
2,30941,30103,31755,61667,33958,-4072,-414,-1928,2,-36,15,178,450,-280,1,0,41,8,160,1,53298,1
2,30936,30119,31754,61668,33964,-4061,-406,-1923,-3,-19,9,177,449,-279,1,0,41,8,200,1,53298,1
2,30937,30152,31758,61669,33969,-4064,-407,-1914,2,-15,7,166,452,-272,1,0,41,8,240,1,53298,1
2,30937,30127,31755,61670,33975,-4070,-410,-1923,3,-3,18,172,450,-280,1,0,41,8,280,1,53298,1
2,30939,30120,31755,61671,33982,-4071,-406,-1930,-3,5,19,165,455,-271,1,0,41,8,320,1,53298,1
2,30933,30137,31752,61672,33987,-4044,-392,-1916,1,-7,3,170,454,-276,1,0,41,8,360,1,53298,1
2,30935,30154,31754,61673,33993,-4061,-417,-1924,1,-18,2,167,445,-277,1,0,41,8,400,1,53298,1
2,30933,30145,31753,61674,33999,-4071,-425,-1921,-4,-19,14,175,449,-279,1,0,41,8,440,1,53298,1
2,30934,30154,31751,61675,34005,-4055,-404,-1922,-6,-24,27,166,458,-278,1,0,41,8,480,1,53298,1
2,30933,30128,31755,61676,34010,-4065,-406,-1926,-17,-15,19,169,459,-279,1,0,41,8,520,1,53298,1
2,30931,30171,31754,61677,34016,-4055,-400,-1927,-13,-15,23,177,455,-277,1,0,41,8,560,1,53298,1
2,30940,30157,31756,61678,34022,-4071,-407,-1920,0,-9,16,158,448,-272,1,0,41,8,600,1,53298,1
2,30932,30107,31751,61679,34028,-4046,-404,-1928,-8,2,1,168,452,-288,1,0,41,8,640,1,53298,1
2,30943,30097,31754,61680,34033,-4061,-410,-1916,-12,6,1,169,457,-271,1,0,41,8,680,1,53298,1
2,30944,30127,31754,61681,34039,-4067,-417,-1921,-20,-15,5,171,449,-281,1,0,41,8,720,1,53298,1
2,30950,30164,31757,61682,34045,-4060,-398,-1936,-16,-29,17,170,450,-266,1,0,41,8,760,1,53298,1
2,30943,30180,31755,61683,34052,-4068,-419,-1913,2,-33,29,163,449,-275,1,0,41,8,800,1,53298,1
2,30948,30150,31755,61684,34058,-4062,-397,-1925,5,-8,22,168,450,-286,1,0,41,8,840,1,53298,1
2,30948,30131,31758,61685,34065,-4069,-412,-1925,2,3,9,169,453,-275,1,0,41,8,880,1,53298,1
2,30943,30150,31750,61686,34071,-4053,-411,-1916,-1,-8,5,159,443,-273,1,0,41,8,920,1,53298,1
2,30945,30118,31752,61687,34078,-4061,-416,-1932,-6,-21,16,169,457,-277,1,0,41,8,960,1,53298,1
1,30947,30157,31754,61688,0,-4056,-402,-1917,-10,-38,25,162,450,-280,1,0,41,9,0,1,53298,1
2,30945,30163,31755,61689,33442,-4070,-405,-1920,-18,-15,29,165,455,-277,1,0,41,9,40,1,53298,1
2,30949,30088,31751,61690,33448,-4054,-411,-1910,8,-12,10,172,448,-282,1,0,41,9,80,1,53298,1
2,30951,30120,31751,61691,33455,-4075,-414,-1910,5,-8,-3,173,451,-277,1,0,41,9,120,1,53298,1
2,30948,30143,31759,61692,33462,-4057,-415,-1925,-2,-10,5,160,448,-280,1,0,41,9,160,1,53298,1
2,30940,30150,31756,61693,33469,-4069,-416,-1932,-7,-12,21,169,453,-281,1,0,41,9,200,1,53298,1
2,30943,30138,31753,61694,33475,-4068,-422,-1929,-7,-16,22,174,442,-282,1,0,41,9,240,1,53298,1
2,30941,30139,31753,61695,33481,-4069,-404,-1917,-23,-11,23,166,450,-278,1,0,41,9,280,1,53298,1
2,30943,30135,31752,61696,33486,-4073,-414,-1929,-13,-7,13,170,446,-274,1,0,41,9,320,1,53298,1
2,30935,30123,31753,61697,33492,-4059,-409,-1926,6,-10,4,164,444,-282,1,0,41,9,360,1,53298,1
2,30941,30249,31750,61698,33499,-4062,-403,-1924,-3,-15,11,169,453,-277,1,0,41,9,400,1,53298,1
2,30942,30168,31751,61699,33505,-4061,-406,-1920,-9,-11,14,173,453,-265,1,0,41,9,440,1,53298,1
2,30942,30128,31755,61700,33511,-4064,-407,-1920,2,-17,33,168,450,-280,1,0,41,9,480,1,53298,1
2,30941,30143,31752,61701,33517,-4061,-411,-1910,-23,-19,26,169,445,-275,1,0,41,9,520,1,53298,1
2,30940,30135,31755,61702,33523,-4066,-414,-1928,0,-7,11,168,444,-278,1,0,41,9,560,1,53298,1
2,30932,30129,31752,61703,33528,-4064,-401,-1915,10,-8,1,163,441,-273,1,0,41,9,600,1,53298,1
2,30936,30129,31754,61704,33533,-4066,-410,-1928,-7,-10,3,161,453,-273,1,0,41,9,640,1,53298,1
2,30936,30144,31754,61705,33539,-4062,-403,-1919,-5,-16,18,167,457,-283,1,0,41,9,680,1,53298,1
2,30928,30118,31752,61706,33545,-4066,-408,-1920,0,-15,23,170,448,-280,1,0,41,9,720,1,53298,1
2,30923,30149,31748,61707,33551,-4076,-406,-1933,-7,-7,8,168,456,-284,1,0,41,9,760,1,53298,1
2,30937,30176,31751,61708,33557,-4061,-410,-1931,10,-6,7,173,451,-279,1,0,41,9,800,1,53298,1
2,30937,30209,31750,61709,33563,-4064,-419,-1935,7,2,4,171,457,-267,1,0,41,9,840,1,53298,1
2,30929,30205,31754,61710,33569,-4055,-403,-1920,-7,-2,20,167,447,-283,1,0,41,9,880,1,53298,1
2,30931,30226,31749,61711,33574,-4070,-422,-1924,9,-10,19,171,451,-279,1,0,41,9,920,1,53298,1
2,30937,30221,31755,61712,33579,-4061,-404,-1923,-10,-20,22,173,451,-273,1,0,41,9,960,1,53298,1
1,30943,30209,31754,61713,0,-4065,-402,-1922,-25,-21,32,158,448,-278,1,0,41,10,0,0,53298,1
2,30943,30205,31751,61714,32941,-4056,-393,-1927,3,-20,21,167,443,-285,1,0,41,10,40,0,53298,1
2,30947,30223,31752,61715,32946,-4061,-403,-1920,5,-3,12,170,456,-274,1,0,41,10,80,0,53298,1
2,30946,30161,31751,61716,32952,-4057,-409,-1920,-10,-3,3,168,450,-276,1,0,41,10,120,0,53298,1
2,30933,30153,31751,61717,32958,-4065,-409,-1911,3,-4,16,162,448,-270,1,0,41,10,160,0,53298,1
2,30945,30167,31753,61718,32963,-4063,-421,-1931,-11,-11,16,170,450,-278,1,0,41,10,200,0,53298,1
2,30933,30161,31748,61719,32969,-4058,-403,-1926,-9,-16,26,165,451,-275,1,0,41,10,240,0,53298,1
2,30942,30125,31753,61720,32975,-4057,-409,-1930,-8,-22,21,168,446,-290,1,0,41,10,280,0,53298,1
2,30939,30133,31751,61721,32982,-4062,-409,-1905,-2,-16,14,167,447,-275,1,0,41,10,320,0,53298,1
2,30943,30107,31753,61722,32988,-4061,-406,-1924,0,-12,7,165,445,-279,1,0,41,10,360,0,53298,1
2,30943,30093,31752,61723,32994,-4067,-413,-1938,0,2,17,170,448,-282,1,0,41,10,400,0,53298,1
2,30938,30112,31750,61724,33000,-4075,-413,-1909,4,2,8,173,453,-277,1,0,41,10,440,0,53298,1
2,30938,30129,31750,61725,33006,-4056,-413,-1938,-1,-17,0,163,447,-267,1,0,41,10,480,0,53298,1
2,30932,30146,31749,61726,33011,-4057,-402,-1923,-5,-28,6,167,449,-275,1,0,41,10,520,0,53298,1
2,30921,30116,31749,61727,33018,-4079,-412,-1928,8,-11,6,167,451,-273,1,0,41,10,560,0,53298,1
2,30928,30155,31752,61728,33024,-4061,-402,-1926,-6,-3,15,173,451,-275,1,0,41,10,600,0,53298,1
2,30934,30146,31748,61729,33030,-4053,-404,-1917,-3,-13,17,166,458,-282,1,0,41,10,640,0,53298,1
2,30930,30125,31753,61730,33037,-4064,-398,-1927,-2,-10,15,165,451,-279,1,0,41,10,680,0,53298,1
2,30934,30128,31753,61731,33043,-4060,-420,-1922,0,2,10,166,450,-280,1,0,41,10,720,0,53298,1
2,30942,30134,31750,61732,33051,-4058,-408,-1935,-2,-13,6,172,446,-276,1,0,41,10,760,0,53298,1
2,30934,30130,31752,61733,33057,-4066,-409,-1918,-33,-25,19,166,456,-278,1,0,41,10,800,0,53298,1
2,30933,30134,31751,61734,33064,-4048,-396,-1922,-28,-26,25,171,449,-269,1,0,41,10,840,0,53298,1
2,30934,30097,31752,61735,33070,-4067,-419,-1915,6,-37,9,165,453,-267,1,0,41,10,880,0,53298,1
2,30938,30091,31752,61736,33076,-4078,-418,-1917,-27,-36,6,166,454,-264,1,0,41,10,920,0,53298,1
2,30933,30103,31752,61737,33082,-4053,-411,-1924,2,-14,15,166,452,-274,1,0,41,10,960,0,53298,1
1,30941,30085,31755,61738,0,-4066,-405,-1925,28,29,7,164,448,-278,1,0,41,11,0,0,53298,1
2,30937,30105,31752,61739,32444,-4075,-420,-1923,8,23,-3,170,452,-280,1,0,41,11,40,0,53298,1
2,30938,30118,31751,61740,32450,-4067,-416,-1917,2,-10,-3,176,448,-276,1,0,41,11,80,0,53298,1
2,30933,30067,31752,61741,32456,-4060,-420,-1923,4,-1,28,161,457,-281,1,0,41,11,120,0,53298,1
2,30934,30080,31752,61742,32463,-4063,-409,-1911,15,-12,29,168,448,-280,1,0,41,11,160,0,53298,1
2,30933,30074,31754,61743,32470,-4057,-411,-1933,-19,-21,26,169,451,-281,1,0,41,11,200,0,53298,1
2,30934,30115,31757,61744,32477,-4070,-405,-1920,-14,-9,-12,166,448,-270,1,0,41,11,240,0,53298,1
2,30935,30111,31752,61745,32484,-4053,-424,-1918,29,-6,-15,171,451,-277,1,0,41,11,280,0,53298,1
2,30929,30090,31757,61746,32490,-4069,-417,-1932,26,17,-8,173,451,-277,1,0,41,11,320,0,53298,1
2,30934,30081,31758,61747,32496,-4066,-420,-1921,22,28,8,172,456,-278,1,0,41,11,360,0,53298,1
2,30938,30076,31757,61748,32501,-4070,-408,-1933,22,5,14,174,450,-284,1,0,41,11,400,0,53298,1
2,30936,30085,31755,61749,32506,-4060,-415,-1930,-7,-12,13,168,444,-278,1,0,41,11,440,0,53298,1
2,30936,30051,31755,61750,32513,-4065,-415,-1921,-27,-39,23,174,448,-284,1,0,41,11,480,0,53298,1
2,30934,30044,31758,61751,32519,-4061,-402,-1941,-25,-29,23,169,453,-279,1,0,41,11,520,0,53298,1
2,30940,30046,31757,61752,32524,-4060,-414,-1920,-12,-26,25,170,454,-276,1,0,41,11,560,0,53298,1
2,30933,30057,31755,61753,32530,-4069,-416,-1933,-13,-21,24,170,456,-280,1,0,41,11,600,0,53298,1
2,30927,30079,31754,61754,32537,-4074,-415,-1925,-2,-11,18,158,446,-266,1,0,41,11,640,0,53298,1
2,30924,30054,31748,61755,32543,-4070,-414,-1926,4,1,13,169,451,-277,1,0,41,11,680,0,53298,1
2,30942,30055,31756,61756,32549,-4069,-411,-1918,1,6,10,173,451,-269,1,0,41,11,720,0,53298,1
2,30929,30053,31751,61757,32555,-4063,-422,-1922,-7,-7,7,177,455,-271,1,0,41,11,760,0,53298,1
2,30944,30019,31756,61758,32561,-4075,-424,-1929,-10,-21,11,169,453,-275,1,0,41,11,800,0,53298,1
2,30946,30026,31758,61759,32567,-4062,-422,-1909,-10,-28,20,172,458,-270,1,0,41,11,840,0,53298,1
2,30944,30015,31760,61760,32573,-4061,-409,-1916,-14,-25,22,173,451,-275,1,0,41,11,880,0,53298,1
2,30937,30024,31765,61761,32578,-4055,-398,-1942,-14,5,24,171,457,-277,1,0,41,11,920,0,53298,1
2,30941,30048,31758,61762,32584,-4048,-403,-1932,26,9,-2,166,448,-284,1,0,41,11,960,0,53298,1
1,30941,30030,31758,61763,0,-4067,-420,-1923,19,-3,-7,172,448,-278,1,0,41,12,0,1,53298,1
2,30935,30023,31756,61764,31943,-4060,-412,-1924,-8,-16,0,163,449,-267,1,0,41,12,40,1,53298,1
2,30946,30020,31757,61765,31948,-4061,-417,-1929,-7,-19,22,170,452,-278,1,0,41,12,80,1,53298,1
2,30933,30024,31757,61766,31954,-4054,-407,-1920,-28,-20,30,159,453,-277,1,0,41,12,120,1,53298,1
2,30934,30019,31755,61767,31960,-4068,-411,-1933,-20,-17,20,171,463,-275,1,0,41,12,160,1,53298,1
2,30942,30031,31759,61768,31964,-4060,-420,-1928,-10,-3,8,168,450,-280,1,0,41,12,200,1,53298,1
2,30948,30020,31758,61769,31969,-4066,-418,-1925,13,14,3,162,442,-282,1,0,41,12,240,1,53298,1
2,30955,30030,31757,61770,31973,-4049,-411,-1920,16,-1,0,169,449,-279,1,0,41,12,280,1,53298,1
2,30945,30031,31760,61771,31977,-4067,-408,-1928,-10,-17,5,168,452,-282,1,0,41,12,320,1,53298,1
2,30941,30016,31754,61772,31982,-4064,-413,-1923,-18,-31,26,170,442,-278,1,0,41,12,360,1,53298,1
2,30941,30036,31751,61773,31987,-4070,-420,-1918,-27,-26,29,171,453,-273,1,0,41,12,400,1,53298,1
2,30948,30026,31755,61774,31993,-4060,-417,-1919,-4,-9,15,175,447,-269,1,0,41,12,440,1,53298,1
2,30935,30020,31758,61775,31997,-4066,-424,-1921,4,9,4,160,452,-274,1,0,41,12,480,1,53298,1
2,30944,30037,31759,61776,32001,-4059,-407,-1936,1,9,-1,172,456,-276,1,0,41,12,520,1,53298,1
2,30944,30068,31756,61777,32006,-4055,-411,-1941,7,-9,11,170,446,-268,1,0,41,12,560,1,53298,1
2,30937,30036,31754,61778,32012,-4057,-414,-1913,-10,-22,22,165,445,-277,1,0,41,12,600,1,53298,1
2,30930,30016,31758,61779,32018,-4067,-412,-1925,-23,-31,23,172,450,-276,1,0,41,12,640,1,53298,1
2,30954,30025,31753,61780,32024,-4060,-408,-1927,-26,-31,25,167,445,-273,1,0,41,12,680,1,53298,1
2,30928,30032,31754,61781,32030,-4061,-405,-1941,-7,-19,20,169,447,-275,1,0,41,12,720,1,53298,1
2,30930,30027,31756,61782,32035,-4065,-418,-1912,10,-1,11,160,442,-280,1,0,41,12,760,1,53298,1
2,30950,30022,31755,61783,32041,-4076,-429,-1924,-2,-5,2,174,454,-280,1,0,41,12,800,1,53298,1
2,30954,30003,31764,61784,32046,-4065,-420,-1917,-4,-12,7,166,444,-270,1,0,41,12,840,1,53298,1
2,30948,30015,31758,61785,32052,-4069,-418,-1914,17,-6,9,168,452,-266,1,0,41,12,880,1,53298,1
2,30936,29998,31758,61786,32058,-4067,-419,-1930,3,0,12,164,444,-274,1,0,41,12,920,1,53298,1
2,30935,29995,31755,61787,32064,-4080,-420,-1924,-16,-18,24,170,452,-288,1,0,41,12,960,1,53298,1
1,30949,29996,31758,61788,0,-4067,-417,-1929,-23,-16,28,166,454,-270,1,0,41,13,0,0,53298,1
2,30938,29997,31755,61789,31444,-4058,-418,-1922,-5,-29,19,173,455,-279,1,0,41,13,40,0,53298,1
2,30941,29985,31756,61790,31450,-4062,-394,-1923,-5,-31,11,168,450,-278,1,0,41,13,80,0,53298,1
2,30942,29976,31759,61791,31455,-4072,-416,-1911,-8,-4,3,169,459,-281,1,0,41,13,120,0,53298,1
2,30948,29977,31759,61792,31461,-4064,-404,-1940,-2,0,3,173,449,-279,1,0,41,13,160,0,53298,1
2,30950,29973,31754,61793,31468,-4063,-412,-1918,16,6,7,166,448,-280,1,0,41,13,200,0,53298,1
2,30936,29970,31755,61794,31474,-4059,-417,-1927,-11,-8,17,172,456,-276,1,0,41,13,240,0,53298,1
2,30953,29968,31763,61795,31480,-4060,-415,-1941,-18,-23,19,173,455,-275,1,0,41,13,280,0,53298,1
2,30956,29970,31760,61796,31486,-4052,-400,-1908,-17,-37,20,165,447,-277,1,0,41,13,320,0,53298,1
2,30957,29960,31757,61797,31492,-4054,-411,-1919,-25,-33,24,171,451,-283,1,0,41,13,360,0,53298,1
2,30956,29948,31762,61798,31498,-4066,-397,-1926,-13,-29,12,165,439,-281,1,0,41,13,400,0,53298,1
2,30950,29950,31759,61799,31504,-4062,-416,-1920,6,5,7,169,449,-275,1,0,41,13,440,0,53298,1
2,30949,29962,31754,61800,31510,-4058,-415,-1933,9,14,1,162,454,-278,1,0,41,13,480,0,53298,1
2,30950,29946,31757,61801,31518,-4069,-414,-1931,16,9,-4,177,451,-277,1,0,41,13,520,0,53298,1
2,30947,29948,31760,61802,31524,-4066,-422,-1920,-14,6,12,158,452,-268,1,0,41,13,560,0,53298,1
2,30949,29941,31758,61803,31531,-4050,-402,-1924,19,22,34,172,454,-274,1,0,41,13,600,0,53298,1
2,30953,29944,31768,61804,31537,-4064,-407,-1947,16,9,33,171,451,-279,1,0,41,13,640,0,53298,1
2,30962,29947,31759,61805,31542,-4075,-398,-1936,-75,-44,12,169,445,-273,1,0,41,13,680,0,53298,1
2,30958,29951,31758,61806,31548,-4061,-414,-1912,-95,-67,13,170,454,-280,1,0,41,13,720,0,53298,1
2,30953,29954,31757,61807,31553,-4065,-397,-1932,62,-3,-8,172,446,-274,1,0,41,13,760,0,53298,1
2,30952,29958,31758,61808,31559,-4053,-401,-1938,100,44,-39,164,440,-284,1,0,41,13,800,0,53298,1
2,30944,29946,31759,61809,31565,-4051,-420,-1941,-7,16,-13,167,451,-283,1,0,41,13,840,0,53298,1
2,30948,29945,31760,61810,31570,-4062,-419,-1910,-32,-45,46,168,452,-284,1,0,41,13,880,0,53298,1
2,30947,29934,31760,61811,31577,-4063,-404,-1910,-57,-70,77,171,447,-281,1,0,41,13,920,0,53298,1
2,30949,29932,31758,61812,31583,-4070,-410,-1913,-68,-33,56,166,446,-284,1,0,41,13,960,0,53298,1
1,30945,29935,31756,61813,0,-4065,-410,-1938,-60,-2,19,165,453,-269,1,0,41,14,0,1,53298,1
2,30939,29940,31757,61814,30945,-4060,-408,-1933,5,6,-4,171,455,-275,1,0,41,14,40,1,53298,1
2,30960,29940,31759,61815,30952,-4060,-413,-1912,69,30,-18,176,452,-270,1,0,41,14,80,1,53298,1
2,30952,29933,31759,61816,30959,-4067,-417,-1937,44,25,-24,169,451,-275,1,0,41,14,120,1,53298,1
2,30960,29936,31760,61817,30965,-4074,-419,-1945,-4,22,-4,163,451,-269,1,0,41,14,160,1,53298,1
2,30947,29932,31756,61818,30972,-4064,-414,-1937,-6,-10,11,163,445,-269,1,0,41,14,200,1,53298,1
2,30949,29924,31755,61819,30979,-4059,-404,-1932,10,-42,25,172,452,-282,1,0,41,14,240,1,53298,1
2,30954,29925,31761,61820,30986,-4072,-415,-1914,-13,-33,30,165,451,-279,1,0,41,14,280,1,53298,1
2,30946,29925,31762,61821,30993,-4060,-398,-1942,-37,-29,29,178,454,-272,1,0,41,14,320,1,53298,1
2,30941,29928,31762,61822,30999,-4070,-413,-1925,8,-6,12,166,448,-270,1,0,41,14,360,1,53298,1
2,30955,29930,31757,61823,31005,-4041,-401,-1915,39,16,-7,167,451,-279,1,0,41,14,400,1,53298,1
2,30958,29929,31758,61824,31011,-4070,-417,-1919,15,33,-10,175,445,-289,1,0,41,14,440,1,53298,1
2,30957,29928,31760,61825,31018,-4065,-418,-1931,18,7,-3,166,452,-270,1,0,41,14,480,1,53298,1
2,30961,29925,31758,61826,31024,-4053,-413,-1933,11,4,5,169,453,-275,1,0,41,14,520,1,53298,1
2,30961,29925,31757,61827,31030,-4058,-417,-1939,-21,-19,22,170,450,-284,1,0,41,14,560,1,53298,1
2,30946,29926,31760,61828,31037,-4065,-421,-1924,-41,-38,40,174,442,-280,1,0,41,14,600,1,53298,1
2,30941,29919,31755,61829,31042,-4060,-402,-1927,-36,-44,27,167,455,-275,1,0,41,14,640,1,53298,1
2,30947,29921,31759,61830,31047,-4067,-417,-1932,-1,-28,26,171,453,-273,1,0,41,14,680,1,53298,1
2,30944,29925,31759,61831,31053,-4068,-417,-1911,2,-18,19,168,450,-274,1,0,41,14,720,1,53298,1
2,30947,29922,31761,61832,31059,-4053,-405,-1929,-28,-8,16,163,453,-271,1,0,41,14,760,1,53298,1
2,30939,29920,31758,61833,31065,-4063,-405,-1916,-30,-17,18,174,444,-272,1,0,41,14,800,1,53298,1
2,30947,29922,31756,61834,31070,-4051,-407,-1907,-47,-20,40,176,450,-276,1,0,41,14,840,1,53298,1
2,30943,29926,31760,61835,31076,-4073,-406,-1933,-32,-39,0,168,450,-276,1,0,41,14,880,1,53298,1
2,30949,29924,31762,61836,31082,-4048,-413,-1922,17,-117,-55,170,442,-274,1,0,41,14,920,1,53298,1
2,30945,29924,31759,61837,31087,-4071,-435,-1923,12,-120,-43,169,449,-273,1,0,41,14,960,1,53298,1
1,30957,29925,31758,61838,0,-4055,-419,-1909,41,-59,28,173,449,-283,1,0,41,15,0,0,53298,1
2,30958,29927,31762,61839,30446,-4057,-388,-1912,44,30,66,161,455,-275,1,0,41,15,40,0,53298,1
2,30957,29927,31767,61840,30451,-4075,-415,-1930,24,95,17,158,450,-278,1,0,41,15,80,0,53298,1
2,30955,29922,31756,61841,30458,-4065,-418,-1932,35,57,-28,169,457,-279,1,0,41,15,120,0,53298,1
2,30956,29927,31762,61842,30464,-4054,-425,-1929,46,-15,-43,174,454,-276,1,0,41,15,160,0,53298,1
2,30953,29924,31759,61843,30470,-4063,-420,-1921,109,-2,-46,175,455,-275,1,0,41,15,200,0,53298,1
2,30955,29928,31758,61844,30476,-4061,-424,-1926,51,42,-39,171,453,-269,1,0,41,15,240,0,53298,1
2,30959,29923,31760,61845,30482,-4055,-417,-1921,8,38,-33,167,455,-281,1,0,41,15,280,0,53298,1
2,30961,29925,31758,61846,30487,-4061,-435,-1940,3,24,0,163,451,-281,1,0,41,15,320,0,53298,1
2,30960,29925,31759,61847,30493,-4052,-418,-1947,16,-25,33,164,452,-274,1,0,41,15,360,0,53298,1
2,30960,29930,31762,61848,30498,-4053,-406,-1914,-21,-57,47,177,457,-277,1,0,41,15,400,0,53298,1
2,30959,29926,31758,61849,30504,-4073,-421,-1923,-88,-59,17,173,449,-273,1,0,41,15,440,0,53298,1
2,30948,29923,31758,61850,30509,-4067,-425,-1929,0,-5,-17,176,452,-278,1,0,41,15,480,0,53298,1
2,30938,29924,31759,61851,30515,-4052,-435,-1928,83,59,-37,169,449,-285,1,0,41,15,520,0,53298,1
2,30946,29932,31757,61852,30521,-4073,-437,-1946,44,99,12,162,458,-276,1,0,41,15,560,0,53298,1
2,30942,29931,31755,61853,30527,-4067,-426,-1933,-23,-10,34,172,446,-274,1,0,41,15,600,0,53298,1
2,30956,29923,31764,61854,30532,-4046,-427,-1929,-45,-107,37,169,449,-273,1,0,41,15,640,0,53298,1
2,30950,29923,31758,61855,30538,-4081,-434,-1912,15,-88,32,173,449,-277,1,0,41,15,680,0,53298,1
2,30946,29924,31760,61856,30544,-4072,-408,-1917,1,-4,2,175,447,-277,1,0,41,15,720,0,53298,1
2,30954,29921,31759,61857,30549,-4063,-424,-1930,-38,49,-12,179,451,-277,1,0,41,15,760,0,53298,1
2,30945,29927,31755,61858,30555,-4059,-430,-1939,11,55,-9,166,454,-270,1,0,41,15,800,0,53298,1
2,30944,29923,31758,61859,30560,-4068,-419,-1939,39,20,24,168,454,-284,1,0,41,15,840,0,53298,1
2,30935,29910,31753,61860,30565,-4063,-407,-1942,-14,-13,54,181,455,-285,1,0,41,15,880,0,53298,1
2,30945,29925,31761,61861,30571,-4061,-431,-1944,-73,-63,32,166,444,-284,1,0,41,15,920,0,53298,1
2,30937,29925,31758,61862,30575,-4067,-430,-1932,-68,-77,30,173,451,-269,1,0,41,15,960,0,53298,1
1,30933,29925,31755,61863,0,-4058,-425,-1944,-20,-83,18,163,447,-265,1,0,41,16,0,1,53298,1
2,30939,29930,31759,61864,29947,-4065,-420,-1925,-15,-69,-11,158,452,-280,1,0,41,16,40,1,53298,1
2,30935,29935,31760,61865,29953,-4070,-425,-1915,-31,-21,-28,170,452,-276,1,0,41,16,80,1,53298,1
2,30929,29929,31758,61866,29958,-4049,-418,-1934,30,14,-32,173,451,-279,1,0,41,16,120,1,53298,1
2,30943,29935,31759,61867,29964,-4058,-416,-1936,44,7,-24,175,449,-289,1,0,41,16,160,1,53298,1
2,30928,29937,31762,61868,29971,-4060,-431,-1926,-31,-28,-4,178,444,-278,1,0,41,16,200,1,53298,1
2,30938,29939,31762,61869,29976,-4071,-423,-1929,-73,-80,18,173,455,-269,1,0,41,16,240,1,53298,1
2,30930,29939,31766,61870,29982,-4067,-434,-1927,-52,-110,33,176,444,-278,1,0,41,16,280,1,53298,1
2,30931,29922,31759,61871,29988,-4076,-430,-1920,-33,-73,86,167,459,-281,1,0,41,16,320,1,53298,1
2,30940,29934,31758,61872,29993,-4057,-427,-1914,31,-13,93,171,455,-285,1,0,41,16,360,1,53298,1
2,30943,29923,31758,61873,29999,-4066,-410,-1933,37,33,61,176,450,-278,1,0,41,16,400,1,53298,1
2,30936,29918,31757,61874,30005,-4056,-420,-1939,-58,-14,-5,172,448,-282,1,0,41,16,440,1,53298,1
2,30933,29965,31755,61875,30011,-4064,-408,-1916,31,-52,-104,167,447,-281,1,0,41,16,480,1,53298,1
2,30932,29935,31748,61876,30017,-4083,-441,-1899,114,24,-152,168,444,-276,1,0,41,16,520,1,53298,1
2,30920,30094,31748,61877,30023,-4071,-455,-1917,97,158,-84,174,452,-282,1,0,41,16,560,1,53298,1
2,30915,30051,31749,61878,30028,-4060,-427,-1957,101,206,22,164,450,-278,1,0,41,16,600,1,53298,1
2,30918,30058,31747,61879,30035,-4058,-416,-1966,44,82,38,177,451,-281,1,0,41,16,640,1,53298,1
2,30912,30298,31745,61880,30040,-4063,-432,-1933,-8,-77,33,168,452,-270,1,0,41,16,680,1,53298,1
2,30914,30142,31744,61881,30046,-4055,-421,-1906,-69,-135,19,170,450,-276,1,0,41,16,720,1,53298,1
2,30905,30525,31730,61882,30052,-4057,-432,-1918,-76,-83,16,172,456,-282,1,0,41,16,760,1,53298,1
2,30916,30390,31734,61883,30058,-4078,-425,-1932,-33,2,5,180,456,-266,1,0,41,16,800,1,53298,1
2,30917,30201,31742,61884,30064,-4066,-431,-1924,44,45,-6,174,452,-272,1,0,41,16,840,1,53298,1
2,30915,30010,31738,61885,30070,-4073,-449,-1941,38,32,9,163,455,-275,1,0,41,16,880,1,53298,1
2,30912,30435,31741,61886,30075,-4071,-445,-1935,-18,-9,38,171,459,-279,1,0,41,16,920,1,53298,1
2,30915,30423,31737,61887,30081,-4063,-430,-1934,-52,-50,78,172,448,-280,1,0,41,16,960,1,53298,1
1,30916,30745,31738,61888,0,-4064,-414,-1924,-64,-69,86,167,447,-279,1,0,41,17,0,1,53298,1
2,30898,31663,31734,61889,29448,-4058,-420,-1921,-46,-80,63,171,455,-281,1,0,41,17,40,1,53298,1
2,30913,30783,31738,61890,29454,-4064,-430,-1931,-69,-55,55,172,440,-272,1,0,41,17,80,1,53298,1
2,30914,30887,31739,61891,29460,-4069,-424,-1942,-47,0,41,178,454,-280,1,0,41,17,120,1,53298,1
2,30908,30635,31739,61892,29465,-4065,-401,-1925,0,24,5,171,453,-275,1,0,41,17,160,1,53298,1
2,30906,30543,31739,61893,29471,-4054,-434,-1938,92,45,-49,174,454,-274,1,0,41,17,200,1,53298,1
2,30909,30492,31738,61894,29477,-4071,-433,-1920,78,64,-61,168,450,-278,1,0,41,17,240,1,53298,1
2,30922,30681,31743,61895,29483,-4065,-436,-1936,17,43,-19,170,450,-280,1,0,41,17,280,1,53298,1
2,30922,30544,31737,61896,29490,-4061,-420,-1929,-4,47,9,176,450,-284,1,0,41,17,320,1,53298,1
2,30927,30418,31742,61897,29497,-4068,-422,-1946,-11,34,7,167,443,-261,1,0,41,17,360,1,53298,1
2,30930,30259,31748,61898,29505,-4062,-437,-1941,-15,26,-3,169,449,-267,1,0,41,17,400,1,53298,1
2,30931,30292,31744,61899,29511,-4066,-426,-1927,-30,34,-12,167,441,-269,1,0,41,17,440,1,53298,1
2,30918,30275,31743,61900,29518,-4061,-446,-1939,-25,-26,-8,167,451,-279,1,0,41,17,480,1,53298,1
2,30928,30315,31741,61901,29524,-4060,-426,-1933,40,-29,14,168,452,-278,1,0,41,17,520,1,53298,1
2,30917,30182,31748,61902,29530,-4048,-413,-1916,19,-13,12,176,456,-286,1,0,41,17,560,1,53298,1
2,30920,30128,31748,61903,29537,-4045,-432,-1931,-22,6,22,177,457,-279,1,0,41,17,600,1,53298,1
2,30912,29949,31752,61904,29543,-4065,-426,-1951,-23,12,19,171,453,-283,1,0,41,17,640,1,53298,1
2,30915,29966,31753,61905,29550,-4061,-434,-1946,5,-5,24,174,448,-274,1,0,41,17,680,1,53298,1
2,30927,29947,31756,61906,29557,-4074,-431,-1931,18,-38,-1,169,449,-273,1,0,41,17,720,1,53298,1
2,30914,29999,31759,61907,29564,-4051,-433,-1937,-13,-74,-11,167,453,-275,1,0,41,17,760,1,53298,1
2,30923,30015,31761,61908,29571,-4051,-435,-1926,-41,-65,25,164,448,-274,1,0,41,17,800,1,53298,1
2,30926,30045,31763,61909,29577,-4070,-435,-1924,1,-23,48,169,455,-267,1,0,41,17,840,1,53298,1
2,30934,30039,31764,61910,29585,-4056,-416,-1930,31,10,47,167,447,-265,1,0,41,17,880,1,53298,1
2,30926,30034,31764,61911,29592,-4059,-432,-1932,3,15,14,171,449,-279,1,0,41,17,920,1,53298,1
2,30914,30054,31763,61912,29600,-4058,-435,-1945,-40,-2,14,170,456,-270,1,0,41,17,960,1,53298,1
1,30921,30044,31761,61913,0,-4063,-421,-1932,-11,-33,5,183,453,-285,1,0,41,18,0,0,53298,1
2,30936,30043,31767,61914,28951,-4059,-435,-1930,17,-44,-19,168,448,-286,1,0,41,18,40,0,53298,1
2,30922,30041,31763,61915,28958,-4054,-428,-1939,-6,-20,-9,171,447,-279,1,0,41,18,80,0,53298,1
2,30930,30012,31764,61916,28965,-4052,-420,-1927,-15,-12,26,169,451,-281,1,0,41,18,120,0,53298,1
2,30936,29985,31761,61917,28972,-4065,-432,-1938,-5,-12,52,178,448,-268,1,0,41,18,160,0,53298,1
2,30927,30008,31763,61918,28978,-4063,-416,-1936,-15,-23,48,161,453,-275,1,0,41,18,200,0,53298,1
2,30922,29953,31756,61919,28984,-4071,-431,-1930,-31,-41,45,172,450,-278,1,0,41,18,240,0,53298,1
2,30924,29989,31760,61920,28990,-4055,-414,-1938,-31,-38,16,174,446,-274,1,0,41,18,280,0,53298,1
2,30924,29954,31761,61921,28996,-4064,-420,-1930,2,-23,3,169,441,-279,1,0,41,18,320,0,53298,1
2,30920,29990,31760,61922,29001,-4064,-424,-1921,13,-4,4,158,456,-274,1,0,41,18,360,0,53298,1
2,30925,29968,31759,61923,29008,-4064,-423,-1922,13,24,5,160,448,-266,1,0,41,18,400,0,53298,1
2,30915,30007,31761,61924,29015,-4060,-433,-1924,24,9,2,170,450,-280,1,0,41,18,440,0,53298,1
2,30917,30016,31751,61925,29021,-4058,-421,-1938,-4,-16,6,165,449,-277,1,0,41,18,480,0,53298,1
2,30931,30002,31753,61926,29026,-4060,-415,-1919,-18,-23,13,168,446,-272,1,0,41,18,520,0,53298,1
2,30930,30017,31755,61927,29032,-4068,-434,-1928,-7,-38,25,168,452,-260,1,0,41,18,560,0,53298,1
2,30929,30071,31755,61928,29038,-4067,-428,-1931,-17,-26,30,177,451,-271,1,0,41,18,600,0,53298,1
2,30940,30036,31748,61929,29045,-4054,-419,-1928,-22,-19,28,170,452,-280,1,0,41,18,640,0,53298,1
2,30929,29992,31751,61930,29052,-4072,-426,-1940,-12,2,13,173,447,-279,1,0,41,18,680,0,53298,1
2,30946,29999,31760,61931,29058,-4051,-425,-1948,2,1,5,163,449,-285,1,0,41,18,720,0,53298,1
2,30933,29992,31756,61932,29064,-4060,-429,-1918,11,-11,0,174,456,-276,1,0,41,18,760,0,53298,1
2,30944,29975,31755,61933,29069,-4067,-421,-1925,-12,-11,17,171,447,-279,1,0,41,18,800,0,53298,1
2,30936,29981,31760,61934,29075,-4065,-435,-1935,-10,-16,13,166,450,-278,1,0,41,18,840,0,53298,1
2,30940,29980,31758,61935,29080,-4066,-421,-1937,14,-22,20,166,450,-268,1,0,41,18,880,0,53298,1
2,30925,29992,31758,61936,29086,-4068,-433,-1924,25,-43,16,166,450,-274,1,0,41,18,920,0,53298,1
2,30940,29974,31760,61937,29092,-4066,-428,-1936,17,-27,18,175,449,-279,1,0,41,18,960,0,53298,1
1,30936,29984,31759,61938,0,-4061,-414,-1927,-13,-21,16,171,455,-279,1,0,41,19,0,1,53298,1
2,30932,29994,31762,61939,28452,-4074,-425,-1932,1,-19,25,173,451,-267,1,0,41,19,40,1,53298,1
2,30928,29980,31759,61940,28458,-4079,-423,-1934,3,-19,18,173,455,-279,1,0,41,19,80,1,53298,1
2,30932,29987,31760,61941,28465,-4055,-419,-1943,21,-24,-2,164,446,-264,1,0,41,19,120,1,53298,1
2,30925,29983,31759,61942,28471,-4060,-436,-1950,2,-9,-3,178,446,-276,1,0,41,19,160,1,53298,1
2,30906,29989,31756,61943,28477,-4072,-438,-1926,29,-11,17,172,456,-276,1,0,41,19,200,1,53298,1
2,30915,29992,31758,61944,28483,-4057,-436,-1927,17,-21,26,172,442,-276,1,0,41,19,240,1,53298,1
2,30918,29976,31758,61945,28489,-4076,-440,-1922,2,-4,21,169,459,-277,1,0,41,19,280,1,53298,1
2,30932,29985,31760,61946,28495,-4070,-423,-1925,-32,-11,25,172,444,-280,1,0,41,19,320,1,53298,1
2,30911,29980,31754,61947,28502,-4067,-432,-1941,-30,-8,7,171,453,-285,1,0,41,19,360,1,53298,1
2,30944,29987,31760,61948,28509,-4065,-422,-1932,6,-8,11,167,455,-275,1,0,41,19,400,1,53298,1
2,30941,29988,31757,61949,28516,-4062,-436,-1930,-7,-2,8,171,449,-275,1,0,41,19,440,1,53298,1
2,30941,29998,31758,61950,28522,-4073,-443,-1927,4,-2,16,172,448,-276,1,0,41,19,480,1,53298,1
2,30947,29986,31760,61951,28530,-4076,-436,-1945,12,-3,17,175,447,-279,1,0,41,19,520,1,53298,1
2,30938,29998,31759,61952,28537,-4069,-422,-1930,10,-7,8,173,455,-283,1,0,41,19,560,1,53298,1
2,30950,29994,31757,61953,28544,-4070,-436,-1939,23,-8,6,172,454,-270,1,0,41,19,600,1,53298,1
2,30946,29986,31759,61954,28551,-4051,-423,-1931,-1,6,-4,172,446,-272,1,0,41,19,640,1,53298,1
2,30954,29993,31759,61955,28557,-4070,-431,-1930,7,19,-5,169,447,-275,1,0,41,19,680,1,53298,1
2,30945,29987,31758,61956,28563,-4061,-420,-1951,18,37,14,174,452,-278,1,0,41,19,720,1,53298,1
2,30952,29995,31754,61957,28570,-4059,-420,-1940,15,9,1,166,448,-276,1,0,41,19,760,1,53298,1
2,30963,29993,31763,61958,28577,-4068,-436,-1940,18,-7,-4,167,441,-279,1,0,41,19,800,1,53298,1
2,30961,29993,31762,61959,28584,-4068,-441,-1935,-23,-27,4,168,448,-274,1,0,41,19,840,1,53298,1
2,30946,29985,31763,61960,28590,-4062,-429,-1922,-33,-34,22,162,450,-276,1,0,41,19,880,1,53298,1
2,30929,29999,31759,61961,28598,-4061,-432,-1932,-19,-20,22,161,449,-269,1,0,41,19,920,1,53298,1
2,30941,29986,31761,61962,28604,-4058,-426,-1947,2,-12,33,173,453,-273,1,0,41,19,960,1,53298,1
1,30934,29975,31759,61963,0,-4064,-420,-1928,-15,-1,23,174,454,-274,1,0,41,20,0,1,53298,1
2,30928,29974,31759,61964,27954,-4042,-420,-1924,-8,-11,6,173,443,-277,1,0,41,20,40,1,53298,1
2,30930,29986,31765,61965,27961,-4054,-421,-1937,-2,-24,3,176,444,-278,1,0,41,20,80,1,53298,1
2,30938,29992,31756,61966,27969,-4055,-422,-1930,-10,-29,3,172,446,-276,1,0,41,20,120,1,53298,1
2,30922,29986,31759,61967,27975,-4055,-421,-1926,-24,-26,18,174,454,-276,1,0,41,20,160,1,53298,1
2,30917,30001,31753,61968,27981,-4063,-422,-1929,-22,-17,24,168,452,-272,1,0,41,20,200,1,53298,1
2,30935,29993,31758,61969,27987,-4068,-430,-1938,-3,-3,20,171,449,-281,1,0,41,20,240,1,53298,1
2,30923,29977,31755,61970,27994,-4062,-431,-1925,13,-3,5,168,450,-276,1,0,41,20,280,1,53298,1
2,30919,29985,31756,61971,28000,-4060,-418,-1932,-12,-2,4,178,450,-282,1,0,41,20,320,1,53298,1
2,30934,29970,31755,61972,28006,-4071,-437,-1936,-14,-15,15,170,442,-282,1,0,41,20,360,1,53298,1
2,30934,29986,31758,61973,28014,-4060,-422,-1941,6,-1,28,166,454,-282,1,0,41,20,400,1,53298,1
2,30928,29988,31760,61974,28020,-4050,-429,-1931,7,-14,-1,167,459,-269,1,0,41,20,440,1,53298,1
2,30930,29983,31757,61975,28026,-4067,-429,-1938,-8,-25,-3,168,452,-280,1,0,41,20,480,1,53298,1
2,30938,29981,31756,61976,28033,-4065,-432,-1910,3,-22,4,172,450,-274,1,0,41,20,520,1,53298,1
2,30945,29994,31759,61977,28039,-4058,-434,-1938,-5,-13,25,165,451,-273,1,0,41,20,560,1,53298,1
2,30933,29979,31760,61978,28045,-4059,-419,-1941,-22,-19,34,179,451,-281,1,0,41,20,600,1,53298,1
2,30930,29984,31758,61979,28052,-4054,-426,-1922,-26,-19,37,169,449,-281,1,0,41,20,640,1,53298,1
2,30942,29989,31757,61980,28058,-4058,-425,-1934,-16,-14,25,171,451,-273,1,0,41,20,680,1,53298,1
2,30920,29995,31760,61981,28065,-4060,-437,-1951,10,-15,1,169,455,-283,1,0,41,20,720,1,53298,1
2,30913,29987,31755,61982,28071,-4064,-434,-1926,4,-14,-14,172,450,-282,1,0,41,20,760,1,53298,1
2,30932,29982,31754,61983,28078,-4057,-423,-1932,2,-11,0,160,448,-268,1,0,41,20,800,1,53298,1
2,30926,29985,31759,61984,28084,-4062,-427,-1920,1,-12,21,168,452,-272,1,0,41,20,840,1,53298,1
2,30926,29995,31755,61985,28090,-4065,-431,-1927,-7,-8,28,171,447,-277,1,0,41,20,880,1,53298,1
2,30911,29975,31752,61986,28096,-4074,-428,-1929,1,-3,24,173,447,-273,1,0,41,20,920,1,53298,1
2,30922,29970,31755,61987,28102,-4067,-422,-1934,-15,-5,13,171,451,-289,1,0,41,20,960,1,53298,1
1,30929,29982,31755,61988,0,-4069,-435,-1921,-6,-5,19,168,448,-272,1,0,41,21,0,0,53298,1
2,30940,29995,31755,61989,27455,-4056,-425,-1935,-3,7,30,172,448,-276,1,0,41,21,40,0,53298,1
2,30931,30002,31756,61990,27461,-4065,-421,-1944,-16,5,19,166,448,-276,1,0,41,21,80,0,53298,1
2,30935,29984,31757,61991,27467,-4063,-414,-1919,-24,-25,-1,171,449,-283,1,0,41,21,120,0,53298,1
2,30950,29991,31761,61992,27474,-4072,-426,-1930,-17,-43,-10,168,448,-282,1,0,41,21,160,0,53298,1
2,30929,29983,31756,61993,27479,-4066,-433,-1937,-15,-48,7,175,449,-277,1,0,41,21,200,0,53298,1
2,30903,29999,31753,61994,27485,-4072,-431,-1924,7,-25,19,168,448,-270,1,0,41,21,240,0,53298,1
2,30897,29997,31755,61995,27490,-4061,-432,-1923,2,-1,23,171,445,-281,1,0,41,21,280,0,53298,1
2,30896,29995,31759,61996,27496,-4055,-410,-1942,-6,12,24,172,450,-284,1,0,41,21,320,0,53298,1
2,30901,29992,31755,61997,27502,-4047,-417,-1934,6,15,-8,168,454,-282,1,0,41,21,360,0,53298,1
2,30907,29994,31758,61998,27508,-4055,-421,-1931,34,12,-17,171,449,-279,1,0,41,21,400,0,53298,1
2,30903,30001,31755,61999,27514,-4069,-435,-1944,28,15,-4,160,458,-282,1,0,41,21,440,0,53298,1
2,30904,29982,31757,62000,27520,-4063,-424,-1943,-1,9,29,168,442,-268,1,0,41,21,480,0,53298,1
2,30910,29992,31757,62001,27526,-4052,-410,-1924,-18,-13,35,171,457,-273,1,0,41,21,520,0,53298,1
2,30907,30052,31751,62002,27533,-4055,-420,-1938,-16,-43,15,161,449,-275,1,0,41,21,560,0,53298,1
2,30910,30045,31756,62003,27539,-4057,-411,-1932,-9,-32,5,165,453,-281,1,0,41,21,600,0,53298,1
2,30905,29990,31756,62004,27544,-4071,-424,-1914,-4,-9,-6,163,449,-267,1,0,41,21,640,0,53298,1
2,30906,29998,31758,62005,27550,-4071,-442,-1939,-8,2,24,168,452,-282,1,0,41,21,680,0,53298,1
2,30927,30010,31756,62006,27556,-4066,-428,-1932,3,2,28,174,446,-274,1,0,41,21,720,0,53298,1
2,30931,29961,31752,62007,27562,-4056,-418,-1944,20,-3,13,168,446,-292,1,0,41,21,760,0,53298,1
2,30922,29989,31759,62008,27569,-4065,-435,-1927,1,-15,-17,171,451,-275,1,0,41,21,800,0,53298,1
2,30916,29998,31762,62009,27575,-4074,-439,-1929,14,-26,-17,166,450,-280,1,0,41,21,840,0,53298,1
2,30922,29987,31764,62010,27581,-4052,-427,-1931,7,-20,-3,180,452,-276,1,0,41,21,880,0,53298,1
2,30912,29999,31753,62011,27587,-4065,-443,-1941,-8,10,9,170,450,-284,1,0,41,21,920,0,53298,1
2,30914,29996,31755,62012,27593,-4072,-424,-1951,-25,14,16,169,449,-279,1,0,41,21,960,0,53298,1
1,30919,30035,31759,62013,0,-4066,-435,-1936,2,-5,11,176,454,-284,1,0,41,22,0,0,53298,1
2,30916,30043,31759,62014,26958,-4052,-413,-1933,23,-7,6,166,448,-278,1,0,41,22,40,0,53298,1
2,30911,30020,31758,62015,26963,-4067,-439,-1948,-20,-26,7,168,452,-272,1,0,41,22,80,0,53298,1
2,30923,30016,31755,62016,26969,-4065,-440,-1919,-28,-54,33,171,449,-279,1,0,41,22,120,0,53298,1
2,30927,30024,31754,62017,26975,-4061,-426,-1932,-21,-65,55,167,453,-279,1,0,41,22,160,0,53298,1
2,30922,30011,31753,62018,26980,-4070,-428,-1929,0,-74,52,173,455,-273,1,0,41,22,200,0,53298,1
2,30921,30032,31756,62019,26986,-4061,-421,-1928,-34,-59,24,169,455,-269,1,0,41,22,240,0,53298,1
2,30912,30040,31751,62020,26992,-4064,-432,-1932,-28,-25,5,167,453,-279,1,0,41,22,280,0,53298,1
2,30920,30020,31755,62021,26998,-4061,-420,-1915,17,27,1,174,450,-276,1,0,41,22,320,0,53298,1
2,30914,30023,31757,62022,27004,-4069,-431,-1944,15,59,3,173,449,-279,1,0,41,22,360,0,53298,1
2,30920,30021,31754,62023,27010,-4070,-426,-1937,18,18,-4,165,453,-271,1,0,41,22,400,0,53298,1
2,30915,30019,31760,62024,27017,-4054,-431,-1924,-3,-29,7,166,450,-278,1,0,41,22,440,0,53298,1
2,30912,30056,31757,62025,27024,-4071,-431,-1928,2,-37,28,162,450,-270,1,0,41,22,480,0,53298,1
2,30922,30036,31759,62026,27030,-4059,-426,-1935,2,-13,28,169,453,-271,1,0,41,22,520,0,53298,1
2,30904,30023,31751,62027,27037,-4061,-427,-1918,-4,17,12,166,452,-270,1,0,41,22,560,0,53298,1
2,30922,30017,31760,62028,27042,-4067,-433,-1930,0,14,1,163,455,-277,1,0,41,22,600,0,53298,1
2,30927,30015,31760,62029,27048,-4069,-434,-1943,24,11,-3,169,453,-279,1,0,41,22,640,0,53298,1
2,30933,30053,31758,62030,27054,-4061,-435,-1938,23,5,3,175,443,-275,1,0,41,22,680,0,53298,1
2,30926,30050,31759,62031,27060,-4066,-439,-1933,-5,-1,1,169,455,-279,1,0,41,22,720,0,53298,1
2,30916,30045,31754,62032,27066,-4054,-426,-1945,-14,-23,21,178,454,-274,1,0,41,22,760,0,53298,1
2,30924,30042,31756,62033,27073,-4052,-420,-1942,-11,-38,29,172,450,-270,1,0,41,22,800,0,53298,1
2,30924,30003,31758,62034,27080,-4072,-442,-1919,-11,-29,22,173,449,-283,1,0,41,22,840,0,53298,1
2,30925,30002,31760,62035,27086,-4049,-424,-1935,-11,-26,16,171,455,-269,1,0,41,22,880,0,53298,1
2,30922,30026,31757,62036,27093,-4065,-434,-1926,-7,-2,7,178,450,-278,1,0,41,22,920,0,53298,1
2,30929,30000,31765,62037,27100,-4068,-437,-1935,-4,1,0,173,451,-289,1,0,41,22,960,0,53298,1
1,30916,30007,31757,62038,0,-4072,-446,-1946,1,-13,3,167,451,-279,1,0,41,23,0,1,53298,1
2,30920,30025,31753,62039,26460,-4061,-430,-1918,10,-23,-5,161,449,-289,1,0,41,23,40,1,53298,1
2,30915,30014,31753,62040,26466,-4046,-428,-1938,-4,-23,-3,173,455,-277,1,0,41,23,80,1,53298,1
2,30914,30026,31756,62041,26472,-4062,-437,-1940,-4,-23,9,164,452,-278,1,0,41,23,120,1,53298,1
2,30915,30020,31754,62042,26477,-4057,-422,-1938,5,-6,7,166,448,-274,1,0,41,23,160,1,53298,1
2,30919,30008,31757,62043,26484,-4064,-436,-1935,-15,-3,10,170,448,-278,1,0,41,23,200,1,53298,1
2,30923,30011,31756,62044,26490,-4068,-449,-1929,-8,-26,13,169,447,-285,1,0,41,23,240,1,53298,1
2,30906,30016,31756,62045,26496,-4053,-427,-1934,-23,-30,27,168,456,-274,1,0,41,23,280,1,53298,1
2,30906,30011,31755,62046,26501,-4058,-428,-1939,-17,-29,30,171,447,-271,1,0,41,23,320,1,53298,1
2,30916,30015,31755,62047,26507,-4062,-440,-1909,-7,-24,10,176,446,-278,1,0,41,23,360,1,53298,1
2,30932,30013,31759,62048,26513,-4070,-424,-1925,-17,-20,0,171,455,-273,1,0,41,23,400,1,53298,1
2,30930,30014,31759,62049,26519,-4069,-441,-1916,-15,-22,6,167,453,-273,1,0,41,23,440,1,53298,1
2,30925,30010,31762,62050,26526,-4059,-427,-1920,-5,-15,21,169,447,-279,1,0,41,23,480,1,53298,1
2,30925,30016,31760,62051,26533,-4069,-427,-1940,12,-6,29,160,448,-280,1,0,41,23,520,1,53298,1
2,30936,30027,31758,62052,26539,-4059,-429,-1942,-12,-14,18,172,448,-282,1,0,41,23,560,1,53298,1
2,30925,30016,31759,62053,26545,-4065,-442,-1944,-17,-28,16,166,454,-280,1,0,41,23,600,1,53298,1
2,30923,30015,31759,62054,26551,-4067,-438,-1927,-8,-30,19,170,450,-276,1,0,41,23,640,1,53298,1
2,30932,30016,31760,62055,26557,-4063,-427,-1921,-12,-8,10,168,454,-266,1,0,41,23,680,1,53298,1
2,30943,30006,31758,62056,26563,-4072,-439,-1928,9,12,6,157,449,-275,1,0,41,23,720,1,53298,1
2,30935,30006,31758,62057,26570,-4059,-427,-1941,7,23,5,165,451,-269,1,0,41,23,760,1,53298,1
2,30935,30020,31758,62058,26576,-4062,-431,-1926,41,21,2,168,450,-280,1,0,41,23,800,1,53298,1
2,30940,30025,31759,62059,26581,-4055,-430,-1941,21,-8,-7,172,460,-280,1,0,41,23,840,1,53298,1
2,30932,30003,31759,62060,26588,-4061,-439,-1929,-9,-11,11,168,454,-276,1,0,41,23,880,1,53298,1
2,30931,30009,31766,62061,26594,-4054,-434,-1922,-28,-29,36,170,450,-276,1,0,41,23,920,1,53298,1
2,30931,30027,31760,62062,26600,-4071,-434,-1916,-16,-35,46,167,451,-271,1,0,41,23,960,1,53298,1
1,30936,30020,31757,62063,0,-4067,-428,-1926,-27,-27,29,169,455,-281,1,0,41,24,0,1,53298,1
2,30934,30008,31762,62064,25962,-4071,-437,-1934,-32,-28,-9,170,452,-280,1,0,41,24,40,1,53298,1
2,30925,29998,31756,62065,25969,-4074,-443,-1925,27,-16,-21,163,449,-273,1,0,41,24,80,1,53298,1
2,30931,30006,31756,62066,25975,-4059,-436,-1921,28,25,2,175,451,-273,1,0,41,24,120,1,53298,1
2,30930,29996,31753,62067,25981,-4059,-425,-1926,20,34,18,175,457,-277,1,0,41,24,160,1,53298,1
2,30940,29988,31758,62068,25987,-4067,-432,-1938,-2,19,15,173,451,-277,1,0,41,24,200,1,53298,1
2,30931,29986,31756,62069,25993,-4055,-442,-1921,-26,-32,13,163,449,-285,1,0,41,24,240,1,53298,1
2,30937,30000,31760,62070,26000,-4064,-447,-1933,-1,-58,22,171,457,-283,1,0,41,24,280,1,53298,1
2,30937,30005,31760,62071,26007,-4069,-434,-1935,-1,-40,7,169,451,-285,1,0,41,24,320,1,53298,1
2,30937,29987,31756,62072,26013,-4056,-426,-1916,-28,-12,3,164,450,-270,1,0,41,24,360,1,53298,1
2,30934,29984,31759,62073,26020,-4051,-422,-1929,-7,41,9,171,449,-269,1,0,41,24,400,1,53298,1
2,30937,30026,31757,62074,26026,-4072,-427,-1941,7,57,-6,170,452,-280,1,0,41,24,440,1,53298,1
2,30933,29998,31762,62075,26032,-4063,-440,-1937,7,18,0,168,456,-280,1,0,41,24,480,1,53298,1
2,30930,29999,31759,62076,26038,-4057,-429,-1930,13,2,7,166,454,-280,1,0,41,24,520,1,53298,1
2,30933,30026,31759,62077,26044,-4076,-440,-1930,-11,-18,16,170,452,-280,1,0,41,24,560,1,53298,1
2,30936,30060,31752,62078,26050,-4048,-442,-1940,-31,-39,20,177,453,-279,1,0,41,24,600,1,53298,1
2,30943,30055,31756,62079,26056,-4065,-441,-1917,-15,-40,19,166,446,-274,1,0,41,24,640,1,53298,1
2,30940,30030,31760,62080,26062,-4063,-439,-1932,-17,-34,24,174,456,-286,1,0,41,24,680,1,53298,1
2,30931,30036,31754,62081,26066,-4058,-440,-1938,-12,-33,27,174,450,-282,1,0,41,24,720,1,53298,1
2,30950,30046,31759,62082,26072,-4049,-430,-1928,-43,-8,30,171,453,-285,1,0,41,24,760,1,53298,1
2,30926,30075,31760,62083,26077,-4066,-434,-1916,-24,19,17,169,447,-281,1,0,41,24,800,1,53298,1
2,30937,30043,31755,62084,26083,-4062,-433,-1940,-14,-1,-15,162,444,-272,1,0,41,24,840,1,53298,1
2,30935,30093,31751,62085,26089,-4075,-436,-1941,3,-30,-10,166,452,-282,1,0,41,24,880,1,53298,1
2,30939,30064,31756,62086,26095,-4070,-435,-1919,-2,-12,21,166,456,-278,1,0,41,24,920,1,53298,1
2,30924,30177,31751,62087,26102,-4065,-424,-1941,-40,-21,47,166,448,-280,1,0,41,24,960,1,53298,1
1,30923,30041,31755,62088,0,-4061,-434,-1940,-47,-50,38,167,453,-271,1,0,41,25,0,1,53298,1
2,30923,30029,31758,62089,25464,-4064,-422,-1922,-34,-47,22,169,457,-269,1,0,41,25,40,1,53298,1
2,30920,30115,31748,62090,25470,-4056,-429,-1924,-2,-41,31,162,446,-270,1,0,41,25,80,1,53298,1
2,30908,30230,31744,62091,25476,-4074,-423,-1945,19,-7,22,165,451,-273,1,0,41,25,120,1,53298,1
2,30930,30203,31753,62092,25482,-4064,-434,-1946,-22,22,11,163,453,-275,1,0,41,25,160,1,53298,1
2,30930,30233,31752,62093,25488,-4063,-432,-1931,7,3,7,170,454,-276,1,0,41,25,200,1,53298,1
2,30905,30241,31752,62094,25494,-4075,-427,-1928,27,-9,-10,170,442,-274,1,0,41,25,240,1,53298,1
2,30915,30147,31752,62095,25500,-4072,-423,-1919,-14,-8,-9,173,449,-279,1,0,41,25,280,1,53298,1
2,30916,30303,31748,62096,25507,-4043,-421,-1934,4,-24,6,166,446,-282,1,0,41,25,320,1,53298,1
2,30930,30186,31749,62097,25513,-4062,-428,-1935,7,-12,14,162,448,-280,1,0,41,25,360,1,53298,1
2,30936,30078,31748,62098,25520,-4061,-428,-1930,-14,-20,15,176,452,-276,1,0,41,25,400,1,53298,1
2,30928,30135,31750,62099,25526,-4065,-434,-1937,-16,-45,31,171,453,-277,1,0,41,25,440,1,53298,1
2,30922,30054,31752,62100,25532,-4062,-432,-1917,-26,-34,28,171,449,-279,1,0,41,25,480,1,53298,1
2,30908,30222,31745,62101,25537,-4083,-439,-1920,3,-30,24,168,448,-280,1,0,41,25,520,1,53298,1
2,30918,30137,31752,62102,25543,-4046,-418,-1922,-5,-13,26,166,448,-270,1,0,41,25,560,1,53298,1
2,30922,30197,31755,62103,25549,-4059,-431,-1940,-10,8,2,173,447,-283,1,0,41,25,600,1,53298,1
2,30919,30084,31752,62104,25555,-4068,-438,-1935,6,-3,-3,173,445,-281,1,0,41,25,640,1,53298,1
2,30920,30056,31758,62105,25560,-4058,-426,-1918,14,0,8,162,458,-272,1,0,41,25,680,1,53298,1
2,30935,30055,31756,62106,25567,-4062,-424,-1930,-13,-5,17,170,448,-278,1,0,41,25,720,1,53298,1
2,30935,30063,31752,62107,25573,-4067,-432,-1937,-22,-23,26,172,450,-286,1,0,41,25,760,1,53298,1
2,30917,30099,31749,62108,25579,-4066,-438,-1929,-13,-20,27,170,454,-282,1,0,41,25,800,1,53298,1
2,30933,30034,31756,62109,25584,-4059,-420,-1929,-3,-18,19,165,451,-275,1,0,41,25,840,1,53298,1
2,30932,30027,31754,62110,25590,-4063,-435,-1930,-6,-12,7,176,450,-276,1,0,41,25,880,1,53298,1
2,30928,30060,31750,62111,25597,-4058,-426,-1935,-10,-17,26,166,456,-276,1,0,41,25,920,1,53298,1
2,30917,30046,31750,62112,25603,-4067,-436,-1927,-16,-13,22,169,449,-277,1,0,41,25,960,1,53298,1
1,30926,30054,31759,62113,0,-4071,-442,-1922,-4,-20,18,169,459,-277,1,0,41,26,0,1,53298,1
2,30927,30017,31758,62114,24967,-4074,-438,-1931,-9,-5,12,167,451,-273,1,0,41,26,40,1,53298,1
2,30940,30026,31755,62115,24973,-4058,-427,-1934,2,-3,14,168,454,-278,1,0,41,26,80,1,53298,1
2,30949,30030,31758,62116,24978,-4061,-422,-1940,4,-13,4,173,449,-277,1,0,41,26,120,1,53298,1
2,30947,30030,31764,62117,24985,-4060,-436,-1924,2,-24,0,170,454,-280,1,0,41,26,160,1,53298,1
2,30933,30021,31759,62118,24991,-4053,-431,-1907,7,-25,19,181,455,-279,1,0,41,26,200,1,53298,1
2,30929,30006,31757,62119,24997,-4064,-434,-1936,-15,-20,22,168,450,-272,1,0,41,26,240,1,53298,1
2,30923,30013,31756,62120,25003,-4062,-429,-1936,-30,-20,28,169,447,-269,1,0,41,26,280,1,53298,1
2,30922,30019,31758,62121,25009,-4067,-436,-1940,-11,-6,20,171,451,-281,1,0,41,26,320,1,53298,1
2,30922,30010,31758,62122,25016,-4064,-424,-1923,10,-3,-1,173,451,-279,1,0,41,26,360,1,53298,1
2,30930,29997,31758,62123,25022,-4061,-426,-1925,13,-15,0,166,444,-282,1,0,41,26,400,1,53298,1
2,30925,29984,31759,62124,25028,-4053,-427,-1938,1,-2,20,166,456,-282,1,0,41,26,440,1,53298,1
2,30923,30009,31757,62125,25034,-4072,-430,-1923,-15,16,29,171,453,-273,1,0,41,26,480,1,53298,1
2,30936,29999,31757,62126,25040,-4060,-438,-1931,3,-7,28,174,458,-278,1,0,41,26,520,1,53298,1
2,30925,29998,31761,62127,25046,-4068,-427,-1943,-5,-28,10,170,454,-266,1,0,41,26,560,1,53298,1
2,30924,29998,31758,62128,25052,-4072,-431,-1922,-23,-32,1,173,455,-283,1,0,41,26,600,1,53298,1
2,30929,30002,31760,62129,25056,-4063,-427,-1930,-20,-25,4,173,453,-275,1,0,41,26,640,1,53298,1
2,30923,30001,31759,62130,25062,-4062,-434,-1927,-19,2,31,168,448,-278,1,0,41,26,680,1,53298,1
2,30919,29979,31755,62131,25068,-4060,-415,-1959,-11,-4,33,180,452,-278,1,0,41,26,720,1,53298,1
2,30923,29973,31759,62132,25074,-4061,-429,-1934,8,-33,13,171,451,-277,1,0,41,26,760,1,53298,1
2,30924,29975,31761,62133,25080,-4062,-412,-1931,-15,-43,-1,172,452,-282,1,0,41,26,800,1,53298,1
2,30927,29981,31757,62134,25085,-4064,-426,-1925,-14,-37,-3,172,452,-274,1,0,41,26,840,1,53298,1
2,30913,29964,31755,62135,25090,-4067,-435,-1920,8,1,-11,171,449,-269,1,0,41,26,880,1,53298,1
2,30920,29963,31754,62136,25096,-4062,-427,-1917,-9,19,-2,178,448,-276,1,0,41,26,920,1,53298,1
2,30930,29976,31755,62137,25102,-4081,-433,-1949,-17,19,25,180,458,-280,1,0,41,26,960,1,53298,1
1,30922,29976,31759,62138,0,-4046,-422,-1943,-2,-28,8,168,452,-282,1,0,41,27,0,0,53298,1
2,30923,29975,31759,62139,24469,-4061,-435,-1949,-93,-113,4,169,445,-279,1,0,41,27,40,0,53298,1
2,30924,29970,31758,62140,24474,-4078,-433,-1926,-107,-171,10,160,452,-272,1,0,41,27,80,0,53298,1
2,30925,29951,31754,62141,24480,-4089,-434,-1922,-127,-184,60,170,442,-280,1,0,41,27,120,0,53298,1
2,30928,29968,31753,62142,24485,-4064,-434,-1909,-3,-115,67,165,451,-273,1,0,41,27,160,0,53298,1
2,30930,29974,31751,62143,24491,-4066,-410,-1911,83,25,35,167,453,-263,1,0,41,27,200,0,53298,1
2,30930,29964,31756,62144,24497,-4099,-421,-1923,43,99,-26,163,455,-277,1,0,41,27,240,0,53298,1
2,30921,29945,31752,62145,24503,-4065,-432,-1927,-13,24,-77,176,450,-280,1,0,41,27,280,0,53298,1
2,30930,29950,31757,62146,24509,-4049,-440,-1939,20,-26,-70,171,447,-277,1,0,41,27,320,0,53298,1
2,30933,29954,31759,62147,24516,-4083,-440,-1906,20,-37,-84,164,446,-260,1,0,41,27,360,0,53298,1
2,30920,29975,31755,62148,24522,-4044,-426,-1936,72,-28,-96,170,458,-280,1,0,41,27,400,0,53298,1
2,30926,29976,31758,62149,24528,-4061,-447,-1904,131,25,-100,169,453,-281,1,0,41,27,440,0,53298,1
2,30920,29968,31756,62150,24534,-4066,-433,-1928,124,34,-62,173,455,-275,1,0,41,27,480,0,53298,1
2,30915,29960,31758,62151,24540,-4091,-460,-1943,27,-69,-41,175,457,-279,1,0,41,27,520,0,53298,1
2,30924,29970,31752,62152,24546,-4080,-453,-1900,-3,-106,-17,169,447,-281,1,0,41,27,560,0,53298,1
2,30931,29966,31756,62153,24551,-4073,-451,-1910,-35,-68,22,163,453,-287,1,0,41,27,600,0,53298,1
2,30920,29973,31758,62154,24557,-4075,-436,-1917,25,-2,18,168,446,-270,1,0,41,27,640,0,53298,1
2,30923,29966,31757,62155,24562,-4071,-446,-1915,86,42,-17,165,447,-273,1,0,41,27,680,0,53298,1
2,30920,29969,31756,62156,24568,-4067,-450,-1915,120,37,-53,167,457,-277,1,0,41,27,720,0,53298,1
2,30920,29963,31754,62157,24575,-4081,-456,-1915,105,5,-67,174,456,-276,1,0,41,27,760,0,53298,1
2,30924,29974,31758,62158,24581,-4068,-437,-1928,32,-28,-77,168,452,-266,1,0,41,27,800,0,53298,1
2,30930,29966,31759,62159,24587,-4076,-466,-1919,45,-54,-68,174,446,-282,1,0,41,27,840,0,53298,1
2,30918,29968,31752,62160,24592,-4078,-436,-1942,83,-36,-105,178,452,-274,1,0,41,27,880,0,53298,1
2,30922,29966,31754,62161,24599,-4076,-454,-1912,138,-24,-143,170,452,-274,1,0,41,27,920,0,53298,1
2,30918,29973,31756,62162,24605,-4055,-462,-1900,116,42,-115,170,456,-268,1,0,41,27,960,0,53298,1
1,30922,29970,31764,62163,0,-4070,-452,-1918,117,129,-86,172,454,-276,1,0,41,28,0,1,53298,1
2,30932,29985,31760,62164,23972,-4080,-465,-1952,110,158,-90,169,453,-275,1,0,41,28,40,1,53298,1
2,30926,29980,31759,62165,23978,-4066,-479,-1939,82,69,-106,174,450,-284,1,0,41,28,80,1,53298,1
2,30922,29970,31756,62166,23985,-4077,-490,-1932,63,-46,-89,172,442,-272,1,0,41,28,120,1,53298,1
2,30930,29978,31759,62167,23992,-4079,-503,-1909,83,-82,-40,173,455,-275,1,0,41,28,160,1,53298,1
2,30928,29977,31768,62168,23998,-4051,-483,-1909,91,-48,-34,171,447,-273,1,0,41,28,200,1,53298,1
2,30932,29972,31760,62169,24005,-4066,-470,-1920,75,-3,-79,175,453,-275,1,0,41,28,240,1,53298,1
2,30931,29972,31761,62170,24011,-4069,-484,-1934,-5,9,-114,174,456,-276,1,0,41,28,280,1,53298,1
2,30933,29972,31758,62171,24019,-4071,-492,-1930,-12,-30,-107,178,452,-280,1,0,41,28,320,1,53298,1
2,30936,29975,31768,62172,24026,-4067,-474,-1934,36,-56,-71,171,455,-281,1,0,41,28,360,1,53298,1
2,30933,29975,31768,62173,24032,-4078,-491,-1925,60,-85,-50,180,458,-282,1,0,41,28,400,1,53298,1
2,30938,29972,31762,62174,24039,-4069,-495,-1923,39,-153,-66,169,453,-283,1,0,41,28,440,1,53298,1
2,30928,29963,31762,62175,24044,-4087,-507,-1903,12,-165,-73,173,447,-265,1,0,41,28,480,1,53298,1
2,30935,29970,31760,62176,24050,-4078,-506,-1908,18,-157,-60,168,452,-272,1,0,41,28,520,1,53298,1
2,30934,29973,31765,62177,24056,-4072,-496,-1917,6,-78,-3,175,453,-277,1,0,41,28,560,1,53298,1
2,30932,29968,31760,62178,24062,-4074,-485,-1923,2,5,26,172,458,-280,1,0,41,28,600,1,53298,1
2,30934,29962,31760,62179,24068,-4084,-496,-1915,-15,15,-12,168,452,-280,1,0,41,28,640,1,53298,1
2,30927,29968,31761,62180,24073,-4090,-504,-1914,-24,-15,-50,175,455,-277,1,0,41,28,680,1,53298,1
2,30926,29965,31758,62181,24080,-4070,-509,-1914,17,-62,-80,173,445,-273,1,0,41,28,720,1,53298,1
2,30929,29970,31759,62182,24085,-4060,-505,-1916,-2,-99,-75,169,449,-273,1,0,41,28,760,1,53298,1
2,30931,29970,31762,62183,24091,-4083,-506,-1915,6,-58,-32,177,455,-275,1,0,41,28,800,1,53298,1
2,30940,29971,31764,62184,24096,-4064,-500,-1919,29,-35,-28,168,448,-278,1,0,41,28,840,1,53298,1
2,30932,29965,31765,62185,24101,-4076,-495,-1971,78,-125,-11,177,455,-275,1,0,41,28,880,1,53298,1
2,30929,29966,31763,62186,24106,-4053,-544,-1935,16,-247,12,172,452,-270,1,0,41,28,920,1,53298,1
2,30929,29968,31768,62187,24111,-4094,-494,-1889,1,-230,41,172,454,-278,1,0,41,28,960,1,53298,1
1,30923,29969,31763,62188,0,-4092,-485,-1889,-109,-151,7,172,452,-270,1,0,41,29,0,1,53298,1
2,30926,29963,31761,62189,23474,-4091,-525,-1888,-148,-100,-84,177,453,-269,1,0,41,29,40,1,53298,1
2,30936,29973,31765,62190,23480,-4081,-509,-1900,-91,-34,-119,177,457,-275,1,0,41,29,80,1,53298,1
2,30938,29969,31764,62191,23485,-4085,-520,-1884,29,8,-117,175,445,-271,1,0,41,29,120,1,53298,1
2,30933,29964,31763,62192,23491,-4076,-502,-1906,126,58,-105,181,453,-275,1,0,41,29,160,1,53298,1
2,30942,29963,31767,62193,23498,-4077,-492,-1895,109,47,-103,178,448,-272,1,0,41,29,200,1,53298,1
2,30941,29968,31768,62194,23503,-4093,-529,-1906,-17,-153,-105,173,447,-279,1,0,41,29,240,1,53298,1
2,30947,29970,31765,62195,23508,-4076,-507,-1905,-116,-207,-76,166,450,-274,1,0,41,29,280,1,53298,1
2,30945,29974,31764,62196,23514,-4098,-535,-1862,-76,-163,-43,179,453,-273,1,0,41,29,320,1,53298,1
2,30951,29971,31768,62197,23519,-4105,-489,-1905,-90,-103,-35,179,457,-275,1,0,41,29,360,1,53298,1
2,30944,29971,31768,62198,23525,-4086,-525,-1887,-57,-167,-35,170,458,-262,1,0,41,29,400,1,53298,1
2,30946,29972,31768,62199,23529,-4091,-539,-1874,-12,-113,2,172,446,-274,1,0,41,29,440,1,53298,1
2,30944,29971,31768,62200,23535,-4103,-522,-1865,37,62,33,171,453,-279,1,0,41,29,480,1,53298,1
2,30947,29971,31768,62201,23541,-4101,-535,-1913,26,161,26,180,456,-282,1,0,41,29,520,1,53298,1
2,30948,29974,31767,62202,23547,-4094,-515,-1926,20,114,-26,169,461,-271,1,0,41,29,560,1,53298,1
2,30935,29982,31767,62203,23553,-4088,-529,-1905,-15,-6,-53,179,451,-265,1,0,41,29,600,1,53298,1
2,30935,29976,31765,62204,23559,-4099,-533,-1881,-55,-91,-11,173,455,-275,1,0,41,29,640,1,53298,1
2,30930,29970,31763,62205,23564,-4105,-534,-1881,-64,-68,33,177,455,-273,1,0,41,29,680,1,53298,1
2,30930,29975,31764,62206,23569,-4093,-518,-1876,-9,-16,27,179,453,-269,1,0,41,29,720,1,53298,1
2,30937,29974,31767,62207,23574,-4082,-527,-1866,3,94,45,174,448,-258,1,0,41,29,760,1,53298,1
2,30935,29975,31768,62208,23578,-4094,-539,-1897,54,200,116,172,454,-268,1,0,41,29,800,1,53298,1
2,30930,29969,31762,62209,23584,-4084,-496,-1914,138,193,129,180,450,-270,1,0,41,29,840,1,53298,1
2,30946,29970,31761,62210,23589,-4057,-509,-1943,15,12,46,171,453,-277,1,0,41,29,880,1,53298,1
2,30942,29973,31764,62211,23594,-4089,-517,-1908,-109,-223,-44,182,454,-276,1,0,41,29,920,1,53298,1
2,30939,29972,31764,62212,23599,-4110,-532,-1889,-140,-246,-46,181,443,-271,1,0,41,29,960,1,53298,1
1,30930,29969,31761,62213,0,-4085,-522,-1858,-22,-101,-9,185,455,-283,1,0,41,30,0,0,53298,1
2,30921,29969,31760,62214,22977,-4094,-515,-1882,62,80,12,181,449,-277,1,0,41,30,40,0,53298,1
2,30917,29974,31761,62215,22982,-4097,-527,-1894,118,154,5,180,452,-276,1,0,41,30,80,0,53298,1
2,30911,29967,31765,62216,22988,-4099,-520,-1919,102,173,4,179,449,-277,1,0,41,30,120,0,53298,1
2,30918,29970,31762,62217,22993,-4079,-517,-1919,94,80,8,178,452,-268,1,0,41,30,160,0,53298,1
2,30916,29978,31769,62218,22999,-4095,-523,-1910,14,-41,17,178,454,-266,1,0,41,30,200,0,53298,1
2,30920,29975,31764,62219,23005,-4073,-529,-1897,-100,-160,16,174,454,-272,1,0,41,30,240,0,53298,1
2,30920,29975,31766,62220,23010,-4088,-532,-1883,-92,-137,55,173,451,-269,1,0,41,30,280,0,53298,1
2,30917,29979,31766,62221,23016,-4103,-520,-1892,-2,-11,79,179,453,-273,1,0,41,30,320,0,53298,1
2,30919,29978,31765,62222,23021,-4083,-498,-1881,67,49,26,173,455,-275,1,0,41,30,360,0,53298,1
2,30920,29969,31767,62223,23027,-4081,-521,-1904,33,7,-26,174,454,-278,1,0,41,30,400,0,53298,1
2,30931,29982,31765,62224,23033,-4088,-526,-1904,-19,-26,-49,169,451,-275,1,0,41,30,440,0,53298,1
2,30906,29984,31763,62225,23038,-4079,-511,-1909,17,-47,-73,170,444,-270,1,0,41,30,480,0,53298,1
2,30910,29975,31761,62226,23043,-4085,-525,-1889,-2,-35,-104,180,458,-278,1,0,41,30,520,0,53298,1
2,30907,29976,31763,62227,23049,-4107,-537,-1898,39,26,-102,183,453,-267,1,0,41,30,560,0,53298,1
2,30911,29970,31768,62228,23056,-4073,-540,-1901,77,33,-50,183,447,-281,1,0,41,30,600,0,53298,1
2,30924,29970,31764,62229,23061,-4099,-540,-1904,31,15,39,179,449,-281,1,0,41,30,640,0,53298,1
2,30924,29971,31764,62230,23067,-4086,-518,-1913,-63,-74,112,170,456,-274,1,0,41,30,680,0,53298,1
2,30913,29974,31768,62231,23072,-4099,-537,-1893,-111,-196,120,177,445,-273,1,0,41,30,720,0,53298,1
2,30909,29974,31766,62232,23078,-4099,-525,-1878,-141,-242,64,182,454,-276,1,0,41,30,760,0,53298,1
2,30905,29975,31765,62233,23085,-4099,-517,-1888,-103,-164,35,176,458,-276,1,0,41,30,800,0,53298,1
2,30903,29973,31765,62234,23090,-4096,-512,-1867,-11,-64,-15,169,451,-277,1,0,41,30,840,0,53298,1
2,30911,29970,31768,62235,23096,-4096,-525,-1902,54,21,-64,167,449,-269,1,0,41,30,880,0,53298,1
2,30908,29971,31766,62236,23102,-4107,-535,-1877,95,14,-92,176,450,-280,1,0,41,30,920,0,53298,1
2,30905,29974,31761,62237,23108,-4099,-539,-1887,42,23,-31,175,453,-287,1,0,41,30,960,0,53298,1
1,30910,29972,31767,62238,0,-4099,-530,-1889,-5,17,23,174,446,-272,1,0,41,31,0,0,53298,1
2,30917,29970,31765,62239,22480,-4087,-532,-1877,2,-16,34,170,456,-270,1,0,41,31,40,0,53298,1
2,30932,29966,31768,62240,22486,-4092,-527,-1880,2,-54,-15,173,451,-273,1,0,41,31,80,0,53298,1
2,30920,29966,31767,62241,22492,-4090,-522,-1875,-16,-77,-17,177,457,-285,1,0,41,31,120,0,53298,1
2,30920,29963,31767,62242,22498,-4109,-531,-1896,-21,-90,-16,176,456,-276,1,0,41,31,160,0,53298,1
2,30922,29969,31768,62243,22503,-4096,-541,-1873,5,-60,-13,173,457,-273,1,0,41,31,200,0,53298,1
2,30924,29969,31768,62244,22509,-4097,-544,-1866,46,-8,-39,175,451,-267,1,0,41,31,240,0,53298,1
2,30923,29970,31771,62245,22515,-4105,-542,-1882,34,28,-46,177,445,-271,1,0,41,31,280,0,53298,1
2,30952,29962,31768,62246,22521,-4096,-535,-1891,48,14,-42,176,448,-280,1,0,41,31,320,0,53298,1
2,30939,29973,31770,62247,22527,-4096,-539,-1887,48,-13,-7,181,447,-271,1,0,41,31,360,0,53298,1
2,30934,29969,31763,62248,22533,-4094,-533,-1881,21,-19,-2,182,448,-272,1,0,41,31,400,0,53298,1
2,30931,29969,31768,62249,22539,-4102,-541,-1880,-17,-30,10,174,444,-274,1,0,41,31,440,0,53298,1
2,30924,29969,31768,62250,22546,-4094,-528,-1869,-30,-52,1,172,454,-268,1,0,41,31,480,0,53298,1
2,30925,29966,31768,62251,22552,-4091,-549,-1868,-10,-42,9,178,450,-274,1,0,41,31,520,0,53298,1
2,30932,29969,31769,62252,22558,-4106,-533,-1880,-8,14,28,178,444,-274,1,0,41,31,560,0,53298,1
2,30928,29970,31769,62253,22565,-4109,-529,-1893,21,17,10,181,451,-271,1,0,41,31,600,0,53298,1
2,30926,29970,31763,62254,22571,-4095,-535,-1880,3,3,-31,181,459,-283,1,0,41,31,640,0,53298,1
2,30927,29963,31765,62255,22577,-4104,-542,-1878,-7,-23,-28,174,452,-284,1,0,41,31,680,0,53298,1
2,30925,29963,31765,62256,22583,-4100,-543,-1879,9,-23,14,176,452,-272,1,0,41,31,720,0,53298,1
2,30929,29968,31767,62257,22589,-4102,-535,-1863,-3,-10,14,172,440,-270,1,0,41,31,760,0,53298,1
2,30937,29965,31768,62258,22595,-4094,-533,-1881,-24,-38,23,173,455,-269,1,0,41,31,800,0,53298,1
2,30913,29963,31767,62259,22601,-4092,-529,-1883,-29,-47,28,177,445,-271,1,0,41,31,840,0,53298,1
2,30931,29961,31761,62260,22607,-4099,-538,-1875,-22,-20,39,175,445,-281,1,0,41,31,880,0,53298,1
2,30925,29962,31761,62261,22613,-4094,-541,-1880,15,11,36,173,449,-277,1,0,41,31,920,0,53298,1
2,30925,29964,31762,62262,22618,-4095,-535,-1872,18,42,34,170,458,-270,1,0,41,31,960,0,53298,1
1,30927,29959,31768,62263,0,-4094,-553,-1891,-16,56,46,179,455,-271,1,0,41,32,0,0,53298,1
2,30938,29960,31768,62264,21983,-4100,-526,-1888,-24,32,35,181,453,-275,1,0,41,32,40,0,53298,1
2,30924,29967,31765,62265,21989,-4085,-533,-1882,-3,-2,17,171,453,-277,1,0,41,32,80,0,53298,1
2,30922,29965,31763,62266,21996,-4097,-527,-1887,27,18,3,175,449,-271,1,0,41,32,120,0,53298,1
2,30922,29961,31763,62267,22002,-4075,-540,-1887,19,2,-3,180,448,-278,1,0,41,32,160,0,53298,1
2,30928,29957,31764,62268,22010,-4100,-541,-1890,1,20,35,179,449,-271,1,0,41,32,200,0,53298,1
2,30935,29960,31765,62269,22016,-4095,-541,-1864,38,-2,70,185,453,-271,1,0,41,32,240,0,53298,1
2,30944,29968,31768,62270,22024,-4106,-540,-1892,36,37,87,175,451,-275,1,0,41,32,280,0,53298,1
2,30942,29965,31766,62271,22031,-4103,-538,-1884,50,50,55,173,449,-273,1,0,41,32,320,0,53298,1
2,30949,29958,31772,62272,22038,-4104,-542,-1888,39,52,16,169,451,-269,1,0,41,32,360,0,53298,1
2,30954,29963,31770,62273,22047,-4078,-530,-1895,16,38,-19,182,452,-270,1,0,41,32,400,0,53298,1
2,30933,29955,31767,62274,22055,-4088,-536,-1904,2,32,-31,171,453,-271,1,0,41,32,440,0,53298,1
2,30932,29965,31767,62275,22062,-4092,-549,-1886,30,57,-13,169,449,-273,1,0,41,32,480,0,53298,1
2,30930,29963,31765,62276,22070,-4100,-551,-1893,42,100,-14,177,455,-275,1,0,41,32,520,0,53298,1
2,30948,29966,31768,62277,22078,-4081,-536,-1896,40,79,-22,177,445,-277,1,0,41,32,560,0,53298,1
2,30958,29954,31768,62278,22085,-4097,-550,-1915,1,-1,-26,175,441,-277,1,0,41,32,600,0,53298,1
2,30952,29965,31767,62279,22092,-4097,-553,-1893,26,-52,-10,168,446,-272,1,0,41,32,640,0,53298,1
2,30958,29972,31770,62280,22098,-4078,-538,-1888,-13,-67,21,170,448,-268,1,0,41,32,680,0,53298,1
2,30957,29967,31770,62281,22104,-4090,-535,-1882,-49,-47,36,176,458,-268,1,0,41,32,720,0,53298,1
2,30945,29962,31767,62282,22110,-4101,-541,-1892,-10,5,48,178,450,-282,1,0,41,32,760,0,53298,1
2,30972,29963,31768,62283,22116,-4098,-532,-1904,33,66,21,171,451,-265,1,0,41,32,800,0,53298,1
2,30954,29962,31765,62284,22122,-4086,-559,-1893,29,49,-19,165,449,-271,1,0,41,32,840,0,53298,1
2,30948,29961,31771,62285,22129,-4094,-549,-1913,34,23,-20,174,456,-272,1,0,41,32,880,0,53298,1
2,30946,29964,31768,62286,22135,-4098,-546,-1900,39,-7,-18,172,452,-272,1,0,41,32,920,0,53298,1
2,30952,29969,31768,62287,22141,-4078,-541,-1892,-11,-58,-9,173,455,-275,1,0,41,32,960,0,53298,1
1,30969,29963,31769,62288,0,-4090,-546,-1903,-27,-64,16,176,454,-276,1,0,41,33,0,1,53298,1
2,30943,29965,31768,62289,21486,-4085,-547,-1899,-6,-45,34,182,446,-274,1,0,41,33,40,1,53298,1
2,30962,29960,31770,62290,21491,-4094,-543,-1892,-32,-24,51,183,445,-271,1,0,41,33,80,1,53298,1
2,30966,29962,31771,62291,21498,-4088,-543,-1888,-15,-3,51,171,461,-279,1,0,41,33,120,1,53298,1
2,30940,29975,31772,62292,21505,-4083,-537,-1897,-4,33,61,176,454,-280,1,0,41,33,160,1,53298,1
2,30956,29969,31768,62293,21511,-4103,-541,-1903,-1,57,36,182,456,-270,1,0,41,33,200,1,53298,1
2,30956,29975,31770,62294,21517,-4086,-550,-1896,36,30,11,184,442,-276,1,0,41,33,240,1,53298,1
2,30943,29972,31769,62295,21523,-4103,-553,-1893,14,22,19,176,450,-272,1,0,41,33,280,1,53298,1
2,30945,29965,31769,62296,21529,-4078,-539,-1908,3,15,37,174,452,-270,1,0,41,33,320,1,53298,1
2,30946,29962,31768,62297,21535,-4092,-544,-1896,5,46,49,177,449,-275,1,0,41,33,360,1,53298,1
2,30951,29959,31768,62298,21540,-4090,-528,-1909,43,78,20,174,444,-276,1,0,41,33,400,1,53298,1
2,30961,29948,31766,62299,21546,-4078,-533,-1912,30,18,-43,176,454,-272,1,0,41,33,440,1,53298,1
2,30924,29947,31764,62300,21552,-4084,-551,-1902,-38,-97,-45,176,448,-272,1,0,41,33,480,1,53298,1
2,30945,29953,31768,62301,21559,-4098,-570,-1886,-90,-145,41,180,456,-276,1,0,41,33,520,1,53298,1
2,30957,29965,31768,62302,21564,-4071,-526,-1893,-80,-133,134,170,448,-274,1,0,41,33,560,1,53298,1
2,30950,29962,31765,62303,21569,-4095,-538,-1884,-43,-77,128,174,454,-280,1,0,41,33,600,1,53298,1
2,30954,29967,31769,62304,21575,-4094,-535,-1890,-41,-2,95,175,451,-281,1,0,41,33,640,1,53298,1
2,30953,29964,31766,62305,21580,-4088,-545,-1897,1,56,83,176,454,-276,1,0,41,33,680,1,53298,1
2,30950,29968,31765,62306,21585,-4090,-531,-1901,70,107,57,173,453,-277,1,0,41,33,720,1,53298,1
2,30951,29970,31769,62307,21590,-4084,-541,-1901,100,90,14,173,451,-277,1,0,41,33,760,1,53298,1
2,30939,29973,31771,62308,21596,-4085,-537,-1898,66,92,5,182,458,-280,1,0,41,33,800,1,53298,1
2,30955,29977,31767,62309,21601,-4074,-532,-1905,24,93,13,175,449,-281,1,0,41,33,840,1,53298,1
2,30950,29977,31770,62310,21607,-4074,-534,-1900,-34,42,16,174,458,-276,1,0,41,33,880,1,53298,1
2,30957,29976,31767,62311,21613,-4077,-530,-1908,3,35,25,179,451,-279,1,0,41,33,920,1,53298,1
2,30959,29968,31768,62312,21619,-4089,-538,-1901,2,25,-1,177,455,-269,1,0,41,33,960,1,53298,1
1,30955,29968,31767,62313,0,-4070,-523,-1918,-22,-38,-10,175,457,-273,1,0,41,34,0,0,53298,1
2,30938,29962,31767,62314,20989,-4099,-541,-1900,-50,-97,-23,166,454,-276,1,0,41,34,40,0,53298,1
2,30974,29971,31772,62315,20995,-4089,-535,-1885,-42,-152,-20,178,446,-280,1,0,41,34,80,0,53298,1
2,30984,29969,31769,62316,21001,-4084,-537,-1907,-61,-166,6,179,453,-281,1,0,41,34,120,0,53298,1
2,30958,29973,31771,62317,21006,-4097,-546,-1885,-62,-106,53,171,453,-279,1,0,41,34,160,0,53298,1
2,30963,29968,31767,62318,21012,-4091,-531,-1891,33,-10,68,179,451,-277,1,0,41,34,200,0,53298,1
2,30959,29968,31766,62319,21018,-4085,-523,-1903,69,14,20,175,447,-277,1,0,41,34,240,0,53298,1
2,30953,29979,31768,62320,21025,-4090,-543,-1897,15,-32,-30,177,451,-273,1,0,41,34,280,0,53298,1
2,30947,29971,31768,62321,21032,-4080,-530,-1897,-21,-110,-45,177,451,-277,1,0,41,34,320,0,53298,1
2,30932,29968,31766,62322,21039,-4084,-540,-1885,-16,-146,-75,183,449,-277,1,0,41,34,360,0,53298,1
2,30948,29964,31767,62323,21046,-4106,-545,-1878,13,-120,-95,182,450,-272,1,0,41,34,400,0,53298,1
2,30949,29970,31769,62324,21052,-4091,-526,-1887,21,-83,-109,182,458,-282,1,0,41,34,440,0,53298,1
2,30958,29975,31767,62325,21059,-4087,-555,-1873,59,-62,-98,175,455,-267,1,0,41,34,480,0,53298,1
2,30955,29969,31769,62326,21066,-4091,-552,-1892,44,-26,-74,173,447,-277,1,0,41,34,520,0,53298,1
2,30957,29964,31767,62327,21072,-4095,-553,-1892,53,-13,-54,176,450,-272,1,0,41,34,560,0,53298,1
2,30951,29960,31768,62328,21078,-4085,-537,-1906,-2,-27,-57,176,448,-270,1,0,41,34,600,0,53298,1
2,30954,29956,31766,62329,21085,-4097,-564,-1888,-13,-21,-66,175,453,-273,1,0,41,34,640,0,53298,1
2,30960,29955,31767,62330,21092,-4105,-568,-1876,33,-7,-51,181,453,-283,1,0,41,34,680,0,53298,1
2,30944,29951,31769,62331,21098,-4077,-546,-1869,28,-11,-22,182,460,-278,1,0,41,34,720,0,53298,1
2,30960,29957,31770,62332,21104,-4086,-560,-1886,-16,-30,13,180,456,-278,1,0,41,34,760,0,53298,1
2,30954,29961,31771,62333,21111,-4099,-549,-1881,-36,-17,58,176,456,-278,1,0,41,34,800,0,53298,1
2,30947,29956,31769,62334,21118,-4098,-550,-1883,-13,-31,39,168,452,-276,1,0,41,34,840,0,53298,1
2,30973,29948,31767,62335,21125,-4086,-549,-1859,-10,-49,-8,174,452,-278,1,0,41,34,880,0,53298,1
2,30985,29955,31768,62336,21133,-4099,-570,-1891,-81,-26,-6,172,440,-282,1,0,41,34,920,0,53298,1
2,30984,29958,31770,62337,21140,-4099,-552,-1887,-44,-18,30,172,452,-272,1,0,41,34,960,0,53298,1
1,30976,29954,31771,62338,0,-4095,-566,-1867,52,70,65,174,456,-268,1,0,41,35,0,0,53298,1
2,30973,29955,31769,62339,20494,-4087,-546,-1897,117,163,80,182,448,-270,1,0,41,35,40,0,53298,1
2,30963,29956,31771,62340,20502,-4097,-543,-1909,80,163,93,178,444,-270,1,0,41,35,80,0,53298,1
2,30964,29961,31768,62341,20509,-4076,-543,-1896,6,110,76,177,453,-271,1,0,41,35,120,0,53298,1
2,30956,29962,31766,62342,20517,-4086,-539,-1898,50,91,19,179,455,-281,1,0,41,35,160,0,53298,1
2,30954,29958,31770,62343,20524,-4083,-575,-1862,-34,44,-22,170,446,-276,1,0,41,35,200,0,53298,1
2,30960,29959,31767,62344,20531,-4104,-562,-1898,-173,152,67,174,460,-288,1,0,41,35,240,0,53298,1
2,30951,29959,31767,62345,20538,-4071,-546,-1910,-99,221,97,171,449,-269,1,0,41,35,280,0,53298,1
2,30957,29955,31768,62346,20546,-4063,-554,-1934,-152,182,168,174,456,-274,1,0,41,35,320,0,53298,1
2,30969,29955,31762,62347,20553,-4092,-535,-1933,-311,44,308,175,453,-269,1,0,41,35,360,0,53298,1
2,30958,29953,31761,62348,20560,-4105,-529,-1951,-248,-146,367,172,450,-276,1,0,41,35,400,0,53298,1
2,30964,29950,31765,62349,20568,-4074,-483,-1936,-206,-325,211,177,451,-285,1,0,41,35,440,0,53298,1
2,30964,29952,31765,62350,20575,-4099,-533,-1861,-233,-429,107,170,454,-280,1,0,41,35,480,0,53298,1
2,30979,29948,31768,62351,20583,-4121,-538,-1825,-271,-299,190,172,446,-272,1,0,41,35,520,0,53298,1
2,30966,29945,31768,62352,20591,-4071,-517,-1829,-147,-11,411,178,442,-268,1,0,41,35,560,0,53298,1
2,30966,29952,31763,62353,20599,-4096,-478,-1901,-121,292,585,176,446,-270,1,0,41,35,600,0,53298,1
2,30971,29950,31767,62354,20607,-4078,-480,-1880,-59,457,585,168,452,-268,1,0,41,35,640,0,53298,1
2,30960,29949,31758,62355,20614,-4085,-440,-1926,-254,454,472,173,445,-273,1,0,41,35,680,0,53298,1
2,30937,29951,31760,62356,20622,-4079,-455,-1912,-246,273,327,174,444,-272,1,0,41,35,720,0,53298,1
2,30940,29951,31759,62357,20629,-4084,-370,-1959,-560,2,77,168,446,-276,1,0,41,35,760,0,53298,1
2,30942,29943,31760,62358,20636,-4055,-458,-1914,-1048,-249,-194,170,448,-274,1,0,41,35,800,0,53298,1
2,30942,29948,31764,62359,20644,-4098,-479,-1898,-589,-165,-184,166,446,-274,1,0,41,35,840,0,53298,1
2,30928,29948,31761,62360,20651,-4062,-467,-1911,22,8,-125,168,454,-278,1,0,41,35,880,0,53298,1
2,30956,29962,31764,62361,20659,-4063,-471,-1906,260,35,33,165,449,-271,1,0,41,35,920,0,53298,1
2,30917,29955,31762,62362,20666,-4073,-458,-1892,434,23,255,173,459,-275,1,0,41,35,960,0,53298,1
1,30918,29948,31757,62363,0,-4100,-434,-1917,112,-90,389,162,450,-276,1,0,41,36,0,1,53298,1
2,30910,29946,31757,62364,19997,-4111,-430,-1904,-56,-108,426,167,445,-273,1,0,41,36,40,1,53298,1
2,30913,29944,31759,62365,20004,-4061,-441,-1806,487,211,324,162,444,-274,1,0,41,36,80,1,53298,1
2,30931,29947,31757,62366,20011,-4173,-367,-1944,776,528,-70,171,453,-283,1,0,41,36,120,1,53298,1
2,30915,29939,31751,62367,20018,-4026,-437,-1917,547,259,-370,171,447,-277,1,0,41,36,160,1,53298,1
2,30916,29945,31758,62368,20025,-3939,-506,-2070,-319,-11,-296,167,453,-267,1,0,41,36,200,1,53298,1
2,30925,29959,31757,62369,20031,-4170,-511,-1870,-242,-380,-43,166,452,-274,1,0,41,36,240,1,53298,1
2,30929,29959,31763,62370,20038,-4079,-419,-1876,490,-209,-28,165,447,-283,1,0,41,36,280,1,53298,1
2,30926,29958,31756,62371,20043,-4039,-431,-1864,470,158,-174,163,459,-275,1,0,41,36,320,1,53298,1
2,30924,29959,31757,62372,20050,-4099,-509,-1889,-29,540,-52,177,447,-283,1,0,41,36,360,1,53298,1
2,30949,29959,31760,62373,20058,-4102,-496,-1969,-1,701,156,167,451,-281,1,0,41,36,400,1,53298,1
2,30950,29945,31755,62374,20064,-3994,-433,-2020,507,541,207,168,450,-288,1,0,41,36,440,1,53298,1
2,30938,29950,31760,62375,20071,-4033,-404,-2029,280,139,-6,165,451,-275,1,0,41,36,480,1,53298,1
2,30944,29946,31760,62376,20078,-4098,-509,-1963,-281,-363,-73,171,447,-281,1,0,41,36,520,1,53298,1
2,30937,29945,31755,62377,20085,-4114,-506,-1913,-618,-511,-14,165,441,-279,1,0,41,36,560,1,53298,1
2,30941,29939,31759,62378,20093,-4006,-481,-1920,-77,-303,144,174,462,-282,1,0,41,36,600,1,53298,1
2,30951,29947,31756,62379,20100,-4068,-434,-1936,188,-60,248,176,454,-260,1,0,41,36,640,1,53298,1
2,30958,29949,31756,62380,20106,-4093,-438,-1950,-39,-101,194,173,451,-283,1,0,41,36,680,1,53298,1
2,30975,29940,31762,62381,20113,-4028,-426,-1934,-184,-234,78,166,450,-272,1,0,41,36,720,1,53298,1
2,30958,29952,31760,62382,20119,-4078,-470,-1916,-217,-257,13,165,451,-273,1,0,41,36,760,1,53298,1
2,30946,29950,31760,62383,20125,-4082,-457,-1879,63,-129,8,172,456,-266,1,0,41,36,800,1,53298,1
2,30950,29947,31758,62384,20132,-4066,-436,-1900,131,86,-12,179,451,-277,1,0,41,36,840,1,53298,1
2,30949,29949,31755,62385,20138,-4068,-472,-1919,58,213,-46,167,445,-283,1,0,41,36,880,1,53298,1
2,30941,29945,31757,62386,20144,-4080,-455,-1939,177,272,-83,172,454,-270,1,0,41,36,920,1,53298,1
2,30945,29939,31759,62387,20151,-4058,-474,-1961,266,199,-119,169,451,-275,1,0,41,36,960,1,53298,1
1,30947,29955,31757,62388,0,-4059,-469,-1969,154,43,-122,175,445,-279,1,0,41,37,0,1,53298,1
2,30961,29956,31759,62389,19499,-4057,-476,-1953,47,-99,-73,175,439,-281,1,0,41,37,40,1,53298,1
2,30956,29947,31760,62390,19506,-4049,-487,-1926,-45,-140,6,174,448,-266,1,0,41,37,80,1,53298,1
2,30965,29946,31759,62391,19512,-4054,-468,-1945,-85,-128,78,169,451,-279,1,0,41,37,120,1,53298,1
2,30959,29938,31759,62392,19518,-4082,-460,-1934,-123,-112,70,171,455,-281,1,0,41,37,160,1,53298,1
2,30970,29926,31760,62393,19524,-4082,-460,-1903,-71,-60,47,174,454,-270,1,0,41,37,200,1,53298,1
2,30959,29927,31754,62394,19531,-4068,-468,-1929,-121,88,94,164,448,-286,1,0,41,37,240,1,53298,1
2,30950,29931,31758,62395,19537,-4070,-461,-1944,100,194,76,169,445,-271,1,0,41,37,280,1,53298,1
2,30959,29930,31755,62396,19543,-4054,-449,-1960,232,189,-18,168,452,-282,1,0,41,37,320,1,53298,1
2,30942,29926,31755,62397,19550,-4052,-475,-1964,190,74,-90,169,443,-281,1,0,41,37,360,1,53298,1
2,30946,29925,31751,62398,19556,-4082,-477,-1945,18,-117,-55,167,457,-271,1,0,41,37,400,1,53298,1
2,30961,29928,31757,62399,19563,-4057,-476,-1920,-141,-217,42,178,446,-284,1,0,41,37,440,1,53298,1
2,30947,29937,31756,62400,19569,-4064,-453,-1901,-51,-125,83,172,460,-278,1,0,41,37,480,1,53298,1
2,30934,29941,31755,62401,19575,-4083,-444,-1923,43,59,19,167,455,-273,1,0,41,37,520,1,53298,1
2,30942,29936,31751,62402,19582,-4070,-468,-1932,54,165,-105,169,449,-281,1,0,41,37,560,1,53298,1
2,30943,29918,31750,62403,19589,-4070,-483,-1959,102,175,-133,170,450,-288,1,0,41,37,600,1,53298,1
2,30950,29926,31752,62404,19596,-4048,-490,-1952,93,46,-71,178,448,-276,1,0,41,37,640,1,53298,1
2,30946,29938,31749,62405,19603,-4063,-475,-1941,-15,-123,8,181,451,-277,1,0,41,37,680,1,53298,1
2,30959,29945,31751,62406,19609,-4062,-455,-1936,-71,-149,59,176,454,-274,1,0,41,37,720,1,53298,1
2,30952,29941,31751,62407,19615,-4069,-477,-1923,-33,-55,45,172,450,-270,1,0,41,37,760,1,53298,1
2,30950,29937,31750,62408,19622,-4068,-477,-1930,-15,24,10,170,458,-280,1,0,41,37,800,1,53298,1
2,30945,29934,31755,62409,19628,-4072,-470,-1940,22,41,-16,173,449,-283,1,0,41,37,840,1,53298,1
2,30942,29935,31755,62410,19635,-4066,-485,-1951,38,-1,0,173,457,-271,1,0,41,37,880,1,53298,1
2,30949,29932,31752,62411,19642,-4057,-471,-1944,-23,-70,26,175,459,-283,1,0,41,37,920,1,53298,1
2,30945,29931,31751,62412,19649,-4060,-466,-1914,-84,-92,34,177,457,-269,1,0,41,37,960,1,53298,1
1,30937,29928,31755,62413,0,-4072,-470,-1925,-4,-39,22,170,448,-286,1,0,41,38,0,0,53298,1
2,30955,29928,31751,62414,19003,-4052,-467,-1939,38,31,-8,165,449,-275,1,0,41,38,40,0,53298,1
2,30942,29930,31753,62415,19010,-4064,-487,-1943,8,41,-32,169,455,-269,1,0,41,38,80,0,53298,1
2,30922,29933,31752,62416,19017,-4068,-471,-1945,14,2,-20,168,446,-284,1,0,41,38,120,0,53298,1
2,30936,29929,31757,62417,19024,-4064,-483,-1938,24,-26,1,161,455,-265,1,0,41,38,160,0,53298,1
2,30940,29930,31754,62418,19030,-4074,-479,-1941,5,-41,3,162,450,-274,1,0,41,38,200,0,53298,1
2,30934,29947,31755,62419,19037,-4048,-472,-1930,-22,-52,3,182,458,-276,1,0,41,38,240,0,53298,1
2,30942,29943,31757,62420,19045,-4070,-476,-1927,-12,-23,19,175,447,-277,1,0,41,38,280,0,53298,1
2,30933,29939,31755,62421,19052,-4060,-474,-1944,5,-11,11,173,449,-283,1,0,41,38,320,0,53298,1
2,30948,29938,31756,62422,19059,-4069,-466,-1942,17,-11,-18,176,448,-270,1,0,41,38,360,0,53298,1
2,30921,29938,31759,62423,19066,-4049,-465,-1947,21,-12,-35,170,456,-284,1,0,41,38,400,0,53298,1
2,30925,29936,31760,62424,19073,-4065,-482,-1926,23,-4,-36,170,448,-278,1,0,41,38,440,0,53298,1
2,30938,29945,31758,62425,19081,-4057,-485,-1946,4,-11,-10,174,450,-282,1,0,41,38,480,0,53298,1
2,30932,29940,31756,62426,19088,-4061,-476,-1945,-23,-17,26,178,454,-284,1,0,41,38,520,0,53298,1
2,30940,29925,31760,62427,19095,-4050,-463,-1939,-29,-14,38,169,447,-283,1,0,41,38,560,0,53298,1
2,30934,29939,31758,62428,19103,-4063,-470,-1945,-3,-28,20,179,445,-277,1,0,41,38,600,0,53298,1
2,30931,29942,31760,62429,19111,-4058,-473,-1936,14,-23,-7,164,450,-270,1,0,41,38,640,0,53298,1
2,30941,29936,31759,62430,19118,-4067,-487,-1937,12,-10,-12,177,449,-277,1,0,41,38,680,0,53298,1
2,30943,29932,31760,62431,19125,-4065,-477,-1931,-9,-18,-2,176,448,-272,1,0,41,38,720,0,53298,1
2,30926,29937,31757,62432,19132,-4072,-480,-1932,-6,-12,15,167,445,-269,1,0,41,38,760,0,53298,1
2,30925,29940,31758,62433,19139,-4053,-483,-1941,-3,-15,20,171,459,-269,1,0,41,38,800,0,53298,1
2,30947,29939,31752,62434,19146,-4063,-476,-1934,-3,-10,10,172,448,-280,1,0,41,38,840,0,53298,1
2,30952,29942,31756,62435,19154,-4061,-478,-1937,2,-8,5,172,452,-272,1,0,41,38,880,0,53298,1
2,30930,29935,31755,62436,19161,-4056,-486,-1934,0,-24,5,171,457,-281,1,0,41,38,920,0,53298,1
2,30930,29947,31757,62437,19167,-4071,-482,-1933,-18,-26,4,175,455,-277,1,0,41,38,960,0,53298,1
1,30931,29937,31755,62438,0,-4066,-474,-1945,0,-3,15,175,453,-275,1,0,41,39,0,0,53298,1
2,30945,29937,31755,62439,18507,-4061,-472,-1937,-19,-3,1,167,447,-277,1,0,41,39,40,0,53298,1
2,30942,29937,31755,62440,18513,-4058,-478,-1934,28,1,-9,173,455,-275,1,0,41,39,80,0,53298,1
2,30955,29937,31756,62441,18520,-4066,-487,-1932,18,-4,-26,175,455,-275,1,0,41,39,120,0,53298,1
2,30964,29931,31756,62442,18527,-4065,-498,-1951,18,-23,5,169,451,-279,1,0,41,39,160,0,53298,1
2,30960,29935,31757,62443,18534,-4072,-477,-1935,10,-8,20,178,456,-284,1,0,41,39,200,0,53298,1
2,30956,29933,31760,62444,18540,-4062,-482,-1940,-28,-22,19,174,448,-284,1,0,41,39,240,0,53298,1
2,30974,29935,31755,62445,18547,-4058,-486,-1930,-21,-14,18,175,447,-285,1,0,41,39,280,0,53298,1
2,30958,29942,31759,62446,18553,-4069,-482,-1943,1,-4,8,174,454,-278,1,0,41,39,320,0,53298,1
2,30970,29939,31758,62447,18560,-4053,-478,-1934,5,-10,-3,169,449,-281,1,0,41,39,360,0,53298,1
2,30971,29942,31757,62448,18567,-4066,-489,-1936,2,1,-6,173,457,-273,1,0,41,39,400,0,53298,1
2,30974,29940,31759,62449,18573,-4078,-489,-1922,-3,4,9,171,443,-287,1,0,41,39,440,0,53298,1
2,30960,29938,31758,62450,18579,-4058,-490,-1941,-24,-15,10,177,453,-279,1,0,41,39,480,0,53298,1
2,30978,29942,31759,62451,18585,-4066,-480,-1937,-23,-25,31,157,451,-279,1,0,41,39,520,0,53298,1
2,30973,29933,31758,62452,18592,-4067,-486,-1935,-18,-20,14,169,447,-283,1,0,41,39,560,0,53298,1
2,30952,29936,31755,62453,18599,-4066,-485,-1948,-25,-20,13,176,452,-274,1,0,41,39,600,0,53298,1
2,30970,29937,31758,62454,18604,-4063,-471,-1934,-8,-24,15,169,453,-273,1,0,41,39,640,0,53298,1
2,30969,29939,31758,62455,18610,-4068,-499,-1936,-21,-39,26,172,458,-278,1,0,41,39,680,0,53298,1
2,30972,29935,31758,62456,18615,-4088,-479,-1948,-11,-13,26,173,445,-277,1,0,41,39,720,0,53298,1
2,30964,29942,31759,62457,18621,-4056,-479,-1927,26,-7,-9,175,453,-275,1,0,41,39,760,0,53298,1
2,30983,29946,31759,62458,18626,-4061,-474,-1930,-35,0,-32,164,454,-280,1,0,41,39,800,0,53298,1
2,30961,29941,31759,62459,18632,-4065,-485,-1945,-114,-25,-45,172,452,-288,1,0,41,39,840,0,53298,1
2,30971,29936,31759,62460,18637,-4059,-469,-1964,-86,-92,-32,172,442,-290,1,0,41,39,880,0,53298,1
2,30971,29930,31758,62461,18642,-4058,-502,-1934,-81,-127,-38,173,457,-271,1,0,41,39,920,0,53298,1
2,30973,29931,31763,62462,18647,-4077,-492,-1915,-31,-96,11,171,451,-279,1,0,41,39,960,0,53298,1
1,30995,29935,31759,62463,0,-4070,-478,-1942,27,-4,36,176,456,-268,1,0,41,40,0,1,53298,1
2,30988,29930,31758,62464,18010,-4061,-475,-1926,108,87,1,169,453,-273,1,0,41,40,40,1,53298,1
2,30973,29938,31761,62465,18016,-4078,-476,-1931,110,167,-66,169,451,-281,1,0,41,40,80,1,53298,1
2,30980,29936,31761,62466,18021,-4049,-483,-1940,15,126,-79,174,448,-276,1,0,41,40,120,1,53298,1
2,30985,29943,31761,62467,18027,-4051,-477,-1949,-111,42,-18,172,446,-276,1,0,41,40,160,1,53298,1
2,30988,29942,31761,62468,18033,-4060,-500,-1956,-159,-35,17,167,455,-277,1,0,41,40,200,1,53298,1
2,30968,29940,31760,62469,18040,-4061,-487,-1942,-33,-52,32,169,451,-267,1,0,41,40,240,1,53298,1
2,30981,29939,31760,62470,18046,-4069,-506,-1940,-71,-65,61,169,455,-277,1,0,41,40,280,1,53298,1
2,30969,29940,31758,62471,18052,-4066,-488,-1921,-96,-67,103,171,463,-273,1,0,41,40,320,1,53298,1
2,30985,29935,31760,62472,18058,-4062,-474,-1930,-86,-94,117,172,454,-278,1,0,41,40,360,1,53298,1
2,30980,29937,31760,62473,18064,-4061,-487,-1917,-106,-117,109,174,454,-280,1,0,41,40,400,1,53298,1
2,30985,29935,31759,62474,18070,-4076,-470,-1912,-109,-90,118,166,448,-264,1,0,41,40,440,1,53298,1
2,30969,29942,31759,62475,18075,-4072,-473,-1928,-100,-99,90,167,455,-269,1,0,41,40,480,1,53298,1
2,30975,29936,31760,62476,18081,-4063,-474,-1947,-27,-89,51,175,459,-279,1,0,41,40,520,1,53298,1
2,30958,29936,31760,62477,18088,-4074,-474,-1917,7,-69,8,174,450,-280,1,0,41,40,560,1,53298,1
2,30966,29932,31762,62478,18095,-4091,-480,-1915,28,-18,-8,174,444,-280,1,0,41,40,600,1,53298,1
2,30982,29936,31761,62479,18101,-4075,-482,-1921,18,17,-2,172,450,-276,1,0,41,40,640,1,53298,1
2,30983,29932,31759,62480,18107,-4066,-461,-1929,5,28,4,175,453,-275,1,0,41,40,680,1,53298,1
2,30979,29942,31758,62481,18112,-4074,-476,-1929,29,-11,-31,173,445,-273,1,0,41,40,720,1,53298,1
2,30975,29943,31758,62482,18118,-4072,-474,-1926,11,-15,-18,173,451,-277,1,0,41,40,760,1,53298,1
2,30940,29942,31758,62483,18124,-4057,-466,-1939,-8,-21,-10,163,451,-283,1,0,41,40,800,1,53298,1
2,30964,29942,31760,62484,18129,-4070,-481,-1935,5,-25,-19,182,454,-282,1,0,41,40,840,1,53298,1
2,30960,29950,31758,62485,18135,-4079,-489,-1924,0,-31,-23,174,456,-276,1,0,41,40,880,1,53298,1
2,30961,29934,31760,62486,18141,-4076,-488,-1934,2,-48,-23,172,454,-280,1,0,41,40,920,1,53298,1
2,30963,29934,31754,62487,18147,-4059,-472,-1922,-3,-58,-32,178,450,-274,1,0,41,40,960,1,53298,1
1,30963,29928,31756,62488,0,-4088,-483,-1925,15,-35,-32,173,457,-281,1,0,41,41,0,0,53298,1
2,30979,29925,31755,62489,17515,-4070,-486,-1927,15,-11,-9,174,456,-276,1,0,41,41,40,0,53298,1
2,30962,29926,31759,62490,17521,-4061,-466,-1926,30,24,0,186,446,-272,1,0,41,41,80,0,53298,1
2,30955,29923,31760,62491,17528,-4075,-477,-1919,36,37,-9,173,445,-281,1,0,41,41,120,0,53298,1
2,30972,29920,31759,62492,17535,-4059,-489,-1941,5,34,-11,175,461,-287,1,0,41,41,160,0,53298,1
2,30949,29920,31756,62493,17543,-4065,-474,-1944,7,14,-14,170,446,-284,1,0,41,41,200,0,53298,1
2,30972,29929,31756,62494,17550,-4066,-483,-1927,20,-18,-22,182,456,-278,1,0,41,41,240,0,53298,1
2,30966,29923,31758,62495,17556,-4062,-484,-1913,8,-32,-25,170,450,-278,1,0,41,41,280,0,53298,1
2,30970,29925,31754,62496,17562,-4069,-482,-1920,-1,-27,-2,176,452,-282,1,0,41,41,320,0,53298,1
2,30961,29931,31756,62497,17569,-4071,-483,-1923,-9,-9,21,172,442,-272,1,0,41,41,360,0,53298,1
2,30949,29928,31757,62498,17575,-4072,-489,-1926,-10,-2,41,165,445,-277,1,0,41,41,400,0,53298,1
2,30932,29926,31753,62499,17582,-4064,-482,-1935,-17,-12,53,176,452,-284,1,0,41,41,440,0,53298,1
2,30969,29931,31756,62500,17588,-4067,-485,-1937,-34,-26,43,174,454,-274,1,0,41,41,480,0,53298,1
2,30959,29937,31759,62501,17595,-4069,-476,-1922,-15,-38,14,171,453,-279,1,0,41,41,520,0,53298,1
2,30958,29932,31756,62502,17602,-4059,-480,-1912,-6,-28,8,166,448,-268,1,0,41,41,560,0,53298,1
2,30963,29923,31759,62503,17609,-4070,-486,-1921,-14,-26,14,174,450,-278,1,0,41,41,600,0,53298,1
2,30972,29922,31754,62504,17616,-4072,-488,-1914,-2,-14,20,175,453,-281,1,0,41,41,640,0,53298,1
2,30961,29926,31758,62505,17622,-4070,-479,-1931,-2,3,23,180,452,-276,1,0,41,41,680,0,53298,1
2,30965,29932,31759,62506,17629,-4081,-494,-1928,0,7,17,175,449,-279,1,0,41,41,720,0,53298,1
2,30965,29933,31761,62507,17635,-4077,-489,-1908,11,-3,19,170,450,-278,1,0,41,41,760,0,53298,1
2,30979,29928,31759,62508,17642,-4066,-491,-1937,5,-13,17,167,451,-273,1,0,41,41,800,0,53298,1
2,30970,29944,31755,62509,17649,-4077,-490,-1932,-5,-19,6,172,454,-280,1,0,41,41,840,0,53298,1
2,30965,29930,31758,62510,17655,-4071,-483,-1929,-31,-8,17,164,452,-274,1,0,41,41,880,0,53298,1
2,30961,29930,31758,62511,17661,-4086,-493,-1928,-28,-11,14,178,454,-280,1,0,41,41,920,0,53298,1
2,30958,29934,31754,62512,17668,-4069,-479,-1930,-6,-39,30,171,453,-281,1,0,41,41,960,0,53298,1
1,30953,29930,31757,62513,0,-4078,-480,-1945,-30,-63,14,174,444,-280,1,0,41,42,0,1,53298,1
2,30962,29943,31757,62514,17018,-4071,-485,-1909,-34,-123,-7,174,446,-282,1,0,41,42,40,1,53298,1
2,30950,29936,31754,62515,17025,-4074,-491,-1922,-68,-104,24,176,452,-274,1,0,41,42,80,1,53298,1
2,30966,29933,31754,62516,17032,-4079,-496,-1913,-42,-58,52,175,447,-273,1,0,41,42,120,1,53298,1
2,30956,29942,31760,62517,17039,-4067,-464,-1911,-8,4,59,171,455,-277,1,0,41,42,160,1,53298,1
2,30967,29944,31757,62518,17045,-4068,-472,-1934,25,40,-3,176,450,-272,1,0,41,42,200,1,53298,1
2,30964,29948,31760,62519,17053,-4082,-478,-1935,38,17,-55,170,452,-280,1,0,41,42,240,1,53298,1
2,30954,29942,31758,62520,17061,-4068,-481,-1921,18,-27,-54,170,450,-284,1,0,41,42,280,1,53298,1
2,30985,29940,31754,62521,17068,-4072,-492,-1935,-18,-71,5,173,449,-269,1,0,41,42,320,1,53298,1
2,30960,29943,31756,62522,17076,-4087,-478,-1908,-23,-63,35,179,441,-281,1,0,41,42,360,1,53298,1
2,30972,29941,31755,62523,17083,-4082,-482,-1933,-70,-59,60,168,456,-282,1,0,41,42,400,1,53298,1
2,30986,29946,31761,62524,17090,-4077,-487,-1916,-73,-72,64,173,455,-281,1,0,41,42,440,1,53298,1
2,30965,29943,31758,62525,17097,-4078,-479,-1911,-55,-57,56,180,452,-278,1,0,41,42,480,1,53298,1
2,30978,29942,31759,62526,17104,-4088,-478,-1913,16,-39,3,177,451,-273,1,0,41,42,520,1,53298,1
2,30981,29944,31759,62527,17111,-4069,-481,-1911,31,-2,-33,177,451,-271,1,0,41,42,560,1,53298,1
2,30979,29939,31760,62528,17119,-4077,-495,-1920,-4,40,-53,169,455,-275,1,0,41,42,600,1,53298,1
2,30980,29941,31761,62529,17125,-4073,-469,-1918,-4,47,-49,173,451,-275,1,0,41,42,640,1,53298,1
2,30984,29952,31760,62530,17133,-4089,-493,-1937,-83,16,-46,173,463,-265,1,0,41,42,680,1,53298,1
2,30975,29948,31754,62531,17139,-4073,-492,-1913,-8,-16,-38,166,454,-276,1,0,41,42,720,1,53298,1
2,30983,29993,31755,62532,17146,-4084,-488,-1915,39,-42,-34,171,449,-277,1,0,41,42,760,1,53298,1
2,30962,29972,31752,62533,17153,-4081,-489,-1910,20,-82,-8,172,454,-280,1,0,41,42,800,1,53298,1
2,30955,29978,31746,62534,17160,-4110,-495,-1924,32,-93,-19,170,450,-276,1,0,41,42,840,1,53298,1
2,30958,29974,31754,62535,17167,-4089,-503,-1866,196,30,-64,172,446,-282,1,0,41,42,880,1,53298,1
2,30963,29939,31756,62536,17175,-4089,-510,-1908,136,280,41,177,455,-279,1,0,41,42,920,1,53298,1
2,30962,29946,31757,62537,17181,-4054,-501,-1988,-64,217,141,166,452,-278,1,0,41,42,960,1,53298,1
1,30967,29944,31756,62538,0,-4057,-489,-1962,-260,-112,211,175,447,-283,1,0,41,43,0,1,53298,1
2,30964,29948,31753,62539,16522,-4105,-458,-1922,-170,-349,149,175,451,-275,1,0,41,43,40,1,53298,1
2,30984,29943,31758,62540,16528,-4069,-451,-1887,2,-398,-63,173,449,-273,1,0,41,43,80,1,53298,1
2,30984,29940,31760,62541,16535,-4051,-484,-1858,-86,-279,-205,172,454,-268,1,0,41,43,120,1,53298,1
2,30988,29946,31758,62542,16542,-4100,-552,-1884,-358,-36,-56,176,456,-276,1,0,41,43,160,1,53298,1
2,30989,29943,31759,62543,16549,-4127,-480,-1899,-102,278,190,172,464,-278,1,0,41,43,200,1,53298,1
2,30985,29930,31758,62544,16556,-4049,-431,-1958,202,292,169,181,451,-275,1,0,41,43,240,1,53298,1
2,30994,29933,31758,62545,16563,-4079,-479,-1948,50,50,-1,163,455,-271,1,0,41,43,280,1,53298,1
2,30996,29934,31757,62546,16570,-4099,-497,-1935,-97,-177,-73,168,450,-270,1,0,41,43,320,1,53298,1
2,30986,29932,31760,62547,16576,-4058,-476,-1903,-6,-233,-38,176,454,-270,1,0,41,43,360,1,53298,1
2,30984,29935,31757,62548,16583,-4087,-489,-1886,37,-130,38,165,455,-287,1,0,41,43,400,1,53298,1
2,30976,29935,31759,62549,16591,-4096,-466,-1894,18,16,72,174,450,-264,1,0,41,43,440,1,53298,1
2,30966,29941,31759,62550,16598,-4080,-480,-1921,-56,83,29,165,451,-281,1,0,41,43,480,1,53298,1
2,30983,29945,31758,62551,16605,-4071,-482,-1939,-2,57,5,178,450,-286,1,0,41,43,520,1,53298,1
2,30979,29938,31759,62552,16612,-4080,-476,-1924,82,-5,1,175,453,-269,1,0,41,43,560,1,53298,1
2,30981,29937,31761,62553,16619,-4082,-480,-1935,83,-81,-19,169,449,-271,1,0,41,43,600,1,53298,1
2,30978,29939,31758,62554,16626,-4076,-508,-1892,10,-178,-7,177,459,-275,1,0,41,43,640,1,53298,1
2,30975,29942,31756,62555,16634,-4110,-463,-1883,-48,-97,50,172,450,-274,1,0,41,43,680,1,53298,1
2,30990,29945,31759,62556,16642,-4073,-467,-1888,-89,-2,63,170,450,-272,1,0,41,43,720,1,53298,1
2,30986,29943,31756,62557,16650,-4085,-464,-1910,-20,101,16,177,459,-269,1,0,41,43,760,1,53298,1
2,30990,29965,31759,62558,16658,-4088,-497,-1922,4,94,-11,176,446,-274,1,0,41,43,800,1,53298,1
2,30986,29966,31753,62559,16664,-4087,-475,-1916,-53,-24,9,173,457,-277,1,0,41,43,840,1,53298,1
2,30991,29966,31753,62560,16670,-4076,-499,-1899,-52,-89,93,179,455,-279,1,0,41,43,880,1,53298,1
2,30990,29960,31751,62561,16677,-4103,-449,-1895,-50,-13,116,168,452,-272,1,0,41,43,920,1,53298,1
2,30987,29965,31755,62562,16685,-4082,-464,-1899,-31,103,57,167,445,-277,1,0,41,43,960,1,53298,1
1,30988,29937,31760,62563,0,-4066,-477,-1937,5,179,-10,173,449,-269,1,0,41,44,0,0,53298,1
2,30977,29936,31751,62564,16027,-4083,-474,-1917,67,92,-33,173,451,-273,1,0,41,44,40,0,53298,1
2,30970,29960,31751,62565,16034,-4099,-484,-1939,-30,-60,-5,176,448,-280,1,0,41,44,80,0,53298,1
2,30965,29952,31756,62566,16042,-4073,-499,-1901,-34,-148,35,172,452,-280,1,0,41,44,120,0,53298,1
2,30968,29958,31756,62567,16049,-4083,-464,-1898,-28,-70,96,173,447,-281,1,0,41,44,160,0,53298,1
2,30954,29974,31753,62568,16057,-4071,-467,-1913,5,38,70,183,451,-275,1,0,41,44,200,0,53298,1
2,30950,29957,31751,62569,16064,-4091,-451,-1932,92,53,-26,171,455,-279,1,0,41,44,240,0,53298,1
2,30954,29952,31755,62570,16073,-4073,-499,-1896,60,-31,-121,180,456,-280,1,0,41,44,280,0,53298,1
2,30960,29942,31752,62571,16081,-4085,-490,-1878,102,22,-50,170,452,-276,1,0,41,44,320,0,53298,1
2,30959,29937,31754,62572,16089,-4069,-482,-1915,160,157,85,172,448,-276,1,0,41,44,360,0,53298,1
2,30950,29937,31757,62573,16096,-4063,-462,-1941,94,185,110,168,446,-276,1,0,41,44,400,0,53298,1
2,30950,29940,31749,62574,16104,-4079,-464,-1932,42,125,85,170,458,-274,1,0,41,44,440,0,53298,1
2,30950,29939,31750,62575,16111,-4084,-492,-1941,-21,-16,79,173,443,-283,1,0,41,44,480,0,53298,1
2,30947,29955,31749,62576,16119,-4064,-463,-1923,-61,-164,67,173,447,-273,1,0,41,44,520,0,53298,1
2,30958,29941,31755,62577,16126,-4093,-475,-1893,-94,-179,37,175,451,-281,1,0,41,44,560,0,53298,1
2,30958,29933,31752,62578,16133,-4072,-471,-1895,-93,-55,15,171,453,-275,1,0,41,44,600,0,53298,1
2,30941,29929,31755,62579,16140,-4066,-477,-1917,2,156,17,173,449,-281,1,0,41,44,640,0,53298,1
2,30955,29936,31754,62580,16147,-4075,-464,-1951,155,300,-35,170,460,-272,1,0,41,44,680,0,53298,1
2,30948,29937,31754,62581,16153,-4076,-469,-1962,153,173,-139,168,450,-278,1,0,41,44,720,0,53298,1
2,30947,29938,31756,62582,16159,-4069,-514,-1948,-6,-51,-125,177,455,-269,1,0,41,44,760,0,53298,1
2,30943,29943,31756,62583,16165,-4080,-511,-1933,-77,-183,18,176,452,-274,1,0,41,44,800,0,53298,1
2,30947,29929,31750,62584,16171,-4075,-475,-1901,-9,-147,103,164,450,-272,1,0,41,44,840,0,53298,1
2,30951,29930,31757,62585,16177,-4070,-465,-1912,13,-79,74,183,453,-279,1,0,41,44,880,0,53298,1
2,30960,29929,31758,62586,16183,-4095,-479,-1928,-53,-19,60,172,452,-286,1,0,41,44,920,0,53298,1
2,30952,29932,31757,62587,16189,-4074,-474,-1931,-52,-53,28,170,446,-272,1,0,41,44,960,0,53298,1
1,30957,29934,31754,62588,0,-4061,-477,-1912,18,-91,1,182,450,-276,1,0,41,45,0,1,53298,1
2,30972,29933,31758,62589,15530,-4083,-493,-1891,47,9,42,173,461,-277,1,0,41,45,40,1,53298,1
2,30968,29931,31756,62590,15536,-4077,-476,-1925,86,160,60,175,453,-283,1,0,41,45,80,1,53298,1
2,30968,29962,31757,62591,15543,-4058,-472,-1936,37,144,40,174,442,-276,1,0,41,45,120,1,53298,1
2,30962,29954,31749,62592,15549,-4091,-486,-1948,-39,30,23,169,451,-273,1,0,41,45,160,1,53298,1
2,30972,29956,31753,62593,15555,-4081,-470,-1919,8,-73,-21,178,454,-278,1,0,41,45,200,1,53298,1
2,30969,29961,31749,62594,15562,-4070,-479,-1917,17,-49,-31,169,453,-279,1,0,41,45,240,1,53298,1
2,30963,29974,31755,62595,15569,-4076,-494,-1902,-53,11,24,164,442,-272,1,0,41,45,280,1,53298,1
2,30966,29974,31752,62596,15575,-4088,-480,-1923,-46,56,127,172,450,-276,1,0,41,45,320,1,53298,1
2,30967,29961,31754,62597,15581,-4051,-449,-1936,44,41,109,170,454,-278,1,0,41,45,360,1,53298,1
2,30960,29953,31751,62598,15588,-4060,-463,-1931,-15,-44,44,174,462,-282,1,0,41,45,400,1,53298,1
2,30960,29952,31752,62599,15595,-4086,-476,-1945,-129,-126,18,168,454,-286,1,0,41,45,440,1,53298,1
2,30963,29953,31758,62600,15602,-4069,-470,-1922,-101,-215,-49,169,443,-277,1,0,41,45,480,1,53298,1
2,30964,29955,31751,62601,15609,-4069,-465,-1899,-95,-272,-89,172,448,-276,1,0,41,45,520,1,53298,1
2,30960,29945,31755,62602,15615,-4084,-489,-1869,-155,-228,-34,174,444,-274,1,0,41,45,560,1,53298,1
2,30955,29930,31756,62603,15622,-4076,-471,-1895,-133,-95,47,168,462,-272,1,0,41,45,600,1,53298,1
2,30945,29928,31757,62604,15629,-4065,-466,-1904,-31,-5,24,176,450,-268,1,0,41,45,640,1,53298,1
2,30953,29928,31756,62605,15636,-4105,-495,-1903,64,65,7,172,456,-282,1,0,41,45,680,1,53298,1
2,30952,29931,31755,62606,15642,-4086,-484,-1907,81,127,29,166,448,-280,1,0,41,45,720,1,53298,1
2,30964,29933,31752,62607,15649,-4055,-462,-1919,96,125,25,173,457,-271,1,0,41,45,760,1,53298,1
2,30955,29939,31752,62608,15656,-4081,-462,-1914,58,85,10,172,450,-282,1,0,41,45,800,1,53298,1
2,30955,29932,31756,62609,15663,-4079,-477,-1924,21,10,2,167,453,-275,1,0,41,45,840,1,53298,1
2,30962,29932,31754,62610,15670,-4085,-490,-1914,-2,-43,8,168,446,-274,1,0,41,45,880,1,53298,1
2,30952,29923,31756,62611,15677,-4077,-479,-1927,-7,-27,58,174,456,-274,1,0,41,45,920,1,53298,1
2,30967,29928,31751,62612,15684,-4073,-459,-1921,78,5,34,174,448,-278,1,0,41,45,960,1,53298,1
1,30963,29925,31759,62613,0,-4085,-449,-1945,21,-4,-45,172,444,-276,1,0,41,46,0,1,53298,1
2,30967,29925,31758,62614,15034,-4063,-485,-1931,107,1,-128,169,451,-275,1,0,41,46,40,1,53298,1
2,30958,29924,31751,62615,15041,-4068,-472,-1915,86,9,-141,176,440,-274,1,0,41,46,80,1,53298,1
2,30955,29927,31756,62616,15047,-4087,-500,-1917,-70,-83,-73,175,451,-281,1,0,41,46,120,1,53298,1
2,30955,29935,31756,62617,15052,-4056,-483,-1914,-67,-105,-11,177,451,-265,1,0,41,46,160,1,53298,1
2,30955,29925,31755,62618,15059,-4067,-478,-1893,71,-10,0,164,452,-274,1,0,41,46,200,1,53298,1
