sensorStatus,cap1,cap2,cap3,counter,microseconds_since_last_tick,accX,accY,accZ,gyroX,gyroY,gyroZ,magnetX,magnetY,magnetZ,day,hour,min,sec,msec,sync,battery_fuel,crc_good
2,29780,30750,32195,50489,9582,-4219,916,-712,-2,-15,26,55,471,-171,1,0,33,41,40,0,53298,1
2,29763,30752,32199,50490,9607,-4207,926,-701,18,-5,9,52,468,-164,1,0,33,41,80,0,53298,1
2,29776,30755,32192,50491,9631,-4213,918,-700,6,1,26,41,467,-155,1,0,33,41,120,0,53298,1
2,29772,30754,32192,50492,9656,-4205,909,-723,1,4,20,63,463,-161,1,0,33,41,160,0,53298,1
2,29756,30755,32198,50493,9682,-4222,905,-711,21,-6,15,54,464,-164,1,0,33,41,200,0,53298,1
2,29773,30752,32201,50494,9707,-4200,920,-708,12,-18,14,54,470,-166,1,0,33,41,240,0,53298,1
2,29755,30753,32193,50495,9733,-4212,918,-709,-9,-10,24,57,463,-169,1,0,33,41,280,0,53298,1
2,29762,30755,32199,50496,9758,-4217,912,-715,6,-15,29,55,465,-167,1,0,33,41,320,0,53298,1
2,29766,30753,32194,50497,9782,-4207,923,-702,12,-9,16,52,464,-170,1,0,33,41,360,0,53298,1
2,29782,30752,32201,50498,9807,-4216,904,-710,4,-5,21,58,464,-166,1,0,33,41,400,0,53298,1
2,29758,30754,32192,50499,9832,-4212,916,-713,4,-1,11,59,461,-167,1,0,33,41,440,0,53298,1
2,29768,30753,32191,50500,9857,-4215,910,-725,8,-6,15,59,471,-169,1,0,33,41,480,0,53298,1
2,29770,30752,32199,50501,9880,-4212,918,-724,12,-9,17,52,466,-160,1,0,33,41,520,0,53298,1
2,29770,30755,32200,50502,9904,-4218,931,-707,2,-4,24,55,469,-161,1,0,33,41,560,0,53298,1
2,29772,30753,32205,50503,9928,-4213,914,-726,8,-9,22,48,472,-168,1,0,33,41,600,0,53298,1
2,29765,30753,32196,50504,9952,-4221,916,-704,7,-14,26,57,475,-175,1,0,33,41,640,0,53298,1
2,29755,30754,32205,50505,9976,-4218,918,-716,4,-18,15,55,467,-161,1,0,33,41,680,0,53298,1
2,29770,30755,32201,50506,10000,-4214,911,-713,12,-4,23,61,471,-155,1,0,33,41,720,0,53298,1
2,29779,30753,32190,50507,10024,-4205,920,-704,12,3,19,62,460,-166,1,0,33,41,760,0,53298,1
2,29776,30754,32195,50508,10047,-4200,923,-712,18,-1,14,54,468,-168,1,0,33,41,800,0,53298,1
2,29770,30751,32190,50509,10072,-4219,928,-699,12,3,23,64,468,-170,1,0,33,41,840,0,53298,1
2,29779,30752,32195,50510,10096,-4212,911,-708,12,-2,13,57,465,-159,1,0,33,41,880,0,53298,1
2,29750,30753,32192,50511,10120,-4213,911,-709,25,-1,19,57,467,-173,1,0,33,41,920,0,53298,1
2,29748,30750,32188,50512,10145,-4207,922,-711,15,-4,18,55,465,-161,1,0,33,41,960,0,53298,1
1,29756,30751,32190,50513,0,-4228,904,-713,-8,-12,30,64,470,-166,1,0,33,42,0,1,53298,1
2,29750,30753,32190,50514,9140,-4227,903,-716,11,-10,23,62,466,-164,1,0,33,42,40,1,53298,1
2,29744,30749,32191,50515,9165,-4220,921,-718,26,-3,33,57,465,-179,1,0,33,42,80,1,53298,1
2,29748,30748,32200,50516,9190,-4219,911,-718,6,5,20,58,468,-158,1,0,33,42,120,1,53298,1
2,29744,30748,32190,50517,9214,-4219,906,-707,-9,-13,1,54,458,-162,1,0,33,42,160,1,53298,1
2,29744,30744,32186,50518,9239,-4220,898,-712,3,-23,11,57,463,-165,1,0,33,42,200,1,53298,1
2,29720,30741,32195,50519,9263,-4218,915,-708,3,-13,21,61,469,-171,1,0,33,42,240,1,53298,1
2,29745,30742,32190,50520,9289,-4202,920,-713,17,7,36,60,468,-162,1,0,33,42,280,1,53298,1
2,29752,30740,32186,50521,9314,-4211,928,-700,115,57,49,48,460,-162,1,0,33,42,320,1,53298,1
2,29737,30742,32195,50522,9338,-4212,927,-687,209,144,44,57,465,-179,1,0,33,42,360,1,53298,1
2,29750,30744,32190,50523,9362,-4200,946,-726,208,206,2,60,466,-168,1,0,33,42,400,1,53298,1
2,29739,30742,32186,50524,9386,-4218,917,-764,138,169,-38,56,462,-170,1,0,33,42,440,1,53298,1
2,29751,30740,32189,50525,9409,-4212,895,-739,57,72,-33,54,466,-156,1,0,33,42,480,1,53298,1
2,29746,30741,32190,50526,9433,-4218,913,-723,92,-26,16,52,468,-164,1,0,33,42,520,1,53298,1
2,29748,30742,32188,50527,9457,-4209,927,-726,-7,-47,44,52,466,-168,1,0,33,42,560,1,53298,1
2,29758,30744,32197,50528,9481,-4213,906,-732,-162,-79,42,51,465,-169,1,0,33,42,600,1,53298,1
2,29736,30744,32194,50529,9504,-4215,894,-736,-193,-161,78,56,468,-170,1,0,33,42,640,1,53298,1
2,29758,30745,32205,50530,9528,-4209,913,-721,-168,-264,116,56,474,-166,1,0,33,42,680,1,53298,1
2,29771,30747,32208,50531,9552,-4207,914,-702,-275,-309,162,58,466,-156,1,0,33,42,720,1,53298,1
2,29778,30749,32210,50532,9576,-4210,924,-672,-293,-258,192,51,465,-153,1,0,33,42,760,1,53298,1
2,29771,30750,32207,50533,9600,-4209,933,-680,-169,-82,137,51,463,-155,1,0,33,42,800,1,53298,1
2,29780,30748,32216,50534,9624,-4205,952,-635,146,75,37,53,469,-161,1,0,33,42,840,1,53298,1
2,29756,30747,32207,50535,9648,-4213,924,-711,204,278,-73,55,465,-169,1,0,33,42,880,1,53298,1
2,29759,30745,32198,50536,9671,-4217,905,-740,214,300,-145,53,459,-167,1,0,33,42,920,1,53298,1
2,29780,30746,32219,50537,9695,-4207,912,-759,212,175,-113,52,468,-166,1,0,33,42,960,1,53298,1
1,29782,30746,32209,50538,0,-4226,887,-762,91,32,-17,53,471,-171,1,0,33,43,0,1,53298,1
2,29771,30746,32205,50539,8698,-4220,925,-708,22,-100,69,53,461,-163,1,0,33,43,40,1,53298,1
2,29770,30745,32200,50540,8721,-4224,922,-700,-51,-113,100,63,459,-169,1,0,33,43,80,1,53298,1
2,29773,30747,32208,50541,8744,-4214,931,-708,-86,-75,74,56,468,-166,1,0,33,43,120,1,53298,1
2,29762,30747,32200,50542,8768,-4210,919,-705,-37,-39,46,53,471,-157,1,0,33,43,160,1,53298,1
2,29751,30747,32207,50543,8792,-4215,921,-702,30,0,31,51,461,-163,1,0,33,43,200,1,53298,1
2,29778,30749,32207,50544,8816,-4205,927,-711,56,35,19,50,474,-160,1,0,33,43,240,1,53298,1
2,29768,30749,32205,50545,8840,-4217,921,-718,31,57,11,55,459,-163,1,0,33,43,280,1,53298,1
2,29783,30749,32207,50546,8865,-4219,911,-719,62,46,-7,50,466,-172,1,0,33,43,320,1,53298,1
2,29779,30749,32208,50547,8889,-4219,913,-730,45,24,-18,57,469,-163,1,0,33,43,360,1,53298,1
2,29782,30749,32213,50548,8913,-4219,920,-738,19,-1,-8,51,471,-169,1,0,33,43,400,1,53298,1
2,29774,30747,32206,50549,8937,-4201,916,-725,-8,-20,11,56,468,-166,1,0,33,43,440,1,53298,1
2,29763,30748,32217,50550,8961,-4207,933,-718,-18,-25,34,52,462,-172,1,0,33,43,480,1,53298,1
2,29777,30750,32216,50551,8984,-4207,932,-716,4,-18,35,58,472,-166,1,0,33,43,520,1,53298,1
2,29790,30747,32210,50552,9007,-4207,927,-721,8,-5,31,54,464,-162,1,0,33,43,560,1,53298,1
2,29770,30749,32208,50553,9031,-4207,930,-736,-24,-7,19,51,465,-167,1,0,33,43,600,1,53298,1
2,29763,30749,32210,50554,9055,-4205,922,-731,-26,-37,6,61,465,-163,1,0,33,43,640,1,53298,1
2,29769,30750,32208,50555,9079,-4222,926,-728,-28,-64,3,64,466,-168,1,0,33,43,680,1,53298,1
2,29758,30749,32218,50556,9102,-4211,923,-705,-24,-57,9,54,462,-172,1,0,33,43,720,1,53298,1
2,29783,30751,32206,50557,9127,-4202,924,-703,-22,-26,13,54,478,-166,1,0,33,43,760,1,53298,1
2,29779,30750,32208,50558,9150,-4220,913,-720,2,8,36,58,468,-168,1,0,33,43,800,1,53298,1
2,29776,30752,32209,50559,9174,-4217,921,-715,26,22,41,50,468,-168,1,0,33,43,840,1,53298,1
2,29784,30752,32191,50560,9198,-4216,908,-715,68,48,32,58,474,-172,1,0,33,43,880,1,53298,1
2,29781,30750,32206,50561,9221,-4213,923,-696,176,82,29,59,467,-163,1,0,33,43,920,1,53298,1
2,29777,30749,32206,50562,9245,-4191,941,-694,287,147,16,55,465,-161,1,0,33,43,960,1,53298,1
1,29783,30750,32220,50563,0,-4188,943,-757,83,192,-67,44,468,-174,1,0,33,44,0,1,53298,1
2,29798,30750,32207,50564,8255,-4210,921,-740,199,123,-207,60,466,-170,1,0,33,44,40,1,53298,1
2,29802,30750,32214,50565,8279,-4238,912,-730,335,80,-328,59,471,-167,1,0,33,44,80,1,53298,1
2,29814,30751,32218,50566,8303,-4200,898,-726,-13,101,-239,55,471,-171,1,0,33,44,120,1,53298,1
2,29802,30750,32220,50567,8327,-4223,807,-821,-575,-26,89,58,462,-162,1,0,33,44,160,1,53298,1
2,29792,30751,32215,50568,8351,-4223,894,-732,-208,-305,364,52,476,-172,1,0,33,44,200,1,53298,1
2,29800,30750,32215,50569,8375,-4199,976,-684,239,-418,386,54,462,-172,1,0,33,44,240,1,53298,1
2,29775,30752,32217,50570,8400,-4188,972,-640,-136,-221,208,54,468,-158,1,0,33,44,280,1,53298,1
2,29775,30750,32213,50571,8424,-4237,902,-729,-463,1,69,52,462,-166,1,0,33,44,320,1,53298,1
2,29782,30750,32209,50572,8448,-4180,908,-714,-46,14,-13,66,464,-160,1,0,33,44,360,1,53298,1
2,29775,30751,32220,50573,8472,-4235,937,-696,364,30,-6,58,470,-176,1,0,33,44,400,1,53298,1
2,29779,30754,32208,50574,8496,-4196,960,-694,161,119,-72,51,461,-155,1,0,33,44,440,1,53298,1
2,29780,30755,32217,50575,8521,-4211,908,-738,-115,182,-104,47,477,-153,1,0,33,44,480,1,53298,1
2,29787,30754,32213,50576,8545,-4216,903,-735,150,109,-111,54,468,-166,1,0,33,44,520,1,53298,1
2,29791,30753,32212,50577,8568,-4219,925,-735,227,23,-80,58,468,-170,1,0,33,44,560,1,53298,1
2,29798,30752,32206,50578,8592,-4223,883,-736,-144,-22,-65,56,464,-170,1,0,33,44,600,1,53298,1
2,29792,30753,32219,50579,8616,-4220,892,-739,-159,-88,-7,54,462,-164,1,0,33,44,640,1,53298,1
2,29806,30753,32213,50580,8641,-4216,915,-702,60,-72,42,52,474,-158,1,0,33,44,680,1,53298,1
2,29797,30753,32210,50581,8666,-4219,925,-696,104,42,51,49,465,-165,1,0,33,44,720,1,53298,1
2,29796,30752,32216,50582,8691,-4213,925,-709,85,171,16,58,468,-160,1,0,33,44,760,1,53298,1
2,29786,30753,32212,50583,8717,-4213,903,-764,55,193,6,60,468,-172,1,0,33,44,800,1,53298,1
2,29791,30753,32221,50584,8742,-4226,893,-776,71,66,17,53,469,-169,1,0,33,44,840,1,53298,1
2,29793,30753,32214,50585,8767,-4222,901,-748,1,-100,52,47,471,-163,1,0,33,44,880,1,53298,1
2,29789,30754,32206,50586,8792,-4208,924,-721,-109,-195,92,52,464,-168,1,0,33,44,920,1,53298,1
2,29792,30754,32219,50587,8816,-4208,926,-693,-161,-204,103,58,472,-170,1,0,33,44,960,1,53298,1
1,29797,30752,32206,50588,0,-4214,925,-699,-137,-134,77,65,463,-167,1,0,33,45,0,1,53298,1
2,29800,30754,32210,50589,7812,-4206,931,-684,-43,-44,33,56,472,-168,1,0,33,45,40,1,53298,1
2,29796,30752,32211,50590,7835,-4212,924,-706,35,55,-7,57,465,-163,1,0,33,45,80,1,53298,1
2,29809,30753,32217,50591,7859,-4215,903,-721,66,111,-26,48,472,-160,1,0,33,45,120,1,53298,1
2,29795,30751,32214,50592,7883,-4217,913,-736,93,111,-11,55,459,-159,1,0,33,45,160,1,53298,1
2,29808,30752,32214,50593,7907,-4214,903,-726,82,60,17,54,470,-168,1,0,33,45,200,1,53298,1
2,29790,30755,32211,50594,7931,-4223,917,-725,32,-4,34,59,465,-169,1,0,33,45,240,1,53298,1
2,29797,30755,32214,50595,7955,-4207,907,-743,-28,-55,35,55,457,-171,1,0,33,45,280,1,53298,1
2,29800,30752,32215,50596,7979,-4217,906,-733,-53,-75,39,58,456,-174,1,0,33,45,320,1,53298,1
2,29784,30750,32210,50597,8003,-4212,914,-716,-28,-58,52,52,466,-170,1,0,33,45,360,1,53298,1
2,29774,30745,32201,50598,8028,-4219,916,-711,10,-4,59,54,470,-172,1,0,33,45,400,1,53298,1
2,29780,30746,32198,50599,8053,-4207,923,-706,53,56,40,60,468,-170,1,0,33,45,440,1,53298,1
2,29764,30745,32195,50600,8077,-4224,920,-722,64,80,23,50,466,-170,1,0,33,45,480,1,53298,1
2,29770,30748,32206,50601,8102,-4201,922,-740,37,50,-6,56,474,-168,1,0,33,45,520,1,53298,1
2,29764,30750,32205,50602,8126,-4214,919,-739,36,5,-10,53,467,-163,1,0,33,45,560,1,53298,1
2,29791,30751,32207,50603,8151,-4209,915,-723,-8,-44,2,52,474,-166,1,0,33,45,600,1,53298,1
2,29790,30747,32205,50604,8175,-4211,916,-718,-25,-56,28,53,475,-161,1,0,33,45,640,1,53298,1
2,29781,30749,32212,50605,8199,-4213,915,-710,-22,-35,39,53,481,-175,1,0,33,45,680,1,53298,1
2,29779,30749,32208,50606,8223,-4208,918,-705,1,-15,41,58,476,-174,1,0,33,45,720,1,53298,1
2,29771,30747,32215,50607,8246,-4212,914,-711,-2,7,23,59,469,-171,1,0,33,45,760,1,53298,1
2,29774,30750,32207,50608,8269,-4204,917,-725,8,5,1,52,466,-172,1,0,33,45,800,1,53298,1
2,29761,30749,32217,50609,8293,-4219,915,-716,27,2,-1,54,470,-166,1,0,33,45,840,1,53298,1
2,29765,30753,32206,50610,8317,-4207,921,-720,36,7,15,56,466,-170,1,0,33,45,880,1,53298,1
2,29777,30750,32214,50611,8341,-4212,917,-713,51,27,58,52,470,-154,1,0,33,45,920,1,53298,1
2,29776,30752,32203,50612,8365,-4215,920,-722,52,50,51,55,473,-175,1,0,33,45,960,1,53298,1
1,29780,30750,32201,50613,7370,-4214,915,-728,33,36,37,57,463,-171,1,0,33,46,0,1,53298,1
2,29774,30750,32201,50614,7393,-4216,907,-734,-12,-4,23,54,460,-170,1,0,33,46,40,1,53298,1
2,29788,30751,32216,50615,7417,-4206,928,-722,-10,-35,7,58,462,-166,1,0,33,46,80,1,53298,1
2,29770,30747,32203,50616,7441,-4193,928,-730,6,-47,5,48,468,-160,1,0,33,46,120,1,53298,1
2,29775,30750,32206,50617,7465,-4219,916,-719,8,-7,18,63,467,-165,1,0,33,46,160,1,53298,1
2,29771,30749,32204,50618,7489,-4202,922,-730,-9,9,15,50,464,-174,1,0,33,46,200,1,53298,1
2,29776,30751,32206,50619,7512,-4217,912,-729,10,3,11,64,466,-168,1,0,33,46,240,1,53298,1
2,29778,30751,32207,50620,7536,-4209,929,-707,12,-16,21,52,472,-170,1,0,33,46,280,1,53298,1
2,29779,30753,32214,50621,7559,-4206,919,-726,19,-15,38,53,465,-173,1,0,33,46,320,1,53298,1
2,29766,30749,32207,50622,7582,-4212,921,-722,18,12,46,55,465,-171,1,0,33,46,360,1,53298,1
2,29777,30748,32209,50623,7582,-4205,915,-728,2,16,23,48,462,-158,1,0,33,46,400,1,53298,1
2,29768,30750,32208,50624,7629,-4216,912,-741,14,8,6,59,465,-171,1,0,33,46,440,1,53298,1
2,29768,30748,32206,50625,7629,-4223,913,-736,12,-10,8,57,465,-163,1,0,33,46,480,1,53298,1
2,29765,30748,32211,50626,7652,-4207,925,-725,-2,-20,11,55,465,-157,1,0,33,46,520,1,53298,1
2,29760,30749,32208,50627,7676,-4209,928,-727,2,-23,12,57,467,-175,1,0,33,46,560,1,53298,1
2,29759,30748,32202,50628,7699,-4202,921,-733,11,-14,32,55,465,-165,1,0,33,46,600,1,53298,1
2,29764,30750,32212,50629,7721,-4204,921,-724,-2,4,28,59,461,-169,1,0,33,46,640,1,53298,1
2,29761,30747,32199,50630,7745,-4203,921,-725,12,6,27,54,472,-164,1,0,33,46,680,1,53298,1
2,29770,30749,32200,50631,7768,-4208,913,-730,14,-8,18,61,465,-165,1,0,33,46,720,1,53298,1
2,29769,30751,32203,50632,7791,-4222,917,-721,10,-3,11,54,470,-176,1,0,33,46,760,1,53298,1
2,29763,30750,32202,50633,7815,-4213,914,-726,-4,0,-2,61,473,-165,1,0,33,46,800,1,53298,1
2,29779,30748,32206,50634,7839,-4218,915,-733,-4,-1,15,48,470,-162,1,0,33,46,840,1,53298,1
2,29785,30749,32206,50635,7862,-4220,906,-736,5,-12,18,46,468,-168,1,0,33,46,880,1,53298,1
2,29777,30751,32199,50636,7886,-4218,907,-726,23,-7,23,51,467,-161,1,0,33,46,920,1,53298,1
2,29770,30752,32208,50637,7909,-4204,925,-728,11,-4,20,52,472,-166,1,0,33,46,960,1,53298,1
1,29759,30751,32206,50638,6927,-4218,910,-721,3,3,24,60,468,-170,1,0,33,47,0,0,53298,1
2,29766,30754,32202,50639,6950,-4208,919,-722,17,-3,26,65,459,-163,1,0,33,47,40,0,53298,1
2,29763,30755,32199,50640,6973,-4206,931,-727,11,-6,18,50,474,-162,1,0,33,47,80,0,53298,1
2,29767,30750,32201,50641,6997,-4219,910,-729,7,-7,12,56,468,-172,1,0,33,47,120,0,53298,1
2,29762,30754,32199,50642,7020,-4223,905,-726,-6,-11,16,53,465,-179,1,0,33,47,160,0,53298,1
2,29777,30754,32201,50643,7042,-4221,908,-742,-1,-22,21,61,459,-165,1,0,33,47,200,0,53298,1
2,29759,30755,32208,50644,7065,-4218,913,-716,0,-18,15,53,471,-169,1,0,33,47,240,0,53298,1
2,29767,30755,32199,50645,7088,-4219,920,-724,0,-9,26,58,474,-172,1,0,33,47,280,0,53298,1
2,29775,30754,32196,50646,7111,-4204,923,-718,-3,-9,25,55,467,-173,1,0,33,47,320,0,53298,1
2,29768,30753,32198,50647,7133,-4203,917,-733,11,-4,18,51,475,-163,1,0,33,47,360,0,53298,1
2,29779,30752,32206,50648,7155,-4209,914,-730,9,-2,18,67,465,-157,1,0,33,47,400,0,53298,1
2,29764,30753,32196,50649,7177,-4213,911,-726,9,-3,15,51,475,-161,1,0,33,47,440,0,53298,1
2,29766,30753,32202,50650,7200,-4203,918,-715,6,6,11,61,469,-165,1,0,33,47,480,0,53298,1
2,29769,30752,32203,50651,7224,-4229,900,-718,16,0,21,59,471,-157,1,0,33,47,520,0,53298,1
2,29775,30752,32196,50652,7247,-4220,919,-730,12,-12,19,55,469,-161,1,0,33,47,560,0,53298,1
2,29784,30753,32205,50653,7270,-4207,920,-734,17,-6,30,46,466,-158,1,0,33,47,600,0,53298,1
2,29794,30753,32205,50654,7294,-4214,914,-717,17,-5,24,59,473,-165,1,0,33,47,640,0,53298,1
2,29782,30754,32191,50655,7318,-4219,926,-723,8,0,16,55,469,-161,1,0,33,47,680,0,53298,1
2,29776,30753,32199,50656,7341,-4209,911,-719,-3,3,23,55,475,-165,1,0,33,47,720,0,53298,1
2,29779,30752,32199,50657,7365,-4220,921,-723,8,-6,18,56,464,-172,1,0,33,47,760,0,53298,1
2,29780,30752,32208,50658,7388,-4223,911,-729,13,-8,23,51,463,-163,1,0,33,47,800,0,53298,1
2,29781,30752,32203,50659,7411,-4215,920,-731,-4,1,14,55,465,-165,1,0,33,47,840,0,53298,1
2,29785,30754,32198,50660,7434,-4225,917,-717,-7,-3,11,57,477,-177,1,0,33,47,880,0,53298,1
2,29785,30753,32200,50661,7457,-4209,920,-710,-4,-14,17,55,469,-165,1,0,33,47,920,0,53298,1
2,29759,30751,32202,50662,7457,-4218,915,-728,15,-17,24,61,473,-165,1,0,33,47,960,0,53298,1
1,29767,30752,32197,50663,6486,-4217,911,-716,-1,-6,18,55,469,-169,1,0,33,48,0,0,53298,1
2,29769,30750,32205,50664,6510,-4225,911,-735,-12,-1,20,55,473,-159,1,0,33,48,40,0,53298,1
2,29764,30749,32196,50665,6533,-4209,921,-730,6,-3,23,61,473,-165,1,0,33,48,80,0,53298,1
2,29765,30750,32200,50666,6556,-4204,919,-726,9,-4,19,54,470,-166,1,0,33,48,120,0,53298,1
2,29770,30750,32202,50667,6580,-4216,910,-718,-3,-5,23,56,466,-170,1,0,33,48,160,0,53298,1
2,29751,30747,32184,50668,6604,-4220,905,-719,-6,-4,19,55,469,-167,1,0,33,48,200,0,53298,1
2,29759,30749,32196,50669,6627,-4208,916,-715,4,-9,16,63,471,-173,1,0,33,48,240,0,53298,1
2,29710,30750,32202,50670,6650,-4229,918,-736,10,-1,18,55,473,-161,1,0,33,48,280,0,53298,1
2,29706,30752,32199,50671,6673,-4207,927,-714,21,6,19,59,471,-167,1,0,33,48,320,0,53298,1
2,29737,30750,32198,50672,6696,-4226,904,-715,21,1,21,51,467,-167,1,0,33,48,360,0,53298,1
2,29731,30751,32203,50673,6719,-4213,918,-721,11,-13,11,57,467,-165,1,0,33,48,400,0,53298,1
2,29730,30748,32199,50674,6743,-4223,920,-721,-1,-18,8,56,468,-170,1,0,33,48,440,0,53298,1
2,29717,30749,32205,50675,6767,-4219,915,-731,2,-12,9,55,465,-175,1,0,33,48,480,0,53298,1
2,29673,30749,32201,50676,6789,-4206,927,-728,25,1,15,51,469,-159,1,0,33,48,520,0,53298,1
2,29726,30751,32202,50677,6812,-4208,914,-743,7,10,7,59,463,-165,1,0,33,48,560,0,53298,1
2,29727,30750,32196,50678,6835,-4219,904,-726,15,2,7,57,471,-177,1,0,33,48,600,0,53298,1
2,29738,30751,32195,50679,6859,-4227,908,-731,0,-4,10,54,468,-166,1,0,33,48,640,0,53298,1
2,29730,30752,32202,50680,6881,-4211,923,-724,2,-23,26,57,469,-169,1,0,33,48,680,0,53298,1
2,29688,30753,32203,50681,6905,-4222,903,-711,0,-8,29,59,463,-167,1,0,33,48,720,0,53298,1
2,29727,30751,32197,50682,6928,-4220,914,-718,3,-13,43,57,465,-163,1,0,33,48,760,0,53298,1
2,29721,30755,32204,50683,6951,-4207,912,-734,4,-2,36,61,465,-171,1,0,33,48,800,0,53298,1
2,29721,30752,32202,50684,6974,-4211,915,-730,-1,6,16,48,466,-166,1,0,33,48,840,0,53298,1
2,29749,30753,32201,50685,6997,-4226,912,-725,15,-10,14,53,473,-161,1,0,33,48,880,0,53298,1
2,29731,30755,32206,50686,7020,-4212,917,-718,16,1,12,54,462,-176,1,0,33,48,920,0,53298,1
2,29723,30751,32203,50687,7020,-4210,917,-718,16,5,14,56,466,-168,1,0,33,48,960,0,53298,1
1,29743,30752,32209,50688,6044,-4227,911,-740,8,8,23,53,473,-173,1,0,33,49,0,0,53298,1
2,29798,30753,32207,50689,6067,-4202,917,-728,17,0,12,52,462,-166,1,0,33,49,40,0,53298,1
2,29810,30752,32210,50690,6091,-4236,915,-726,27,0,28,51,463,-169,1,0,33,49,80,0,53298,1
2,29800,30749,32190,50691,6115,-4204,922,-722,5,-1,23,56,468,-170,1,0,33,49,120,0,53298,1
2,29785,30749,32190,50692,6139,-4211,916,-728,-5,-7,22,57,461,-175,1,0,33,49,160,0,53298,1
2,29813,30752,32197,50693,6162,-4212,918,-727,13,-10,26,55,473,-161,1,0,33,49,200,0,53298,1
2,29789,30752,32204,50694,6186,-4222,917,-737,13,-6,26,61,461,-165,1,0,33,49,240,0,53298,1
2,29770,30752,32191,50695,6209,-4205,925,-714,-15,-3,17,56,464,-170,1,0,33,49,280,0,53298,1
2,29777,30754,32201,50696,6232,-4205,916,-706,-8,-11,6,57,461,-167,1,0,33,49,320,0,53298,1
2,29776,30750,32208,50697,6255,-4211,909,-731,7,-13,11,49,471,-157,1,0,33,49,360,0,53298,1
2,29770,30752,32205,50698,6277,-4217,914,-702,25,-12,22,60,468,-168,1,0,33,49,400,0,53298,1
2,29769,30751,32201,50699,6300,-4211,922,-721,10,11,30,54,472,-168,1,0,33,49,440,0,53298,1
2,29774,30751,32194,50700,6324,-4213,916,-740,6,24,31,54,464,-172,1,0,33,49,480,0,53298,1
2,29760,30750,32196,50701,6348,-4206,922,-731,8,-3,23,61,467,-167,1,0,33,49,520,0,53298,1
2,29790,30748,32194,50702,6372,-4220,912,-720,10,-24,18,59,469,-169,1,0,33,49,560,0,53298,1
2,29769,30746,32194,50703,6396,-4206,923,-739,-1,-25,18,56,460,-158,1,0,33,49,600,0,53298,1
2,29763,30746,32195,50704,6421,-4209,915,-723,-1,-21,21,58,476,-160,1,0,33,49,640,0,53298,1
2,29781,30750,32188,50705,6445,-4231,918,-725,10,-3,25,54,464,-170,1,0,33,49,680,0,53298,1
2,29758,30749,32190,50706,6469,-4225,908,-725,8,5,24,48,472,-174,1,0,33,49,720,0,53298,1
2,29743,30751,32194,50707,6493,-4223,914,-731,19,8,15,50,468,-166,1,0,33,49,760,0,53298,1
2,29754,30749,32192,50708,6517,-4214,917,-720,26,5,18,54,472,-158,1,0,33,49,800,0,53298,1
2,29753,30749,32201,50709,6541,-4213,912,-714,14,8,17,57,463,-165,1,0,33,49,840,0,53298,1
2,29736,30749,32197,50710,6565,-4221,920,-730,-4,-2,26,55,463,-171,1,0,33,49,880,0,53298,1
2,29738,30749,32190,50711,6590,-4207,925,-735,13,-10,19,62,462,-166,1,0,33,49,920,0,53298,1
2,29751,30750,32185,50712,6590,-4221,915,-713,6,-10,20,54,466,-162,1,0,33,49,960,0,53298,1
1,29738,30752,32195,50713,5602,-4213,916,-711,-4,-18,13,53,467,-159,1,0,33,50,0,0,53298,1
2,29736,30748,32191,50714,5627,-4227,895,-728,-3,-15,10,53,467,-173,1,0,33,50,40,0,53298,1
2,29733,30747,32197,50715,5651,-4215,910,-723,14,-4,20,60,466,-166,1,0,33,50,80,0,53298,1
2,29741,30746,32192,50716,5675,-4212,916,-728,24,3,29,56,462,-170,1,0,33,50,120,0,53298,1
2,29758,30748,32193,50717,5699,-4221,918,-721,9,16,23,56,466,-166,1,0,33,50,160,0,53298,1
2,29765,30746,32191,50718,5724,-4208,916,-721,17,6,18,55,471,-169,1,0,33,50,200,0,53298,1
2,29758,30749,32190,50719,5748,-4220,908,-725,3,-10,16,56,480,-168,1,0,33,50,240,0,53298,1
2,29745,30746,32189,50720,5773,-4227,917,-732,3,-14,17,54,472,-166,1,0,33,50,280,0,53298,1
2,29752,30748,32184,50721,5797,-4213,921,-716,0,-26,17,60,466,-166,1,0,33,50,320,0,53298,1
2,29749,30745,32187,50722,5821,-4210,920,-728,-2,-14,19,57,467,-159,1,0,33,50,360,0,53298,1
2,29755,30747,32190,50723,5844,-4224,912,-728,9,-3,15,55,469,-169,1,0,33,50,400,0,53298,1
2,29745,30748,32193,50724,5868,-4217,911,-730,11,3,16,62,462,-170,1,0,33,50,440,0,53298,1
2,29770,30750,32200,50725,5893,-4207,922,-725,15,-2,21,55,473,-167,1,0,33,50,480,0,53298,1
2,29741,30747,32197,50726,5917,-4221,913,-719,17,0,21,63,461,-169,1,0,33,50,520,0,53298,1
2,29749,30747,32201,50727,5941,-4208,923,-717,-1,-7,22,46,470,-158,1,0,33,50,560,0,53298,1
2,29734,30748,32191,50728,5966,-4216,913,-710,-2,-15,14,52,464,-168,1,0,33,50,600,0,53298,1
2,29732,30747,32200,50729,5990,-4206,898,-699,3,-12,23,54,472,-162,1,0,33,50,640,0,53298,1
2,29720,30749,32185,50730,6014,-4216,923,-713,19,-18,21,47,469,-161,1,0,33,50,680,0,53298,1
2,29720,30748,32186,50731,6038,-4217,923,-727,-2,-3,16,63,471,-165,1,0,33,50,720,0,53298,1
2,29740,30749,32199,50732,6061,-4212,914,-715,8,7,19,64,460,-166,1,0,33,50,760,0,53298,1
2,29742,30748,32204,50733,6085,-4211,928,-731,20,-1,20,62,468,-160,1,0,33,50,800,0,53298,1
2,29742,30750,32190,50734,6110,-4214,909,-738,4,2,15,58,470,-162,1,0,33,50,840,0,53298,1
2,29739,30749,32190,50735,6134,-4221,916,-719,4,-4,21,52,468,-162,1,0,33,50,880,0,53298,1
2,29755,30750,32194,50736,6159,-4211,920,-726,4,-17,14,51,461,-165,1,0,33,50,920,0,53298,1
2,29745,30750,32197,50737,6159,-4228,907,-725,1,-6,18,56,470,-166,1,0,33,50,960,0,53298,1
1,29760,30752,32190,50738,5161,-4219,911,-727,2,-4,23,50,464,-166,1,0,33,51,0,0,53298,1
2,29751,30749,32188,50739,5185,-4197,926,-719,7,-6,20,53,473,-171,1,0,33,51,40,0,53298,1
2,29759,30750,32192,50740,5209,-4226,896,-731,4,-9,24,57,467,-165,1,0,33,51,80,0,53298,1
2,29735,30749,32190,50741,5233,-4217,919,-714,17,0,14,50,458,-162,1,0,33,51,120,0,53298,1
2,29738,30748,32187,50742,5257,-4210,909,-712,22,-3,21,54,466,-166,1,0,33,51,160,0,53298,1
2,29727,30750,32191,50743,5280,-4219,901,-711,21,-2,20,58,462,-164,1,0,33,51,200,0,53298,1
2,29741,30753,32204,50744,5304,-4220,912,-711,2,0,27,61,469,-163,1,0,33,51,240,0,53298,1
2,29739,30751,32195,50745,5327,-4204,926,-719,-4,-15,26,57,463,-165,1,0,33,51,280,0,53298,1
2,29750,30752,32203,50746,5351,-4213,910,-726,4,-17,28,54,472,-174,1,0,33,51,320,0,53298,1
2,29748,30757,32199,50747,5376,-4217,916,-729,8,-11,20,56,464,-164,1,0,33,51,360,0,53298,1
2,29743,30753,32202,50748,5400,-4212,909,-701,2,-7,18,62,470,-162,1,0,33,51,400,0,53298,1
2,29748,30751,32201,50749,5423,-4207,923,-718,-2,-6,14,58,466,-162,1,0,33,51,440,0,53298,1
2,29750,30755,32205,50750,5447,-4212,915,-724,17,-3,16,60,470,-174,1,0,33,51,480,0,53298,1
2,29744,30754,32190,50751,5471,-4215,911,-723,14,3,20,52,472,-170,1,0,33,51,520,0,53298,1
2,29734,30752,32192,50752,5495,-4232,900,-730,6,8,26,56,476,-156,1,0,33,51,560,0,53298,1
2,29745,30753,32197,50753,5519,-4212,919,-721,11,-3,19,58,472,-166,1,0,33,51,600,0,53298,1
2,29740,30755,32201,50754,5543,-4220,917,-732,11,-13,15,54,464,-164,1,0,33,51,640,0,53298,1
2,29727,30752,32208,50755,5566,-4205,924,-723,-6,-9,24,52,464,-166,1,0,33,51,680,0,53298,1
2,29766,30754,32200,50756,5590,-4223,911,-719,-2,-2,13,54,470,-168,1,0,33,51,720,0,53298,1
2,29745,30754,32201,50757,5613,-4215,909,-723,13,-7,24,54,468,-170,1,0,33,51,760,0,53298,1
2,29762,30754,32205,50758,5637,-4224,916,-714,9,6,25,52,476,-174,1,0,33,51,800,0,53298,1
2,29747,30752,32197,50759,5661,-4213,909,-718,17,7,21,50,468,-154,1,0,33,51,840,0,53298,1
2,29734,30752,32202,50760,5684,-4220,913,-713,23,5,24,62,466,-172,1,0,33,51,880,0,53298,1
2,29743,30751,32186,50761,5708,-4214,910,-726,17,-6,22,59,473,-163,1,0,33,51,920,0,53298,1
2,29741,30752,32198,50762,5708,-4220,910,-736,-2,-6,25,40,468,-162,1,0,33,51,960,0,53298,1
1,29742,30746,32189,50763,4719,-4215,908,-723,5,-7,18,63,461,-173,1,0,33,52,0,0,53298,1
2,29743,30749,32190,50764,4743,-4217,913,-725,-2,-5,18,55,463,-169,1,0,33,52,40,0,53298,1
2,29742,30750,32187,50765,4766,-4228,907,-711,6,-6,21,56,466,-164,1,0,33,52,80,0,53298,1
2,29748,30749,32187,50766,4790,-4220,912,-725,2,0,14,52,470,-166,1,0,33,52,120,0,53298,1
2,29750,30751,32187,50767,4813,-4217,910,-729,-1,-4,18,68,470,-166,1,0,33,52,160,0,53298,1
2,29720,30747,32194,50768,4837,-4206,916,-715,16,-5,24,65,461,-171,1,0,33,52,200,0,53298,1
2,29750,30748,32188,50769,4862,-4214,921,-722,12,-13,20,56,468,-162,1,0,33,52,240,0,53298,1
2,29735,30746,32190,50770,4886,-4217,922,-724,8,-7,29,58,468,-166,1,0,33,52,280,0,53298,1
2,29756,30749,32190,50771,4910,-4220,909,-717,2,-8,23,59,467,-165,1,0,33,52,320,0,53298,1
2,29736,30748,32184,50772,4935,-4204,923,-720,3,-9,18,52,470,-160,1,0,33,52,360,0,53298,1
2,29735,30748,32196,50773,4960,-4212,906,-712,-4,-5,17,48,470,-162,1,0,33,52,400,0,53298,1
2,29733,30750,32194,50774,4985,-4223,911,-711,8,-4,19,59,469,-163,1,0,33,52,440,0,53298,1
2,29733,30751,32199,50775,5010,-4209,916,-725,16,3,16,57,467,-173,1,0,33,52,480,0,53298,1
2,29752,30750,32192,50776,5035,-4226,915,-709,15,3,26,54,464,-166,1,0,33,52,520,0,53298,1
2,29749,30750,32195,50777,5059,-4209,917,-726,20,8,21,53,471,-163,1,0,33,52,560,0,53298,1
2,29756,30750,32190,50778,5083,-4217,915,-722,18,10,17,54,470,-170,1,0,33,52,600,0,53298,1
2,29751,30750,32189,50779,5108,-4207,924,-717,20,-18,14,58,482,-162,1,0,33,52,640,0,53298,1
2,29746,30749,32190,50780,5133,-4204,920,-707,4,-18,27,51,463,-171,1,0,33,52,680,0,53298,1
2,29751,30747,32191,50781,5158,-4205,923,-728,1,-11,24,58,462,-170,1,0,33,52,720,0,53298,1
2,29747,30750,32196,50782,5183,-4223,904,-725,-3,-2,29,51,473,-163,1,0,33,52,760,0,53298,1
2,29745,30750,32187,50783,5206,-4228,905,-710,3,0,21,47,465,-165,1,0,33,52,800,0,53298,1
2,29750,30749,32197,50784,5230,-4221,903,-713,0,2,11,66,468,-172,1,0,33,52,840,0,53298,1
2,29746,30752,32187,50785,5253,-4203,932,-730,-7,-8,11,65,473,-167,1,0,33,52,880,0,53298,1
2,29747,30755,32193,50786,5276,-4219,913,-711,4,-4,21,58,470,-164,1,0,33,52,920,0,53298,1
2,29736,30753,32193,50787,5276,-4224,915,-718,12,1,17,59,467,-167,1,0,33,52,960,0,53298,1
1,29727,30753,32191,50788,4278,-4231,904,-732,-9,-1,26,52,464,-168,1,0,33,53,0,1,53298,1
2,29736,30753,32187,50789,4301,-4218,899,-718,8,-3,20,58,474,-166,1,0,33,53,40,1,53298,1
2,29734,30751,32188,50790,4325,-4233,900,-723,11,-8,31,46,464,-162,1,0,33,53,80,1,53298,1
2,29742,30752,32200,50791,4348,-4215,905,-718,8,-7,23,58,474,-164,1,0,33,53,120,1,53298,1
2,29731,30751,32194,50792,4372,-4214,919,-720,6,0,24,61,463,-175,1,0,33,53,160,1,53298,1
2,29763,30754,32209,50793,4395,-4215,907,-709,29,6,33,57,465,-181,1,0,33,53,200,1,53298,1
2,29751,30749,32195,50794,4419,-4219,918,-716,11,10,42,50,466,-166,1,0,33,53,240,1,53298,1
2,29764,30750,32198,50795,4443,-4208,912,-723,12,2,25,59,463,-173,1,0,33,53,280,1,53298,1
2,29775,30754,32196,50796,4467,-4226,912,-722,13,-11,3,50,462,-172,1,0,33,53,320,1,53298,1
2,29771,30751,32197,50797,4491,-4215,921,-729,0,-20,3,53,473,-165,1,0,33,53,360,1,53298,1
2,29761,30755,32190,50798,4516,-4219,910,-717,-4,-10,18,51,461,-167,1,0,33,53,400,1,53298,1
2,29774,30752,32195,50799,4540,-4215,916,-721,15,-4,28,53,469,-169,1,0,33,53,440,1,53298,1
2,29762,30750,32197,50800,4564,-4203,915,-715,21,17,31,60,472,-158,1,0,33,53,480,1,53298,1
2,29762,30753,32190,50801,4589,-4211,910,-725,7,8,13,57,465,-169,1,0,33,53,520,1,53298,1
2,29759,30755,32205,50802,4614,-4209,924,-717,1,-1,13,60,468,-170,1,0,33,53,560,1,53298,1
2,29758,30757,32197,50803,4639,-4209,918,-715,6,-21,20,58,472,-172,1,0,33,53,600,1,53298,1
2,29764,30751,32196,50804,4664,-4228,909,-708,20,-17,26,48,466,-168,1,0,33,53,640,1,53298,1
2,29777,30755,32191,50805,4689,-4226,901,-720,11,1,25,58,466,-160,1,0,33,53,680,1,53298,1
2,29770,30755,32195,50806,4714,-4208,927,-717,0,13,18,60,472,-178,1,0,33,53,720,1,53298,1
2,29764,30751,32187,50807,4737,-4218,917,-720,8,-3,18,42,468,-166,1,0,33,53,760,1,53298,1
2,29758,30754,32186,50808,4762,-4217,906,-706,15,-12,19,60,478,-162,1,0,33,53,800,1,53298,1
2,29761,30754,32194,50809,4786,-4220,923,-711,8,-5,15,57,467,-169,1,0,33,53,840,1,53298,1
2,29745,30755,32187,50810,4810,-4210,906,-724,7,-4,14,64,468,-164,1,0,33,53,880,1,53298,1
2,29754,30756,32184,50811,4834,-4229,908,-724,7,3,25,51,455,-167,1,0,33,53,920,1,53298,1
2,29759,30758,32189,50812,4834,-4219,910,-733,10,-9,20,54,462,-164,1,0,33,53,960,1,53298,1
1,29740,30756,32190,50813,3837,-4219,904,-716,20,-15,20,64,460,-172,1,0,33,54,0,1,53298,1
2,29762,30760,32200,50814,3862,-4219,909,-726,0,-13,23,53,465,-167,1,0,33,54,40,1,53298,1
2,29750,30756,32195,50815,3886,-4211,920,-728,-3,-10,28,58,480,-168,1,0,33,54,80,1,53298,1
2,29759,30755,32200,50816,3911,-4206,921,-721,5,2,24,52,462,-164,1,0,33,54,120,1,53298,1
2,29761,30754,32193,50817,3936,-4218,910,-726,5,-2,12,60,470,-172,1,0,33,54,160,1,53298,1
2,29774,30757,32186,50818,3960,-4217,914,-731,4,-1,10,56,466,-160,1,0,33,54,200,1,53298,1
2,29778,30755,32188,50819,3985,-4221,905,-723,12,5,13,51,471,-167,1,0,33,54,240,1,53298,1
2,29760,30755,32189,50820,4009,-4212,918,-716,16,-5,15,61,465,-175,1,0,33,54,280,1,53298,1
2,29777,30757,32191,50821,4033,-4216,908,-717,11,-1,22,56,464,-168,1,0,33,54,320,1,53298,1
2,29777,30757,32183,50822,4057,-4221,921,-717,18,5,27,67,469,-171,1,0,33,54,360,1,53298,1
2,29752,30757,32187,50823,4080,-4216,914,-711,2,3,30,60,466,-160,1,0,33,54,400,1,53298,1
2,29755,30756,32192,50824,4104,-4231,906,-721,-3,-14,22,57,471,-163,1,0,33,54,440,1,53298,1
2,29776,30753,32184,50825,4128,-4219,915,-726,4,-12,19,57,471,-153,1,0,33,54,480,1,53298,1
2,29774,30754,32186,50826,4152,-4222,922,-713,-3,-11,22,64,464,-170,1,0,33,54,520,1,53298,1
2,29763,30754,32188,50827,4176,-4218,908,-718,2,-13,18,55,467,-167,1,0,33,54,560,1,53298,1
2,29766,30758,32187,50828,4199,-4213,925,-717,3,8,20,56,466,-170,1,0,33,54,600,1,53298,1
2,29756,30757,32192,50829,4224,-4207,919,-719,24,2,21,60,468,-174,1,0,33,54,640,1,53298,1
2,29773,30758,32191,50830,4248,-4227,909,-725,29,-1,21,61,467,-173,1,0,33,54,680,1,53298,1
2,29756,30757,32183,50831,4273,-4232,908,-730,11,-6,20,60,466,-168,1,0,33,54,720,1,53298,1
2,29745,30753,32173,50832,4297,-4214,923,-719,0,-7,28,51,461,-169,1,0,33,54,760,1,53298,1
2,29734,30754,32182,50833,4321,-4223,915,-731,3,-14,28,61,465,-159,1,0,33,54,800,1,53298,1
2,29748,30755,32181,50834,4346,-4214,912,-719,4,-12,24,59,463,-169,1,0,33,54,840,1,53298,1
2,29754,30753,32170,50835,4371,-4213,913,-714,-2,-11,18,53,467,-171,1,0,33,54,880,1,53298,1
2,29707,30751,32175,50836,4397,-4214,913,-726,11,-15,19,57,461,-167,1,0,33,54,920,1,53298,1
2,29722,30752,32184,50837,4397,-4209,917,-705,14,-5,12,47,463,-167,1,0,33,54,960,1,53298,1
1,29721,30755,32175,50838,3396,-4220,912,-717,18,0,12,59,469,-177,1,0,33,55,0,0,53298,1
2,29718,30758,32190,50839,3420,-4221,927,-722,22,1,16,61,469,-161,1,0,33,55,40,0,53298,1
2,29730,30759,32202,50840,3445,-4218,919,-714,17,1,19,52,468,-168,1,0,33,55,80,0,53298,1
2,29738,30759,32195,50841,3470,-4216,908,-741,7,-9,21,52,462,-170,1,0,33,55,120,0,53298,1
2,29738,30759,32191,50842,3495,-4227,901,-727,-1,-15,24,61,471,-167,1,0,33,55,160,0,53298,1
2,29756,30757,32191,50843,3519,-4224,907,-719,7,-17,27,55,465,-167,1,0,33,55,200,0,53298,1
2,29747,30757,32191,50844,3543,-4214,923,-720,10,-14,21,53,461,-173,1,0,33,55,240,0,53298,1
2,29742,30758,32184,50845,3567,-4222,923,-723,9,-6,21,64,472,-170,1,0,33,55,280,0,53298,1
2,29730,30756,32187,50846,3592,-4211,914,-721,12,-6,22,54,462,-160,1,0,33,55,320,0,53298,1
2,29742,30759,32197,50847,3616,-4225,914,-722,26,9,20,61,467,-169,1,0,33,55,360,0,53298,1
2,29749,30761,32193,50848,3640,-4222,908,-712,12,4,20,45,463,-169,1,0,33,55,400,0,53298,1
2,29736,30759,32190,50849,3665,-4223,913,-715,3,-3,20,57,469,-163,1,0,33,55,440,0,53298,1
2,29740,30761,32197,50850,3689,-4222,904,-716,1,-6,19,51,469,-167,1,0,33,55,480,0,53298,1
2,29746,30762,32189,50851,3713,-4201,926,-719,1,-21,22,49,461,-169,1,0,33,55,520,0,53298,1
2,29770,30762,32195,50852,3737,-4221,910,-716,0,-3,21,59,467,-171,1,0,33,55,560,0,53298,1
2,29762,30761,32194,50853,3762,-4223,905,-709,3,-9,17,49,475,-169,1,0,33,55,600,0,53298,1
2,29765,30761,32193,50854,3786,-4213,921,-721,7,-6,18,59,467,-175,1,0,33,55,640,0,53298,1
2,29743,30756,32183,50855,3810,-4217,924,-717,12,-5,14,60,472,-168,1,0,33,55,680,0,53298,1
2,29748,30755,32176,50856,3835,-4220,911,-713,15,-4,20,67,465,-169,1,0,33,55,720,0,53298,1
2,29761,30754,32190,50857,3860,-4206,923,-715,8,-9,20,45,467,-165,1,0,33,55,760,0,53298,1
2,29736,30757,32176,50858,3885,-4208,926,-721,11,-3,25,53,471,-171,1,0,33,55,800,0,53298,1
2,29737,30755,32183,50859,3909,-4216,912,-714,10,-10,21,47,459,-163,1,0,33,55,840,0,53298,1
2,29745,30756,32189,50860,3934,-4210,912,-712,0,-8,16,55,471,-169,1,0,33,55,880,0,53298,1
2,29749,30756,32183,50861,3958,-4212,920,-721,9,-6,18,55,465,-169,1,0,33,55,920,0,53298,1
2,29740,30756,32176,50862,3958,-4225,904,-710,7,-5,18,57,471,-169,1,0,33,55,960,0,53298,1
1,29727,30757,32180,50863,2955,-4205,910,-718,20,0,17,52,470,-168,1,0,33,56,0,0,53298,1
2,29756,30754,32176,50864,2981,-4219,908,-713,6,-3,20,54,468,-158,1,0,33,56,40,0,53298,1
2,29737,30754,32184,50865,3005,-4212,911,-716,21,-4,21,57,477,-173,1,0,33,56,80,0,53298,1
2,29755,30752,32174,50866,3030,-4230,909,-726,12,6,20,52,472,-170,1,0,33,56,120,0,53298,1
2,29752,30754,32175,50867,3055,-4208,925,-725,18,-4,20,60,466,-160,1,0,33,56,160,0,53298,1
2,29753,30755,32178,50868,3080,-4212,907,-718,-1,-10,26,49,463,-167,1,0,33,56,200,0,53298,1
2,29778,30754,32169,50869,3105,-4224,908,-712,3,-13,19,54,470,-168,1,0,33,56,240,0,53298,1
2,29782,30753,32173,50870,3128,-4212,919,-734,13,-8,17,60,460,-174,1,0,33,56,280,0,53298,1
2,29756,30753,32180,50871,3153,-4217,922,-723,4,-3,15,54,462,-166,1,0,33,56,320,0,53298,1
2,29778,30755,32181,50872,3177,-4204,926,-710,-1,-8,11,59,477,-171,1,0,33,56,360,0,53298,1
2,29763,30754,32176,50873,3202,-4219,902,-726,4,0,24,54,458,-160,1,0,33,56,400,0,53298,1
2,29768,30753,32180,50874,3226,-4227,911,-723,15,-3,23,49,471,-165,1,0,33,56,440,0,53298,1
2,29777,30754,32181,50875,3251,-4214,915,-719,13,-6,28,56,466,-176,1,0,33,56,480,0,53298,1
2,29770,30754,32183,50876,3275,-4222,909,-705,2,0,22,51,463,-165,1,0,33,56,520,0,53298,1
2,29761,30754,32182,50877,3299,-4219,916,-720,0,-5,22,52,466,-164,1,0,33,56,560,0,53298,1
2,29762,30753,32176,50878,3323,-4221,907,-723,9,-13,16,51,467,-157,1,0,33,56,600,0,53298,1
2,29770,30755,32175,50879,3347,-4212,920,-717,6,-7,7,54,470,-164,1,0,33,56,640,0,53298,1
2,29760,30752,32180,50880,3371,-4213,905,-717,4,-7,23,51,469,-167,1,0,33,56,680,0,53298,1
2,29765,30754,32186,50881,3395,-4218,917,-726,5,-3,19,46,464,-166,1,0,33,56,720,0,53298,1
2,29751,30753,32180,50882,3420,-4217,918,-718,16,-6,16,53,465,-165,1,0,33,56,760,0,53298,1
2,29770,30753,32185,50883,3445,-4223,912,-716,4,4,23,52,470,-174,1,0,33,56,800,0,53298,1
2,29771,30752,32177,50884,3471,-4225,914,-729,24,-4,15,50,472,-164,1,0,33,56,840,0,53298,1
2,29783,30753,32170,50885,3496,-4217,909,-720,21,1,16,59,471,-161,1,0,33,56,880,0,53298,1
2,29771,30753,32175,50886,3522,-4229,908,-718,17,-2,23,53,459,-169,1,0,33,56,920,0,53298,1
2,29765,30754,32178,50887,3522,-4222,908,-713,-1,-7,18,59,477,-169,1,0,33,56,960,0,53298,1
1,29746,30752,32173,50888,2515,-4221,903,-718,-2,-15,15,57,469,-171,1,0,33,57,0,1,53298,1
2,29755,30752,32173,50889,2540,-4207,915,-704,9,0,20,58,472,-168,1,0,33,57,40,1,53298,1
2,29760,30754,32169,50890,2565,-4216,921,-711,3,249,18,49,463,-163,1,0,33,57,80,1,53298,1
2,29741,30755,32171,50891,2591,-4215,917,-718,12,-3,12,60,462,-162,1,0,33,57,120,1,53298,1
2,29728,30753,32175,50892,2617,-4206,922,-727,-2,-3,15,55,471,-171,1,0,33,57,160,1,53298,1
2,29738,30753,32172,50893,2641,-4223,910,-709,11,-4,13,51,465,-155,1,0,33,57,200,1,53298,1
2,29736,30751,32174,50894,2667,-4211,907,-713,20,-5,23,61,471,-167,1,0,33,57,240,1,53298,1
2,29751,30752,32170,50895,2692,-4212,929,-729,3,-255,27,54,478,-158,1,0,33,57,280,1,53298,1
2,29768,30762,32185,50896,2717,-4217,916,-715,-1,251,22,55,471,-165,1,0,33,57,320,1,53298,1
2,29782,30760,32214,50897,2742,-4221,906,-712,14,-16,20,63,463,-163,1,0,33,57,360,1,53298,1
2,29777,30766,32225,50898,2767,-4219,909,-720,11,-4,17,57,473,-163,1,0,33,57,400,1,53298,1
2,29776,30765,32219,50899,2793,-4215,914,-720,5,-4,27,54,470,-172,1,0,33,57,440,1,53298,1
2,29792,30769,32222,50900,2818,-4213,916,-715,8,-5,18,50,462,-172,1,0,33,57,480,1,53298,1
2,29768,30769,32221,50901,2843,-4221,909,-734,9,-2,20,59,461,-173,1,0,33,57,520,1,53298,1
2,29788,30767,32215,50902,2869,-4216,912,-723,5,-5,18,52,466,-170,1,0,33,57,560,1,53298,1
2,29752,30768,32221,50903,2893,-4225,916,-731,5,-4,13,54,468,-166,1,0,33,57,600,1,53298,1
2,29770,30767,32221,50904,2919,-4209,920,-720,14,5,18,51,471,-167,1,0,33,57,640,1,53298,1
2,29784,30767,32219,50905,2946,-4224,906,-717,16,-1,19,63,471,-169,1,0,33,57,680,1,53298,1
2,29789,30765,32222,50906,2971,-4210,914,-724,15,-3,18,51,461,-169,1,0,33,57,720,1,53298,1
2,29790,30765,32214,50907,2996,-4224,917,-721,-3,-2,22,65,461,-173,1,0,33,57,760,1,53298,1
2,29787,30766,32211,50908,3021,-4208,920,-723,2,-12,28,57,467,-165,1,0,33,57,800,1,53298,1
2,29803,30765,32214,50909,3046,-4221,910,-723,3,-15,23,53,467,-173,1,0,33,57,840,1,53298,1
2,29824,30766,32225,50910,3072,-4221,914,-722,8,-10,15,56,474,-162,1,0,33,57,880,1,53298,1
2,29783,30762,32212,50911,3096,-4221,913,-716,1,-3,24,57,467,-161,1,0,33,57,920,1,53298,1
2,29773,30763,32205,50912,3096,-4219,905,-719,0,10,26,50,466,-172,1,0,33,57,960,1,53298,1
1,29767,30762,32204,50913,2074,-4213,915,-715,15,-3,18,55,459,-169,1,0,33,58,0,1,53298,1
2,29796,30761,32202,50914,2100,-4210,922,-730,7,-9,27,48,470,-152,1,0,33,58,40,1,53298,1
2,29787,30762,32206,50915,2125,-4216,919,-712,10,-5,20,61,461,-173,1,0,33,58,80,1,53298,1
2,29771,30762,32206,50916,2151,-4214,912,-717,15,-10,17,52,468,-166,1,0,33,58,120,1,53298,1
2,29782,30764,32201,50917,2177,-4217,922,-716,4,0,16,63,465,-179,1,0,33,58,160,1,53298,1
2,29794,30763,32207,50918,2203,-4219,908,-714,3,-10,21,55,473,-165,1,0,33,58,200,1,53298,1
2,29793,30764,32205,50919,2228,-4222,920,-707,12,0,22,60,468,-168,1,0,33,58,240,1,53298,1
2,29789,30764,32203,50920,2253,-4209,915,-717,10,8,24,58,462,-162,1,0,33,58,280,1,53298,1
2,29771,30763,32200,50921,2278,-4223,911,-722,10,-6,19,54,468,-158,1,0,33,58,320,1,53298,1
2,29759,30761,32208,50922,2303,-4222,911,-725,7,-2,17,61,473,-159,1,0,33,58,360,1,53298,1
2,29756,30760,32205,50923,2328,-4223,911,-712,7,-3,20,52,468,-162,1,0,33,58,400,1,53298,1
2,29770,30760,32203,50924,2353,-4209,908,-728,10,-3,19,57,467,-175,1,0,33,58,440,1,53298,1
2,29720,30761,32199,50925,2378,-4212,909,-721,15,-2,19,55,463,-167,1,0,33,58,480,1,53298,1
2,29755,30760,32206,50926,2403,-4218,912,-711,8,-10,25,55,461,-165,1,0,33,58,520,1,53298,1
2,29770,30760,32208,50927,2428,-4221,915,-738,6,-8,17,50,466,-170,1,0,33,58,560,1,53298,1
2,29771,30762,32201,50928,2453,-4216,909,-725,1,-5,25,51,469,-163,1,0,33,58,600,1,53298,1
2,29766,30761,32201,50929,2479,-4213,913,-713,5,-1,23,56,460,-168,1,0,33,58,640,1,53298,1
2,29773,30760,32195,50930,2504,-4229,906,-733,12,-1,27,61,467,-167,1,0,33,58,680,1,53298,1
2,29767,30761,32200,50931,2528,-4222,913,-728,6,2,23,61,465,-169,1,0,33,58,720,1,53298,1
2,29779,30760,32202,50932,2553,-4220,911,-713,-2,243,19,50,458,-164,1,0,33,58,760,1,53298,1
2,29780,30759,32203,50933,2577,-4224,908,-721,13,-6,19,62,466,-160,1,0,33,58,800,1,53298,1
2,29780,30759,32205,50934,2602,-4215,912,-717,15,-1,15,53,463,-163,1,0,33,58,840,1,53298,1
2,29795,30760,32197,50935,2627,-4219,909,-734,10,-256,25,56,468,-168,1,0,33,58,880,1,53298,1
2,29743,30759,32205,50936,2652,-4221,910,-732,6,248,22,50,466,-164,1,0,33,58,920,1,53298,1
2,29770,30761,32199,50937,2652,-4218,919,-718,12,-7,15,58,468,-168,1,0,33,58,960,1,53298,1
1,29749,30760,32204,50938,1634,-4214,904,-714,11,0,21,63,465,-167,1,0,33,59,0,1,53298,1
2,29753,30759,32202,50939,1659,-4221,910,-714,12,2,26,56,476,-172,1,0,33,59,40,1,53298,1
2,29747,30758,32199,50940,1683,-4203,927,-715,23,-4,17,53,467,-161,1,0,33,59,80,1,53298,1
2,29749,30759,32197,50941,1708,-4224,910,-717,10,0,28,58,458,-160,1,0,33,59,120,1,53298,1
2,29754,30760,32206,50942,1733,-4217,908,-722,11,-1,21,67,465,-163,1,0,33,59,160,1,53298,1
2,29754,30760,32203,50943,1758,-4205,920,-725,20,-2,21,49,461,-169,1,0,33,59,200,1,53298,1
2,29757,30760,32194,50944,1783,-4216,911,-723,8,-6,9,63,469,-171,1,0,33,59,240,1,53298,1
2,29727,30760,32190,50945,1808,-4213,922,-719,-11,-6,26,56,466,-164,1,0,33,59,280,1,53298,1
2,29767,30758,32191,50946,1833,-4226,900,-742,4,-11,23,51,469,-165,1,0,33,59,320,1,53298,1
2,29757,30759,32196,50947,1858,-4213,919,-712,2,-6,28,54,464,-162,1,0,33,59,360,1,53298,1
2,29753,30759,32192,50948,1883,-4224,909,-718,2,-2,15,56,464,-160,1,0,33,59,400,1,53298,1
2,29756,30758,32204,50949,1909,-4222,914,-712,4,1,13,59,465,-171,1,0,33,59,440,1,53298,1
2,29727,30759,32203,50950,1934,-4203,928,-727,16,-1,17,55,471,-167,1,0,33,59,480,1,53298,1
2,29727,30760,32213,50951,1959,-4223,899,-716,4,0,16,52,466,-166,1,0,33,59,520,1,53298,1
2,29724,30759,32200,50952,1985,-4217,910,-711,10,-6,21,56,466,-170,1,0,33,59,560,1,53298,1
2,29757,30762,32197,50953,2010,-4229,909,-720,2,-9,19,60,468,-160,1,0,33,59,600,1,53298,1
2,29743,30760,32199,50954,2036,-4214,917,-728,5,-9,25,50,464,-166,1,0,33,59,640,1,53298,1
2,29716,30761,32202,50955,2063,-4215,921,-712,11,-9,11,60,472,-168,1,0,33,59,680,1,53298,1
2,29730,30762,32209,50956,2088,-4207,922,-712,3,-9,16,52,474,-162,1,0,33,59,720,1,53298,1
2,29725,30760,32209,50957,2114,-4222,909,-712,3,-8,14,53,469,-177,1,0,33,59,760,1,53298,1
2,29733,30762,32207,50958,2140,-4209,918,-713,13,-9,12,57,467,-169,1,0,33,59,800,1,53298,1
2,29720,30763,32206,50959,2165,-4215,904,-723,10,7,25,57,461,-161,1,0,33,59,840,1,53298,1
2,29733,30763,32206,50960,2191,-4227,904,-718,7,4,21,57,461,-171,1,0,33,59,880,1,53298,1
2,29726,30760,32208,50961,2217,-4206,911,-720,29,-6,14,56,464,-174,1,0,33,59,920,1,53298,1
2,29725,30758,32205,50962,2217,-4220,913,-728,11,-3,12,59,463,-175,1,0,33,59,960,1,53298,1
1,29734,30759,32213,50963,1194,-4208,906,-731,-2,-13,20,57,467,-173,1,0,34,0,0,0,53298,1
2,29733,30760,32199,50964,1219,-4224,906,-721,-2,-8,18,45,463,-157,1,0,34,0,40,0,53298,1
2,29731,30760,32200,50965,1245,-4204,917,-723,10,-1,14,51,471,-159,1,0,34,0,80,0,53298,1
2,29726,30761,32201,50966,1270,-4210,915,-711,5,-2,14,56,466,-166,1,0,34,0,120,0,53298,1
2,29720,30762,32202,50967,1295,-4214,919,-717,8,-7,22,53,457,-167,1,0,34,0,160,0,53298,1
2,29716,30761,32200,50968,1321,-4225,910,-714,11,-7,12,58,462,-172,1,0,34,0,200,0,53298,1
2,29721,30763,32199,50969,1346,-4223,918,-730,5,-3,8,58,462,-168,1,0,34,0,240,0,53298,1
2,29732,30761,32199,50970,1372,-4222,905,-731,6,-8,17,64,474,-172,1,0,34,0,280,0,53298,1
2,29741,30761,32201,50971,1396,-4224,907,-722,0,-9,22,51,473,-163,1,0,34,0,320,0,53298,1
2,29734,30762,32207,50972,1421,-4216,925,-726,9,-4,24,47,461,-163,1,0,34,0,360,0,53298,1
2,29735,30760,32196,50973,1446,-4225,905,-708,10,-4,17,57,469,-161,1,0,34,0,400,0,53298,1
2,29761,30758,32197,50974,1472,-4233,907,-706,2,-14,24,61,473,-167,1,0,34,0,440,0,53298,1
2,29750,30762,32200,50975,1497,-4216,904,-721,0,-5,20,49,461,-173,1,0,34,0,480,0,53298,1
2,29747,30762,32206,50976,1522,-4213,922,-706,14,-2,11,51,465,-161,1,0,34,0,520,0,53298,1
2,29740,30760,32198,50977,1548,-4214,913,-720,13,4,16,57,467,-157,1,0,34,0,560,0,53298,1
2,29746,30761,32202,50978,1573,-4221,919,-708,13,-3,13,53,467,-153,1,0,34,0,600,0,53298,1
2,29754,30760,32205,50979,1598,-4213,926,-725,28,-2,22,49,465,-175,1,0,34,0,640,0,53298,1
2,29756,30761,32200,50980,1623,-4228,905,-708,15,-7,16,62,468,-164,1,0,34,0,680,0,53298,1
2,29752,30760,32205,50981,1648,-4221,916,-712,11,-12,19,56,468,-170,1,0,34,0,720,0,53298,1
2,29758,30759,32197,50982,1673,-4220,915,-712,-4,-1,19,55,459,-165,1,0,34,0,760,0,53298,1
2,29775,30759,32203,50983,1698,-4222,907,-718,5,-10,15,49,469,-171,1,0,34,0,800,0,53298,1
2,29770,30758,32198,50984,1723,-4218,922,-717,7,-13,16,58,464,-172,1,0,34,0,840,0,53298,1
2,29760,30758,32205,50985,1748,-4220,910,-724,10,-2,14,55,469,-163,1,0,34,0,880,0,53298,1
2,29755,30759,32195,50986,1773,-4228,909,-727,8,-4,19,61,467,-175,1,0,34,0,920,0,53298,1
2,29765,30761,32197,50987,1773,-4210,924,-717,-1,4,18,55,473,-161,1,0,34,0,960,0,53298,1
1,29758,30761,32191,50988,753,-4220,911,-717,15,-7,24,62,464,-176,1,0,34,1,0,1,53298,1
2,29761,30761,32196,50989,777,-4220,914,-716,10,-6,19,49,465,-167,1,0,34,1,40,1,53298,1
2,29762,30763,32206,50990,801,-4215,916,-737,-2,-2,22,56,470,-174,1,0,34,1,80,1,53298,1
2,29761,30761,32198,50991,825,-4213,909,-719,4,-7,18,56,466,-168,1,0,34,1,120,1,53298,1
2,29778,30761,32200,50992,849,-4214,913,-720,4,-8,24,48,456,-166,1,0,34,1,160,1,53298,1
2,29770,30760,32191,50993,872,-4215,921,-717,6,-9,17,64,466,-170,1,0,34,1,200,1,53298,1
2,29756,30760,32198,50994,897,-4232,907,-713,0,-4,11,57,473,-163,1,0,34,1,240,1,53298,1
2,29773,30760,32200,50995,922,-4223,898,-717,14,-3,23,55,473,-165,1,0,34,1,280,1,53298,1
2,29776,30762,32196,50996,946,-4225,907,-717,22,-5,25,56,480,-160,1,0,34,1,320,1,53298,1
2,29744,30760,32205,50997,971,-4213,910,-728,16,3,13,60,470,-172,1,0,34,1,360,1,53298,1
2,29738,30759,32205,50998,995,-4225,906,-732,6,-1,21,46,470,-170,1,0,34,1,400,1,53298,1
2,29729,30759,32194,50999,1020,-4219,905,-711,21,-4,20,58,468,-160,1,0,34,1,440,1,53298,1
2,29744,30761,32197,51000,1045,-4220,911,-707,3,-5,22,53,469,-165,1,0,34,1,480,1,53298,1
2,29734,30760,32205,51001,1069,-4215,912,-735,-11,-6,23,47,463,-167,1,0,34,1,520,1,53298,1
2,29734,30761,32197,51002,1094,-4216,910,-718,5,-14,17,56,468,-164,1,0,34,1,560,1,53298,1
2,29760,30760,32196,51003,1120,-4214,914,-716,16,-8,19,65,467,-171,1,0,34,1,600,1,53298,1
2,29761,30759,32197,51004,1145,-4223,909,-717,11,-5,15,58,464,-168,1,0,34,1,640,1,53298,1
2,29771,30762,32198,51005,1170,-4219,919,-730,1,-3,15,58,458,-168,1,0,34,1,680,1,53298,1
2,29769,30761,32195,51006,1195,-4213,919,-713,14,-2,15,63,467,-177,1,0,34,1,720,1,53298,1
2,29771,30762,32197,51007,1219,-4223,911,-734,14,-7,25,56,468,-162,1,0,34,1,760,1,53298,1
2,29763,30762,32203,51008,1244,-4220,910,-728,-2,-4,20,61,473,-163,1,0,34,1,800,1,53298,1
2,29720,30760,32198,51009,1268,-4224,914,-726,-3,-5,22,46,476,-170,1,0,34,1,840,1,53298,1
2,29747,30758,32197,51010,1293,-4231,898,-721,19,-17,17,62,470,-168,1,0,34,1,880,1,53298,1
2,29747,30761,32198,51011,1318,-4218,910,-717,13,-10,18,60,464,-180,1,0,34,1,920,1,53298,1
2,29731,30762,32194,51012,1318,-4206,922,-725,-1,-13,23,53,465,-173,1,0,34,1,960,1,53298,1
1,29734,30761,32193,51013,314,-4218,916,-714,8,-8,21,60,466,-156,1,0,34,2,0,1,53298,1
0,29720,30761,32190,51014,339,-4218,916,-714,8,-8,21,44,462,-156,1,0,34,2,40,1,53298,1
2,29728,30761,32195,51015,364,-4218,910,-715,15,-2,15,55,469,-167,1,0,34,2,80,1,53298,1
2,29720,30760,32201,51016,389,-4228,895,-714,15,-1,25,59,459,-171,1,0,34,2,120,1,53298,1
2,29715,30758,32197,51017,413,-4225,900,-707,21,-2,21,57,467,-161,1,0,34,2,160,1,53298,1
2,29708,30758,32190,51018,438,-4209,921,-709,12,-1,27,55,461,-161,1,0,34,2,200,1,53298,1
2,29706,30759,32189,51019,463,-4232,903,-718,-5,-1,18,57,469,-171,1,0,34,2,240,1,53298,1
2,29705,30759,32186,51020,488,-4215,915,-711,5,-9,14,58,476,-166,1,0,34,2,280,1,53298,1
2,29709,30761,32198,51021,514,-4220,913,-726,18,0,25,55,463,-171,1,0,34,2,320,1,53298,1
2,29694,30761,32190,51022,540,-4223,912,-712,14,-1,22,47,467,-159,1,0,34,2,360,1,53298,1
2,29705,30757,32186,51023,565,-4218,907,-712,6,-4,16,58,464,-166,1,0,34,2,400,1,53298,1
2,29696,30758,32193,51024,591,-4230,906,-707,5,-7,14,59,461,-169,1,0,34,2,440,1,53298,1
2,29713,30761,32194,51025,616,-4225,909,-718,11,-10,18,51,473,-171,1,0,34,2,480,1,53298,1
2,29711,30763,32206,51026,641,-4204,911,-713,-2,-8,26,69,463,-179,1,0,34,2,520,1,53298,1
2,29714,30761,32202,51027,667,-4211,917,-734,8,-11,26,51,475,-167,1,0,34,2,560,1,53298,1
2,29702,30764,32210,51028,693,-4225,899,-719,10,-12,25,49,465,-163,1,0,34,2,600,1,53298,1
2,29712,30767,32206,51029,719,-4225,915,-707,6,-14,21,52,464,-162,1,0,34,2,640,1,53298,1
2,29729,30761,32197,51030,745,-4211,923,-705,-5,-6,19,53,463,-163,1,0,34,2,680,1,53298,1
2,29676,30762,32190,51031,770,-4206,911,-727,2,-2,17,57,467,-175,1,0,34,2,720,1,53298,1
2,29684,30764,32199,51032,796,-4224,907,-705,8,-9,21,54,464,-156,1,0,34,2,760,1,53298,1
2,29663,30760,32193,51033,821,-4221,914,-714,11,-1,25,49,471,-153,1,0,34,2,800,1,53298,1
2,29665,30761,32191,51034,845,-4235,917,-729,14,-5,23,65,467,-165,1,0,34,2,840,1,53298,1
2,29668,30759,32190,51035,869,-4220,919,-729,13,-4,25,46,468,-168,1,0,34,2,880,1,53298,1
2,29678,30760,32189,51036,893,-4213,912,-720,10,-7,21,54,466,-170,1,0,34,2,920,1,53298,1
2,29677,30760,32198,51037,893,-4226,916,-704,6,-8,21,58,460,-168,1,0,34,2,960,1,53298,1
1,29690,30759,32196,51038,0,-4224,909,-717,7,-4,27,60,462,-174,1,0,34,3,0,0,53298,1
2,29684,30759,32190,51039,39899,-4232,906,-727,9,2,20,56,472,-164,1,0,34,3,40,0,53298,1
2,29702,30762,32200,51040,39923,-4217,916,-722,16,4,17,53,459,-165,1,0,34,3,80,0,53298,1
2,29671,30763,32206,51041,39947,-4226,905,-709,9,-2,18,56,470,-164,1,0,34,3,120,0,53298,1
2,29685,30761,32205,51042,39971,-4217,911,-729,-2,-10,9,61,465,-171,1,0,34,3,160,0,53298,1
2,29689,30760,32196,51043,39996,-4220,910,-706,19,-17,19,58,470,-176,1,0,34,3,200,0,53298,1
1,29689,30759,32190,51044,19,-4210,920,-716,16,-6,14,56,472,-174,1,0,34,3,240,0,53298,1
1,29675,30759,32202,51045,43,-4213,915,-728,-7,7,20,49,463,-165,1,0,34,3,280,0,53298,1
1,29685,30760,32192,51046,67,-4231,908,-721,9,2,20,60,468,-170,1,0,34,3,320,0,53298,1
1,29686,30757,32180,51047,91,-4219,915,-722,16,-7,23,61,465,-173,1,0,34,3,360,0,53298,1
1,29672,30757,32190,51048,115,-4217,913,-727,3,-1,23,55,471,-169,1,0,34,3,400,0,53298,1
1,29682,30756,32180,51049,139,-4210,923,-715,1,-2,24,42,468,-160,1,0,34,3,440,0,53298,1
1,29698,30757,32189,51050,164,-4217,901,-703,13,-5,15,59,465,-165,1,0,34,3,480,0,53298,1
1,29677,30758,32184,51051,188,-4226,906,-720,7,-1,26,53,465,-161,1,0,34,3,520,0,53298,1
1,29689,30754,32178,51052,212,-4222,908,-713,13,2,20,52,464,-172,1,0,34,3,560,0,53298,1
1,29675,30757,32187,51053,236,-4217,916,-708,23,0,23,61,465,-159,1,0,34,3,600,0,53298,1
3,29680,30757,32186,51054,261,-4227,911,-728,10,2,13,58,470,-170,1,0,34,3,640,0,53298,1
3,29688,30756,32193,51055,286,-4212,914,-721,6,-1,35,54,474,-168,1,0,34,3,680,0,53298,1
0,29671,30749,32175,51056,310,-4212,914,-721,6,-1,35,44,468,-154,1,0,34,3,720,0,53298,1
2,29671,30753,32175,51057,334,-4226,915,-709,13,3,30,55,469,-169,1,0,34,3,760,0,53298,1
2,29665,30752,32175,51058,358,-4221,913,-718,-1,8,9,60,468,-178,1,0,34,3,800,0,53298,1
2,29680,30754,32181,51059,382,-4219,914,-727,2,-5,7,51,459,-169,1,0,34,3,840,0,53298,1
2,29680,30757,32200,51060,406,-4225,906,-714,7,-20,11,55,465,-167,1,0,34,3,880,0,53298,1
2,29699,30757,32194,51061,431,-4207,906,-719,11,-7,23,53,455,-167,1,0,34,3,920,0,53298,1
2,29708,30760,32201,51062,431,-4219,907,-710,21,6,32,55,473,-165,1,0,34,3,960,0,53298,1
1,29675,30757,32202,51063,0,-4223,912,-718,-2,14,29,56,468,-172,1,0,34,4,0,1,53298,1
2,29688,30756,32186,51064,39460,-4217,913,-717,5,1,20,51,475,-165,1,0,34,4,40,1,53298,1
2,29696,30759,32199,51065,39484,-4220,915,-729,11,-2,14,60,466,-174,1,0,34,4,80,1,53298,1
2,29693,30757,32192,51066,39508,-4216,902,-717,8,-11,23,63,475,-163,1,0,34,4,120,1,53298,1
2,29675,30754,32182,51067,39533,-4227,901,-715,1,2,23,45,469,-173,1,0,34,4,160,1,53298,1
2,29695,30756,32193,51068,39557,-4202,915,-707,11,-3,17,61,461,-169,1,0,34,4,200,1,53298,1
2,29694,30756,32187,51069,39581,-4214,918,-726,7,4,28,60,470,-170,1,0,34,4,240,1,53298,1
2,29700,30756,32193,51070,39605,-4220,910,-708,0,5,27,63,455,-171,1,0,34,4,280,1,53298,1
2,29701,30756,32196,51071,39628,-4219,922,-717,19,-8,17,56,468,-166,1,0,34,4,320,1,53298,1
2,29721,30757,32197,51072,39652,-4219,916,-729,4,-21,17,49,469,-165,1,0,34,4,360,1,53298,1
2,29697,30759,32205,51073,39676,-4211,904,-714,0,-8,25,58,474,-158,1,0,34,4,400,1,53298,1
2,29692,30758,32201,51074,39700,-4216,909,-718,13,-11,28,57,459,-165,1,0,34,4,440,1,53298,1
2,29686,30761,32206,51075,39723,-4225,913,-711,7,-4,23,52,464,-152,1,0,34,4,480,1,53298,1
2,29692,30759,32210,51076,39746,-4216,917,-728,12,2,20,65,469,-169,1,0,34,4,520,1,53298,1
2,29682,30760,32208,51077,39770,-4227,911,-727,10,-3,16,60,472,-168,1,0,34,4,560,1,53298,1
2,29694,30760,32202,51078,39793,-4210,922,-728,11,-7,15,60,474,-164,1,0,34,4,600,1,53298,1
2,29685,30761,32202,51079,39817,-4221,910,-718,3,-3,16,55,473,-171,1,0,34,4,640,1,53298,1
2,29677,30760,32206,51080,39841,-4198,921,-716,14,-5,28,55,467,-173,1,0,34,4,680,1,53298,1
2,29664,30763,32208,51081,39865,-4211,911,-721,7,4,28,53,469,-167,1,0,34,4,720,1,53298,1
2,29712,30761,32199,51082,39889,-4215,910,-729,1,-10,19,53,477,-161,1,0,34,4,760,1,53298,1
2,29692,30762,32214,51083,39912,-4206,913,-711,5,-2,20,53,461,-177,1,0,34,4,800,1,53298,1
2,29712,30762,32214,51084,39937,-4203,919,-722,3,-10,18,49,469,-173,1,0,34,4,840,1,53298,1
2,29709,30763,32204,51085,39961,-4218,914,-707,-1,-5,18,59,463,-169,1,0,34,4,880,1,53298,1
2,29692,30761,32199,51086,39985,-4216,912,-718,14,1,18,58,462,-178,1,0,34,4,920,1,53298,1
1,29700,30761,32211,51087,8,-4227,911,-723,9,10,24,55,475,-163,1,0,34,4,960,1,53298,1
1,29692,30761,32217,51088,0,-4202,920,-730,14,1,11,53,473,-163,1,0,34,5,0,1,53298,1
2,29710,30760,32203,51089,39020,-4221,910,-720,17,2,18,55,463,-171,1,0,34,5,40,1,53298,1
2,29699,30760,32203,51090,39044,-4216,910,-710,12,-9,18,52,462,-162,1,0,34,5,80,1,53298,1
2,29697,30760,32202,51091,39069,-4217,905,-720,-5,-3,20,50,462,-168,1,0,34,5,120,1,53298,1
2,29684,30757,32197,51092,39093,-4211,915,-717,-14,-14,19,64,466,-170,1,0,34,5,160,1,53298,1
2,29676,30760,32208,51093,39118,-4212,920,-713,3,-2,15,58,464,-172,1,0,34,5,200,1,53298,1
2,29678,30760,32206,51094,39143,-4212,907,-719,6,-3,28,59,467,-169,1,0,34,5,240,1,53298,1
2,29683,30760,32211,51095,39167,-4216,930,-716,8,-7,21,60,462,-162,1,0,34,5,280,1,53298,1
2,29665,30760,32201,51096,39192,-4217,922,-714,0,-6,16,56,458,-168,1,0,34,5,320,1,53298,1
2,29700,30760,32200,51097,39217,-4223,903,-720,6,-9,19,53,461,-171,1,0,34,5,360,1,53298,1
2,29711,30763,32199,51098,39241,-4221,904,-710,13,-7,20,59,461,-169,1,0,34,5,400,1,53298,1
2,29695,30763,32197,51099,39266,-4216,915,-722,0,-6,16,56,474,-168,1,0,34,5,440,1,53298,1
2,29700,30759,32198,51100,39289,-4216,906,-719,6,-4,20,54,462,-162,1,0,34,5,480,1,53298,1
2,29695,30758,32202,51101,39313,-4219,909,-724,17,-16,21,54,464,-170,1,0,34,5,520,1,53298,1
2,29699,30760,32202,51102,39337,-4220,907,-718,7,-16,16,59,465,-171,1,0,34,5,560,1,53298,1
2,29678,30760,32206,51103,39362,-4212,904,-713,4,-5,26,48,470,-168,1,0,34,5,600,1,53298,1
2,29694,30760,32204,51104,39386,-4219,922,-721,6,4,16,57,463,-167,1,0,34,5,640,1,53298,1
2,29686,30759,32203,51105,39410,-4222,909,-717,13,-2,22,55,463,-171,1,0,34,5,680,1,53298,1
2,29688,30761,32215,51106,39433,-4218,912,-714,9,-9,19,58,474,-164,1,0,34,5,720,1,53298,1
2,29694,30764,32201,51107,39457,-4218,912,-718,12,3,17,48,468,-168,1,0,34,5,760,1,53298,1
2,29691,30758,32205,51108,39481,-4224,911,-712,27,-1,19,53,467,-165,1,0,34,5,800,1,53298,1
2,29685,30760,32203,51109,39506,-4213,920,-738,18,1,28,54,464,-166,1,0,34,5,840,1,53298,1
2,29670,30760,32208,51110,39529,-4223,919,-722,10,-11,25,55,467,-173,1,0,34,5,880,1,53298,1
2,29664,30759,32208,51111,39554,-4228,916,-709,-8,-8,27,58,472,-176,1,0,34,5,920,1,53298,1
2,29657,30758,32201,51112,39578,-4212,907,-718,11,-15,14,57,473,-169,1,0,34,5,960,1,53298,1
1,29679,30757,32199,51113,0,-4223,912,-708,12,-2,17,49,461,-169,1,0,34,6,0,1,53298,1
2,29666,30755,32205,51114,38580,-4230,910,-726,8,-8,16,58,464,-166,1,0,34,6,40,1,53298,1
2,29659,30757,32200,51115,38603,-4219,911,-723,3,0,17,55,467,-167,1,0,34,6,80,1,53298,1
2,29653,30757,32196,51116,38627,-4214,907,-717,14,-6,22,59,461,-171,1,0,34,6,120,1,53298,1
2,29662,30755,32190,51117,38652,-4218,915,-717,13,-7,24,58,464,-166,1,0,34,6,160,1,53298,1
2,29665,30755,32198,51118,38676,-4234,908,-724,1,-4,21,57,461,-175,1,0,34,6,200,1,53298,1
2,29663,30755,32201,51119,38701,-4231,912,-722,8,-7,28,52,470,-164,1,0,34,6,240,1,53298,1
2,29646,30757,32203,51120,38725,-4213,910,-724,11,-9,21,52,470,-162,1,0,34,6,280,1,53298,1
2,29660,30760,32200,51121,38750,-4224,904,-713,4,-7,16,57,467,-175,1,0,34,6,320,1,53298,1
2,29664,30757,32210,51122,38774,-4225,912,-730,-3,-6,17,58,472,-170,1,0,34,6,360,1,53298,1
2,29649,30757,32198,51123,38799,-4222,901,-719,6,0,26,60,474,-168,1,0,34,6,400,1,53298,1
2,29669,30755,32202,51124,38824,-4207,913,-726,18,-8,23,54,474,-172,1,0,34,6,440,1,53298,1
2,29658,30757,32199,51125,38849,-4218,904,-715,11,2,23,57,467,-165,1,0,34,6,480,1,53298,1
2,29642,30755,32201,51126,38873,-4202,925,-713,15,-6,16,57,463,-181,1,0,34,6,520,1,53298,1
2,29641,30757,32202,51127,38898,-4224,898,-721,11,-6,18,64,468,-164,1,0,34,6,560,1,53298,1
2,29650,30756,32206,51128,38922,-4223,905,-725,18,1,20,54,468,-156,1,0,34,6,600,1,53298,1
2,29641,30754,32204,51129,38946,-4216,912,-717,8,1,27,57,467,-163,1,0,34,6,640,1,53298,1
2,29661,30759,32207,51130,38971,-4226,913,-724,0,0,25,55,465,-171,1,0,34,6,680,1,53298,1
2,29640,30758,32212,51131,38996,-4212,906,-722,4,-10,17,62,462,-172,1,0,34,6,720,1,53298,1
2,29656,30756,32208,51132,39021,-4221,918,-722,16,-7,21,53,469,-165,1,0,34,6,760,1,53298,1
2,29633,30760,32212,51133,39045,-4206,916,-720,3,1,24,55,469,-153,1,0,34,6,800,1,53298,1
2,29664,30762,32218,51134,39069,-4223,909,-728,-1,-2,13,56,472,-170,1,0,34,6,840,1,53298,1
2,29643,30760,32210,51135,39093,-4222,907,-719,-1,-8,21,62,468,-172,1,0,34,6,880,1,53298,1
2,29635,30760,32203,51136,39117,-4221,919,-714,12,-14,23,54,472,-164,1,0,34,6,920,1,53298,1
2,29642,30759,32205,51137,39140,-4212,914,-719,4,-10,18,62,458,-164,1,0,34,6,960,1,53298,1
1,29635,30758,32198,51138,0,-4217,904,-737,-4,-9,14,55,465,-161,1,0,34,7,0,0,53298,1
2,29654,30758,32218,51139,38140,-4207,916,-722,8,-22,31,57,469,-173,1,0,34,7,40,0,53298,1
2,29667,30757,32206,51140,38163,-4224,904,-710,4,-19,28,56,464,-164,1,0,34,7,80,0,53298,1
2,29654,30759,32221,51141,38186,-4205,899,-709,-3,-33,14,55,471,-165,1,0,34,7,120,0,53298,1
2,29662,30757,32200,51142,38209,-4218,927,-679,26,-13,22,52,474,-156,1,0,34,7,160,0,53298,1
2,29659,30757,32203,51143,38233,-4224,915,-707,-2,11,17,57,465,-169,1,0,34,7,200,0,53298,1
2,29676,30770,32236,51144,38256,-4211,876,-784,-84,44,20,63,467,-169,1,0,34,7,240,0,53298,1
2,29656,30756,32201,51145,38280,-4242,936,-688,93,4,28,64,468,-172,1,0,34,7,280,0,53298,1
2,29662,30757,32197,51146,38305,-4211,910,-725,83,11,16,54,464,-168,1,0,34,7,320,0,53298,1
2,29675,30759,32192,51147,38329,-4224,910,-717,-28,10,19,61,469,-167,1,0,34,7,360,0,53298,1
2,29652,30760,32198,51148,38353,-4202,916,-726,-98,25,25,62,464,-158,1,0,34,7,400,0,53298,1
2,29653,30757,32195,51149,38377,-4199,912,-740,-46,-38,71,58,464,-162,1,0,34,7,440,0,53298,1
2,29632,30759,32203,51150,38401,-4222,941,-711,-88,-27,27,58,472,-164,1,0,34,7,480,0,53298,1
2,29638,30759,32198,51151,38426,-4224,907,-701,-105,-5,-43,58,462,-174,1,0,34,7,520,0,53298,1
2,29661,30760,32201,51152,38450,-4212,885,-714,40,25,-58,65,469,-169,1,0,34,7,560,0,53298,1
2,29654,30758,32200,51153,38474,-4234,907,-701,81,62,1,54,464,-166,1,0,34,7,600,0,53298,1
2,29658,30757,32204,51154,38498,-4232,924,-729,122,43,38,57,469,-159,1,0,34,7,640,0,53298,1
2,29644,30758,32203,51155,38522,-4205,885,-772,-71,-26,99,56,462,-168,1,0,34,7,680,0,53298,1
2,29630,30755,32194,51156,38546,-4222,907,-702,-53,-155,175,45,467,-165,1,0,34,7,720,0,53298,1
2,29628,30756,32189,51157,38571,-4204,941,-704,-99,-199,186,59,465,-167,1,0,34,7,760,0,53298,1
2,29626,30759,32195,51158,38596,-4204,949,-689,-164,-171,126,52,464,-160,1,0,34,7,800,0,53298,1
2,29619,30757,32202,51159,38621,-4223,936,-680,-111,-80,27,55,469,-169,1,0,34,7,840,0,53298,1
2,29607,30754,32194,51160,38646,-4225,918,-692,58,32,-64,58,476,-166,1,0,34,7,880,0,53298,1
2,29593,30755,32190,51161,38670,-4229,922,-702,123,114,-130,57,453,-159,1,0,34,7,920,0,53298,1
2,29598,30756,32192,51162,38696,-4234,899,-713,101,152,-147,58,468,-166,1,0,34,7,960,0,53298,1
1,29599,30755,32191,51163,0,-4223,892,-737,117,130,-85,53,469,-173,1,0,34,8,0,0,53298,1
2,29596,30757,32186,51164,37703,-4212,923,-729,108,86,-24,58,474,-170,1,0,34,8,40,0,53298,1
2,29615,30757,32194,51165,37727,-4206,923,-714,66,45,3,63,473,-167,1,0,34,8,80,0,53298,1
2,29616,30754,32187,51166,37751,-4222,902,-730,-4,-4,4,49,461,-165,1,0,34,8,120,0,53298,1
2,29620,30757,32208,51167,37775,-4221,910,-718,-6,-65,27,66,460,-166,1,0,34,8,160,0,53298,1
2,29623,30756,32185,51168,37799,-4218,915,-702,-35,-86,48,57,463,-167,1,0,34,8,200,0,53298,1
2,29616,30753,32190,51169,37824,-4213,909,-707,-42,-72,72,58,466,-170,1,0,34,8,240,0,53298,1
2,29638,30755,32189,51170,37849,-4222,906,-705,-1,-17,56,47,469,-171,1,0,34,8,280,0,53298,1
2,29639,30756,32206,51171,37874,-4223,912,-706,33,30,11,58,462,-164,1,0,34,8,320,0,53298,1
2,29628,30754,32192,51172,37898,-4221,912,-701,69,44,-6,49,477,-149,1,0,34,8,360,0,53298,1
2,29637,30751,32190,51173,37922,-4223,906,-718,53,48,-7,56,462,-162,1,0,34,8,400,0,53298,1
2,29605,30751,32190,51174,37947,-4225,913,-717,48,27,8,64,460,-166,1,0,34,8,440,0,53298,1
2,29622,30754,32188,51175,37973,-4224,910,-710,34,-1,20,62,472,-170,1,0,34,8,480,0,53298,1
2,29614,30756,32202,51176,37997,-4209,910,-715,-11,-15,33,57,469,-169,1,0,34,8,520,0,53298,1
2,29627,30752,32194,51177,38022,-4215,911,-708,-20,-22,40,55,475,-167,1,0,34,8,560,0,53298,1
2,29616,30753,32190,51178,38046,-4224,914,-704,-13,-31,46,60,468,-168,1,0,34,8,600,0,53298,1
2,29620,30753,32193,51179,38070,-4224,909,-716,2,-30,28,51,461,-165,1,0,34,8,640,0,53298,1
2,29619,30753,32198,51180,38094,-4208,919,-725,11,-9,8,54,472,-168,1,0,34,8,680,0,53298,1
2,29628,30752,32197,51181,38117,-4227,901,-724,-9,12,11,58,468,-168,1,0,34,8,720,0,53298,1
2,29605,30752,32190,51182,38141,-4222,914,-732,33,1,19,56,460,-168,1,0,34,8,760,0,53298,1
2,29595,30753,32194,51183,38164,-4215,917,-726,17,2,33,55,463,-155,1,0,34,8,800,0,53298,1
2,29600,30752,32198,51184,38188,-4213,914,-731,-17,-10,41,62,468,-170,1,0,34,8,840,0,53298,1
2,29612,30752,32194,51185,38212,-4223,915,-719,-3,-22,52,50,466,-166,1,0,34,8,880,0,53298,1
2,29614,30753,32187,51186,38236,-4225,916,-706,6,-16,32,59,465,-165,1,0,34,8,920,0,53298,1
2,29606,30752,32194,51187,38260,-4214,913,-706,-1,14,2,63,471,-171,1,0,34,8,960,0,53298,1
1,29625,30752,32200,51188,0,-4222,909,-727,21,17,-12,44,474,-158,1,0,34,9,0,0,53298,1
2,29607,30753,32191,51189,37263,-4228,909,-700,36,18,-5,59,465,-171,1,0,34,9,40,0,53298,1
2,29615,30751,32194,51190,37286,-4218,909,-718,21,7,4,57,465,-169,1,0,34,9,80,0,53298,1
2,29616,30754,32189,51191,37310,-4217,910,-724,11,5,22,55,463,-171,1,0,34,9,120,0,53298,1
2,29619,30753,32189,51192,37334,-4215,913,-722,-8,-12,38,57,461,-173,1,0,34,9,160,0,53298,1
2,29618,30752,32190,51193,37358,-4219,918,-715,-37,-26,37,61,463,-159,1,0,34,9,200,0,53298,1
2,29611,30751,32192,51194,37382,-4228,922,-711,-12,-58,28,60,466,-170,1,0,34,9,240,0,53298,1
2,29617,30750,32183,51195,37407,-4231,903,-700,0,-44,10,55,467,-163,1,0,34,9,280,0,53298,1
2,29609,30751,32190,51196,37430,-4233,898,-718,-31,-19,27,61,467,-171,1,0,34,9,320,0,53298,1
2,29609,30751,32200,51197,37454,-4224,905,-704,39,-6,58,59,467,-167,1,0,34,9,360,0,53298,1
2,29607,30749,32188,51198,37478,-4221,920,-714,20,25,68,58,466,-156,1,0,34,9,400,0,53298,1
2,29594,30751,32186,51199,37501,-4232,922,-711,2,39,41,53,463,-167,1,0,34,9,440,0,53298,1
2,29602,30753,32190,51200,37525,-4213,917,-716,37,12,-7,59,473,-171,1,0,34,9,480,0,53298,1
2,29597,30752,32185,51201,37549,-4217,896,-724,15,6,-43,52,468,-168,1,0,34,9,520,0,53298,1
2,29590,30752,32190,51202,37573,-4212,914,-700,16,-12,-21,63,467,-167,1,0,34,9,560,0,53298,1
2,29601,30754,32190,51203,37596,-4223,913,-713,36,15,9,58,464,-174,1,0,34,9,600,0,53298,1
2,29616,30754,32197,51204,37621,-4220,915,-708,24,31,25,53,469,-169,1,0,34,9,640,0,53298,1
2,29604,30753,32194,51205,37645,-4229,921,-719,7,24,34,55,479,-157,1,0,34,9,680,0,53298,1
2,29584,30754,32192,51206,37668,-4216,910,-719,-14,-20,25,51,461,-167,1,0,34,9,720,0,53298,1
2,29595,30754,32197,51207,37692,-4204,922,-719,-35,-73,25,57,467,-167,1,0,34,9,760,0,53298,1
2,29603,30751,32196,51208,37716,-4228,910,-709,-14,-76,32,58,470,-168,1,0,34,9,800,0,53298,1
2,29613,30753,32202,51209,37740,-4225,905,-699,18,-30,42,56,466,-176,1,0,34,9,840,0,53298,1
2,29613,30754,32200,51210,37764,-4219,917,-716,14,24,29,57,471,-167,1,0,34,9,880,0,53298,1
2,29616,30754,32204,51211,37788,-4216,915,-716,11,50,17,53,467,-161,1,0,34,9,920,0,53298,1
2,29602,30758,32201,51212,37811,-4228,906,-728,30,25,16,56,458,-172,1,0,34,9,960,0,53298,1
1,29598,30754,32205,51213,0,-4221,908,-712,18,-15,16,56,470,-172,1,0,34,10,0,1,53298,1
2,29593,30752,32201,51214,36823,-4219,915,-713,12,-24,18,49,463,-167,1,0,34,10,40,1,53298,1
2,29597,30757,32205,51215,36846,-4219,914,-724,2,-9,11,58,462,-162,1,0,34,10,80,1,53298,1
2,29621,30755,32200,51216,36870,-4224,909,-729,6,10,12,43,465,-163,1,0,34,10,120,1,53298,1
2,29608,30753,32199,51217,36894,-4212,916,-709,27,-2,19,54,472,-170,1,0,34,10,160,1,53298,1
2,29597,30754,32198,51218,36918,-4214,922,-728,21,0,18,60,474,-168,1,0,34,10,200,1,53298,1
2,29593,30757,32200,51219,36941,-4218,912,-719,17,-9,27,55,461,-161,1,0,34,10,240,1,53298,1
2,29595,30758,32214,51220,36965,-4232,892,-715,4,-3,28,59,467,-177,1,0,34,10,280,1,53298,1
2,29600,30756,32203,51221,36989,-4215,911,-705,-7,5,20,58,470,-168,1,0,34,10,320,1,53298,1
2,29608,30757,32205,51222,37012,-4215,905,-712,5,-16,26,53,471,-167,1,0,34,10,360,1,53298,1
2,29616,30752,32197,51223,37035,-4230,899,-713,10,-8,14,56,464,-158,1,0,34,10,400,1,53298,1
2,29629,30751,32205,51224,37059,-4203,925,-729,6,-11,12,56,462,-156,1,0,34,10,440,1,53298,1
2,29640,30753,32197,51225,37082,-4220,906,-710,10,-3,14,46,468,-168,1,0,34,10,480,1,53298,1
2,29626,30751,32205,51226,37105,-4222,906,-708,18,7,23,57,467,-167,1,0,34,10,520,1,53298,1
2,29617,30756,32203,51227,37129,-4215,917,-715,8,10,21,59,461,-167,1,0,34,10,560,1,53298,1
2,29616,30757,32206,51228,37153,-4235,898,-702,8,-10,22,50,460,-160,1,0,34,10,600,1,53298,1
2,29630,30757,32202,51229,37177,-4216,914,-715,2,-19,22,47,465,-175,1,0,34,10,640,1,53298,1
2,29631,30759,32200,51230,37201,-4214,919,-719,-3,-15,29,58,470,-168,1,0,34,10,680,1,53298,1
2,29627,30760,32200,51231,37224,-4216,903,-745,2,-8,19,63,473,-179,1,0,34,10,720,1,53298,1
2,29628,30761,32205,51232,37248,-4219,907,-709,10,6,23,52,462,-162,1,0,34,10,760,1,53298,1
2,29624,30758,32205,51233,37272,-4220,899,-709,13,3,27,58,468,-168,1,0,34,10,800,1,53298,1
2,29631,30759,32202,51234,37296,-4206,929,-722,18,6,13,51,471,-159,1,0,34,10,840,1,53298,1
2,29640,30759,32203,51235,37320,-4224,910,-711,22,6,16,55,463,-165,1,0,34,10,880,1,53298,1
2,29613,30755,32214,51236,37345,-4218,915,-721,7,-5,19,55,465,-165,1,0,34,10,920,1,53298,1
2,29630,30756,32205,51237,37368,-4228,902,-708,7,-2,32,52,466,-170,1,0,34,10,960,1,53298,1
1,29612,30754,32200,51238,0,-4214,913,-706,-4,-16,24,54,464,-168,1,0,34,11,0,0,53298,1
2,29609,30752,32196,51239,36385,-4212,920,-703,8,-10,13,61,475,-167,1,0,34,11,40,0,53298,1
2,29589,30754,32205,51240,36409,-4212,906,-710,8,3,9,64,474,-170,1,0,34,11,80,0,53298,1
2,29630,30751,32199,51241,36433,-4224,913,-720,12,4,17,49,465,-157,1,0,34,11,120,0,53298,1
2,29604,30754,32198,51242,36458,-4229,909,-716,7,-6,14,63,465,-163,1,0,34,11,160,0,53298,1
2,29591,30752,32206,51243,36481,-4227,904,-735,-3,-14,21,64,474,-156,1,0,34,11,200,0,53298,1
2,29624,30748,32196,51244,36505,-4221,907,-703,20,-18,20,52,460,-158,1,0,34,11,240,0,53298,1
2,29619,30749,32199,51245,36530,-4224,902,-711,16,-17,22,60,470,-168,1,0,34,11,280,0,53298,1
2,29617,30748,32206,51246,36554,-4212,913,-732,-18,11,36,53,469,-165,1,0,34,11,320,0,53298,1
2,29635,30753,32200,51247,36579,-4216,925,-692,43,-6,41,51,465,-165,1,0,34,11,360,0,53298,1
2,29628,30755,32204,51248,36604,-4218,910,-716,-1,9,17,56,474,-174,1,0,34,11,400,0,53298,1
2,29616,30751,32201,51249,36628,-4227,895,-729,-41,-12,2,63,465,-159,1,0,34,11,440,0,53298,1
2,29614,30748,32196,51250,36653,-4218,922,-701,58,-37,14,52,468,-168,1,0,34,11,480,0,53298,1
2,29616,30756,32199,51251,36677,-4205,912,-712,-20,-8,13,62,462,-160,1,0,34,11,520,0,53298,1
2,29602,30752,32197,51252,36700,-4223,913,-721,-23,-2,36,60,470,-174,1,0,34,11,560,0,53298,1
2,29622,30753,32199,51253,36724,-4216,912,-728,37,-13,23,53,473,-161,1,0,34,11,600,0,53298,1
2,29616,30754,32195,51254,36747,-4219,922,-717,18,6,19,53,467,-159,1,0,34,11,640,0,53298,1
2,29627,30750,32194,51255,36771,-4221,910,-707,-21,7,13,47,473,-159,1,0,34,11,680,0,53298,1
2,29616,30755,32205,51256,36795,-4215,912,-712,20,0,24,53,465,-161,1,0,34,11,720,0,53298,1
2,29621,30750,32193,51257,36820,-4211,919,-715,19,-7,28,58,458,-174,1,0,34,11,760,0,53298,1
2,29631,30753,32205,51258,36845,-4230,912,-709,21,0,19,59,467,-167,1,0,34,11,800,0,53298,1
2,29617,30750,32190,51259,36869,-4227,900,-719,4,12,0,56,468,-174,1,0,34,11,840,0,53298,1
2,29636,30750,32200,51260,36893,-4225,899,-719,23,0,15,62,462,-166,1,0,34,11,880,0,53298,1
2,29613,30754,32201,51261,36918,-4214,912,-714,20,-14,14,57,467,-163,1,0,34,11,920,0,53298,1
2,29632,30751,32205,51262,36942,-4222,907,-716,-2,-3,22,56,458,-158,1,0,34,11,960,0,53298,1
1,29618,30754,32204,51263,0,-4216,900,-709,-2,-7,23,56,466,-172,1,0,34,12,0,1,53298,1
2,29631,30753,32197,51264,35946,-4197,923,-713,4,-11,22,59,465,-169,1,0,34,12,40,1,53298,1
2,29633,30750,32202,51265,35970,-4205,918,-718,0,-15,32,48,472,-162,1,0,34,12,80,1,53298,1
2,29617,30752,32202,51266,35994,-4219,909,-713,-8,-9,27,58,464,-150,1,0,34,12,120,1,53298,1
2,29630,30757,32212,51267,36018,-4211,915,-725,12,-9,24,56,464,-172,1,0,34,12,160,1,53298,1
2,29632,30751,32204,51268,36042,-4234,912,-711,6,-14,17,53,473,-179,1,0,34,12,200,1,53298,1
2,29628,30753,32206,51269,36066,-4208,917,-730,-2,-4,16,58,470,-168,1,0,34,12,240,1,53298,1
2,29631,30755,32191,51270,36091,-4218,905,-727,12,-2,20,54,466,-168,1,0,34,12,280,1,53298,1
2,29627,30749,32200,51271,36115,-4224,910,-715,12,1,23,52,472,-166,1,0,34,12,320,1,53298,1
2,29620,30751,32200,51272,36141,-4225,911,-720,13,4,16,59,467,-169,1,0,34,12,360,1,53298,1
2,29614,30749,32202,51273,36165,-4233,901,-702,21,4,14,59,473,-169,1,0,34,12,400,1,53298,1
2,29603,30752,32205,51274,36190,-4226,901,-722,10,3,10,56,476,-152,1,0,34,12,440,1,53298,1
2,29605,30753,32209,51275,36215,-4231,904,-707,18,-12,28,59,461,-169,1,0,34,12,480,1,53298,1
2,29610,30750,32204,51276,36239,-4223,905,-715,-4,-6,15,54,464,-170,1,0,34,12,520,1,53298,1
2,29604,30753,32206,51277,36263,-4232,897,-728,0,-11,24,49,469,-163,1,0,34,12,560,1,53298,1
2,29596,30751,32197,51278,36286,-4229,902,-701,3,-5,14,54,468,-162,1,0,34,12,600,1,53298,1
2,29605,30750,32196,51279,36310,-4221,921,-710,15,-4,23,60,470,-164,1,0,34,12,640,1,53298,1
2,29604,30747,32199,51280,36334,-4227,903,-730,8,4,18,56,476,-160,1,0,34,12,680,1,53298,1
2,29617,30751,32203,51281,36357,-4220,914,-710,-1,9,13,58,476,-170,1,0,34,12,720,1,53298,1
2,29620,30751,32203,51282,36381,-4228,904,-710,7,-13,15,57,471,-169,1,0,34,12,760,1,53298,1
2,29617,30750,32204,51283,36405,-4218,904,-708,19,-9,20,43,469,-153,1,0,34,12,800,1,53298,1
2,29612,30754,32200,51284,36429,-4214,915,-716,-5,-5,18,61,461,-171,1,0,34,12,840,1,53298,1
2,29602,30750,32203,51285,36452,-4217,906,-695,8,-8,20,60,466,-170,1,0,34,12,880,1,53298,1
2,29613,30750,32200,51286,36476,-4214,908,-711,16,-8,22,50,466,-174,1,0,34,12,920,1,53298,1
2,29615,30752,32195,51287,36499,-4226,914,-711,7,-5,22,51,467,-153,1,0,34,12,960,1,53298,1
1,29597,30750,32205,51288,0,-4224,908,-713,0,3,30,59,463,-167,1,0,34,13,0,1,53298,1
2,29603,30752,32202,51289,35507,-4229,906,-709,19,-4,18,55,465,-163,1,0,34,13,40,1,53298,1
2,29600,30753,32199,51290,35531,-4225,913,-719,20,3,27,59,461,-165,1,0,34,13,80,1,53298,1
2,29591,30750,32202,51291,35556,-4221,917,-727,16,5,17,62,462,-164,1,0,34,13,120,1,53298,1
2,29586,30750,32211,51292,35581,-4216,902,-698,19,5,8,50,460,-162,1,0,34,13,160,1,53298,1
2,29585,30754,32200,51293,35606,-4225,910,-708,4,-9,29,57,459,-159,1,0,34,13,200,1,53298,1
2,29592,30752,32199,51294,35631,-4217,915,-708,27,-17,25,52,464,-166,1,0,34,13,240,1,53298,1
2,29595,30753,32203,51295,35655,-4217,899,-704,15,-2,13,62,472,-162,1,0,34,13,280,1,53298,1
2,29588,30751,32205,51296,35680,-4216,909,-723,-13,31,16,59,473,-171,1,0,34,13,320,1,53298,1
2,29611,30749,32198,51297,35704,-4231,906,-698,76,38,31,64,472,-170,1,0,34,13,360,1,53298,1
2,29626,30748,32203,51298,35728,-4222,916,-717,50,51,5,51,471,-171,1,0,34,13,400,1,53298,1
2,29635,30751,32199,51299,35751,-4228,901,-738,-19,19,-7,57,467,-163,1,0,34,13,440,1,53298,1
2,29629,30750,32201,51300,35775,-4216,900,-731,-54,-52,19,57,467,-165,1,0,34,13,480,1,53298,1
2,29622,30749,32203,51301,35798,-4244,895,-697,21,-87,50,57,467,-173,1,0,34,13,520,1,53298,1
2,29605,30750,32203,51302,35822,-4215,918,-696,-18,-55,62,52,470,-172,1,0,34,13,560,1,53298,1
2,29601,30753,32218,51303,35846,-4221,897,-704,-55,-19,61,56,462,-170,1,0,34,13,600,1,53298,1
2,29592,30754,32202,51304,35871,-4226,909,-718,27,11,45,49,465,-169,1,0,34,13,640,1,53298,1
2,29592,30756,32214,51305,35894,-4213,912,-714,2,0,24,53,467,-165,1,0,34,13,680,1,53298,1
2,29604,30752,32207,51306,35919,-4226,909,-702,-10,-14,5,52,472,-164,1,0,34,13,720,1,53298,1
2,29590,30752,32213,51307,35942,-4226,912,-700,8,-24,3,58,478,-166,1,0,34,13,760,1,53298,1
2,29581,30754,32210,51308,35967,-4212,917,-726,11,-3,9,56,470,-166,1,0,34,13,800,1,53298,1
2,29613,30748,32198,51309,35991,-4219,916,-704,14,20,20,60,462,-164,1,0,34,13,840,1,53298,1
2,29618,30748,32204,51310,36016,-4216,908,-731,28,17,27,58,474,-164,1,0,34,13,880,1,53298,1
2,29605,30749,32206,51311,36040,-4221,920,-709,30,3,29,59,465,-163,1,0,34,13,920,1,53298,1
2,29617,30748,32215,51312,36065,-4224,903,-719,-5,-10,37,49,463,-167,1,0,34,13,960,1,53298,1
1,29633,30755,32213,51313,0,-4213,913,-709,-1,-23,42,59,475,-169,1,0,34,14,0,0,53298,1
2,29641,30751,32207,51314,35068,-4215,912,-705,-6,-16,21,59,463,-159,1,0,34,14,40,0,53298,1
2,29621,30752,32208,51315,35092,-4216,918,-712,-14,-15,15,61,465,-169,1,0,34,14,80,0,53298,1
2,29617,30750,32204,51316,35117,-4217,918,-703,33,-7,4,56,466,-162,1,0,34,14,120,0,53298,1
2,29601,30749,32206,51317,35142,-4232,902,-719,23,18,4,54,466,-154,1,0,34,14,160,0,53298,1
2,29607,30754,32195,51318,35166,-4220,901,-722,17,23,4,56,470,-174,1,0,34,14,200,0,53298,1
2,29615,30755,32201,51319,35190,-4219,911,-715,55,11,13,52,466,-156,1,0,34,14,240,0,53298,1
2,29608,30755,32200,51320,35216,-4214,914,-721,12,5,18,59,471,-169,1,0,34,14,280,0,53298,1
2,29606,30750,32206,51321,35241,-4224,897,-723,-26,-5,34,59,473,-171,1,0,34,14,320,0,53298,1
2,29616,30754,32197,51322,35265,-4215,921,-703,11,-25,33,50,466,-166,1,0,34,14,360,0,53298,1
2,29619,30747,32204,51323,35290,-4228,916,-708,36,-19,31,50,464,-172,1,0,34,14,400,0,53298,1
2,29622,30748,32213,51324,35315,-4220,905,-711,-24,9,34,52,470,-168,1,0,34,14,440,0,53298,1
2,29612,30750,32209,51325,35340,-4225,908,-702,46,-2,32,53,467,-155,1,0,34,14,480,0,53298,1
2,29625,30750,32201,51326,35364,-4221,922,-707,34,8,37,57,465,-171,1,0,34,14,520,0,53298,1
2,29625,30753,32207,51327,35388,-4215,915,-710,2,6,-10,58,464,-162,1,0,34,14,560,0,53298,1
2,29624,30751,32197,51328,35412,-4213,904,-707,44,-13,-24,63,473,-171,1,0,34,14,600,0,53298,1
2,29609,30747,32220,51329,35436,-4219,905,-717,7,-6,2,51,459,-159,1,0,34,14,640,0,53298,1
2,29612,30756,32205,51330,35460,-4216,917,-697,67,18,46,54,464,-160,1,0,34,14,680,0,53298,1
2,29610,30752,32215,51331,35483,-4218,921,-725,64,39,53,56,464,-162,1,0,34,14,720,0,53298,1
2,29606,30752,32206,51332,35507,-4213,913,-731,12,37,41,57,469,-175,1,0,34,14,760,0,53298,1
2,29599,30751,32199,51333,35531,-4220,916,-718,26,6,10,52,474,-170,1,0,34,14,800,0,53298,1
2,29597,30751,32209,51334,35555,-4228,902,-708,20,-8,-15,63,463,-165,1,0,34,14,840,0,53298,1
2,29600,30755,32201,51335,35580,-4209,907,-716,-10,-15,-36,59,459,-169,1,0,34,14,880,0,53298,1
2,29589,30749,32200,51336,35604,-4223,902,-714,18,-1,-16,62,470,-162,1,0,34,14,920,0,53298,1
2,29591,30751,32206,51337,35629,-4228,894,-709,33,22,19,55,467,-169,1,0,34,14,960,0,53298,1
1,29586,30750,32196,51338,0,-4215,914,-712,27,23,32,53,465,-161,1,0,34,15,0,0,53298,1
2,29597,30755,32198,51339,34630,-4217,907,-735,-2,9,40,57,471,-167,1,0,34,15,40,0,53298,1
2,29587,30750,32203,51340,34655,-4224,912,-732,-2,-24,41,56,466,-168,1,0,34,15,80,0,53298,1
2,29579,30756,32205,51341,34678,-4239,901,-718,-13,-60,14,54,472,-160,1,0,34,15,120,0,53298,1
2,29576,30753,32206,51342,34703,-4220,912,-711,-27,-45,19,52,460,-158,1,0,34,15,160,0,53298,1
2,29573,30757,32200,51343,34728,-4224,904,-704,-11,-16,26,50,466,-162,1,0,34,15,200,0,53298,1
2,29570,30751,32205,51344,34753,-4228,911,-702,26,17,28,53,467,-163,1,0,34,15,240,0,53298,1
2,29574,30751,32195,51345,34776,-4226,911,-728,20,23,31,54,468,-164,1,0,34,15,280,0,53298,1
2,29585,30750,32202,51346,34800,-4217,914,-723,16,-2,26,61,465,-173,1,0,34,15,320,0,53298,1
2,29577,30757,32200,51347,34825,-4228,905,-722,-6,-17,20,60,468,-164,1,0,34,15,360,0,53298,1
2,29583,30750,32200,51348,34850,-4236,904,-717,-4,-27,18,58,472,-160,1,0,34,15,400,0,53298,1
2,29593,30752,32198,51349,34876,-4231,893,-715,2,-13,8,46,480,-158,1,0,34,15,440,0,53298,1
2,29597,30752,32200,51350,34901,-4219,914,-706,16,6,18,53,465,-163,1,0,34,15,480,0,53298,1
2,29582,30751,32205,51351,34926,-4234,911,-733,2,10,21,61,469,-163,1,0,34,15,520,0,53298,1
2,29602,30751,32199,51352,34951,-4218,912,-717,-10,-4,13,57,465,-171,1,0,34,15,560,0,53298,1
2,29603,30752,32195,51353,34976,-4230,908,-714,22,-19,9,55,467,-175,1,0,34,15,600,0,53298,1
2,29595,30753,32196,51354,35001,-4218,909,-726,2,-17,14,59,469,-169,1,0,34,15,640,0,53298,1
2,29610,30748,32193,51355,35025,-4220,908,-718,2,-3,27,55,471,-155,1,0,34,15,680,0,53298,1
2,29611,30750,32193,51356,35050,-4233,907,-708,19,-5,37,57,461,-169,1,0,34,15,720,0,53298,1
2,29602,30748,32192,51357,35075,-4239,895,-732,5,-12,36,60,464,-166,1,0,34,15,760,0,53298,1
2,29593,30755,32194,51358,35100,-4236,901,-711,-18,-16,26,66,470,-176,1,0,34,15,800,0,53298,1
2,29585,30749,32202,51359,35126,-4226,906,-704,-5,-25,33,56,468,-174,1,0,34,15,840,0,53298,1
2,29589,30751,32190,51360,35152,-4205,916,-705,22,-20,24,61,469,-161,1,0,34,15,880,0,53298,1
2,29592,30752,32201,51361,35177,-4221,909,-718,31,5,11,57,461,-161,1,0,34,15,920,0,53298,1
2,29593,30754,32191,51362,35202,-4235,911,-719,29,27,6,57,467,-159,1,0,34,15,960,0,53298,1
1,29583,30750,32195,51363,0,-4220,906,-719,30,30,4,60,460,-166,1,0,34,16,0,0,53298,1
2,29586,30752,32199,51364,34192,-4224,910,-730,24,8,12,54,464,-166,1,0,34,16,40,0,53298,1
2,29592,30751,32219,51365,34217,-4224,911,-714,13,-7,15,56,474,-166,1,0,34,16,80,0,53298,1
2,29600,30752,32205,51366,34242,-4214,916,-722,-12,-19,24,58,474,-178,1,0,34,16,120,0,53298,1
2,29590,30752,32204,51367,34268,-4231,902,-718,-13,-33,28,55,471,-167,1,0,34,16,160,0,53298,1
2,29594,30751,32208,51368,34292,-4233,909,-706,-3,-31,33,58,470,-168,1,0,34,16,200,0,53298,1
2,29594,30754,32197,51369,34317,-4219,905,-714,6,-15,31,46,474,-158,1,0,34,16,240,0,53298,1
2,29575,30752,32202,51370,34340,-4236,907,-711,16,-2,25,62,470,-170,1,0,34,16,280,0,53298,1
2,29590,30753,32212,51371,34364,-4216,912,-708,14,6,21,61,469,-169,1,0,34,16,320,0,53298,1
2,29583,30753,32205,51372,34389,-4212,906,-708,3,9,16,60,466,-170,1,0,34,16,360,0,53298,1
2,29588,30754,32204,51373,34415,-4226,895,-712,7,-7,12,49,479,-167,1,0,34,16,400,0,53298,1
2,29595,30755,32206,51374,34439,-4226,904,-699,7,-16,23,51,467,-171,1,0,34,16,440,0,53298,1
2,29589,30753,32208,51375,34463,-4221,911,-713,1,-10,18,51,471,-163,1,0,34,16,480,0,53298,1
2,29577,30752,32200,51376,34488,-4219,909,-720,-1,-6,29,57,471,-173,1,0,34,16,520,0,53298,1
2,29563,30754,32201,51377,34512,-4223,912,-708,12,-1,13,57,465,-171,1,0,34,16,560,0,53298,1
2,29556,30760,32210,51378,34538,-4216,910,-712,33,3,12,63,467,-173,1,0,34,16,600,0,53298,1
2,29554,30757,32202,51379,34563,-4231,894,-716,16,2,20,56,470,-168,1,0,34,16,640,0,53298,1
2,29552,30760,32203,51380,34587,-4215,915,-713,4,-7,22,53,457,-159,1,0,34,16,680,0,53298,1
2,29539,30756,32201,51381,34612,-4219,911,-718,1,-15,22,54,470,-170,1,0,34,16,720,0,53298,1
2,29530,30751,32202,51382,34638,-4234,899,-720,14,-6,18,59,467,-159,1,0,34,16,760,0,53298,1
2,29533,30755,32207,51383,34664,-4229,905,-724,-3,-2,24,59,465,-167,1,0,34,16,800,0,53298,1
2,29536,30757,32199,51384,34690,-4224,911,-718,14,-1,14,51,467,-163,1,0,34,16,840,0,53298,1
2,29554,30754,32202,51385,34716,-4219,911,-736,15,-2,19,61,457,-161,1,0,34,16,880,0,53298,1
2,29540,30754,32195,51386,34741,-4226,908,-704,15,-5,21,48,464,-174,1,0,34,16,920,0,53298,1
2,29538,30758,32202,51387,34767,-4228,910,-713,14,4,30,56,464,-166,1,0,34,16,960,0,53298,1
1,29539,30756,32204,51388,0,-4232,913,-715,1,-2,28,59,463,-177,1,0,34,17,0,1,53298,1
2,29537,30755,32203,51389,33755,-4222,913,-717,-2,-15,27,61,473,-169,1,0,34,17,40,1,53298,1
2,29538,30754,32194,51390,33781,-4219,904,-706,4,-13,26,48,464,-166,1,0,34,17,80,1,53298,1
2,29541,30757,32202,51391,33806,-4221,896,-738,4,-15,26,61,461,-163,1,0,34,17,120,1,53298,1
2,29540,30752,32201,51392,33831,-4221,908,-705,2,-5,17,49,465,-157,1,0,34,17,160,1,53298,1
2,29541,30757,32190,51393,33856,-4231,909,-719,9,-4,19,57,459,-163,1,0,34,17,200,1,53298,1
2,29540,30758,32203,51394,33881,-4232,904,-716,4,4,20,53,471,-157,1,0,34,17,240,1,53298,1
2,29532,30756,32196,51395,33905,-4212,919,-710,21,-4,16,57,459,-173,1,0,34,17,280,1,53298,1
2,29550,30759,32205,51396,33929,-4224,902,-714,16,4,26,56,464,-178,1,0,34,17,320,1,53298,1
2,29542,30754,32199,51397,33952,-4204,924,-712,8,-9,21,59,473,-173,1,0,34,17,360,1,53298,1
2,29550,30758,32220,51398,33977,-4227,903,-705,-9,-13,24,52,472,-166,1,0,34,17,400,1,53298,1
2,29542,30758,32215,51399,34000,-4215,916,-712,1,-11,26,64,466,-172,1,0,34,17,440,1,53298,1
2,29538,30754,32207,51400,34024,-4236,902,-714,5,-4,21,58,468,-170,1,0,34,17,480,1,53298,1
2,29528,30750,32195,51401,34049,-4237,898,-706,2,9,22,54,468,-166,1,0,34,17,520,1,53298,1
2,29531,30758,32215,51402,34073,-4225,916,-727,14,3,14,62,460,-164,1,0,34,17,560,1,53298,1
2,29536,30751,32200,51403,34097,-4230,898,-714,7,-5,21,61,477,-161,1,0,34,17,600,1,53298,1
2,29527,30753,32213,51404,34121,-4225,905,-722,9,-4,21,62,470,-168,1,0,34,17,640,1,53298,1
2,29530,30761,32219,51405,34145,-4220,894,-714,6,-10,20,56,466,-176,1,0,34,17,680,1,53298,1
2,29544,30762,32208,51406,34169,-4221,913,-714,-1,-3,21,55,469,-169,1,0,34,17,720,1,53298,1
2,29550,30754,32220,51407,34194,-4218,909,-703,0,-7,25,58,464,-170,1,0,34,17,760,1,53298,1
2,29559,30767,32199,51408,34218,-4203,918,-697,11,-12,16,55,469,-167,1,0,34,17,800,1,53298,1
2,29530,30761,32197,51409,34242,-4222,902,-718,7,-4,21,57,465,-167,1,0,34,17,840,1,53298,1
2,29520,30762,32206,51410,34266,-4222,896,-712,0,-1,21,58,468,-154,1,0,34,17,880,1,53298,1
2,29531,30761,32212,51411,34291,-4228,903,-717,8,-7,22,59,459,-167,1,0,34,17,920,1,53298,1
2,29552,30763,32217,51412,34315,-4227,906,-721,9,2,26,49,471,-157,1,0,34,17,960,1,53298,1
1,29574,30764,32214,51413,0,-4221,914,-723,2,-1,22,54,470,-162,1,0,34,18,0,1,53298,1
2,29574,30763,32217,51414,33315,-4225,912,-728,8,-4,20,63,467,-167,1,0,34,18,40,1,53298,1
2,29575,30759,32203,51415,33340,-4225,898,-713,17,0,17,48,470,-158,1,0,34,18,80,1,53298,1
2,29580,30760,32210,51416,33364,-4210,911,-709,8,-2,19,47,465,-167,1,0,34,18,120,1,53298,1
2,29580,30761,32201,51417,33389,-4223,904,-703,10,-5,22,57,467,-171,1,0,34,18,160,1,53298,1
2,29577,30761,32209,51418,33414,-4220,915,-722,2,-10,24,60,466,-164,1,0,34,18,200,1,53298,1
2,29575,30762,32213,51419,33439,-4231,903,-698,7,-12,18,64,466,-156,1,0,34,18,240,1,53298,1
2,29572,30760,32210,51420,33463,-4229,899,-728,0,0,14,58,466,-174,1,0,34,18,280,1,53298,1
2,29577,30761,32204,51421,33487,-4218,904,-701,6,-5,7,51,463,-167,1,0,34,18,320,1,53298,1
2,29583,30761,32210,51422,33512,-4230,908,-719,10,-9,18,61,467,-177,1,0,34,18,360,1,53298,1
2,29581,30759,32218,51423,33536,-4219,908,-708,8,-9,24,60,464,-170,1,0,34,18,400,1,53298,1
2,29581,30758,32200,51424,33561,-4208,916,-706,10,-12,19,51,467,-155,1,0,34,18,440,1,53298,1
2,29577,30758,32198,51425,33587,-4213,913,-730,6,-9,21,60,466,-166,1,0,34,18,480,1,53298,1
2,29599,30758,32198,51426,33613,-4227,906,-717,7,-1,27,49,461,-157,1,0,34,18,520,1,53298,1
2,29596,30756,32199,51427,33638,-4228,911,-713,1,-3,22,57,467,-167,1,0,34,18,560,1,53298,1
2,29605,30757,32191,51428,33663,-4217,912,-701,5,-9,20,60,468,-174,1,0,34,18,600,1,53298,1
2,29616,30757,32196,51429,33687,-4225,904,-715,3,-4,17,59,471,-167,1,0,34,18,640,1,53298,1
2,29619,30757,32195,51430,33712,-4222,910,-718,7,-5,17,56,468,-164,1,0,34,18,680,1,53298,1
2,29610,30758,32190,51431,33737,-4229,892,-717,14,-2,20,57,457,-165,1,0,34,18,720,1,53298,1
2,29600,30758,32190,51432,33761,-4223,903,-721,8,-1,16,58,460,-170,1,0,34,18,760,1,53298,1
2,29603,30756,32197,51433,33786,-4220,910,-715,0,-3,23,59,467,-171,1,0,34,18,800,1,53298,1
2,29616,30759,32192,51434,33810,-4223,916,-717,15,-5,22,52,466,-156,1,0,34,18,840,1,53298,1
2,29609,30757,32191,51435,33834,-4223,917,-708,18,-2,13,65,467,-165,1,0,34,18,880,1,53298,1
2,29589,30756,32199,51436,33857,-4225,913,-718,12,0,22,53,465,-159,1,0,34,18,920,1,53298,1
2,29612,30756,32198,51437,33882,-4222,913,-699,1,-4,23,52,460,-164,1,0,34,18,960,1,53298,1
1,29614,30756,32194,51438,0,-4233,911,-726,1,-9,22,63,461,-163,1,0,34,19,0,0,53298,1
2,29612,30756,32196,51439,32876,-4231,899,-710,12,-11,17,60,470,-164,1,0,34,19,40,0,53298,1
2,29609,30756,32192,51440,32900,-4221,907,-721,1,-1,18,61,475,-165,1,0,34,19,80,0,53298,1
2,29613,30757,32192,51441,32924,-4225,910,-708,6,3,24,57,467,-173,1,0,34,19,120,0,53298,1
2,29615,30755,32195,51442,32947,-4228,904,-740,7,-3,22,56,460,-170,1,0,34,19,160,0,53298,1
2,29618,30758,32199,51443,32971,-4216,914,-723,1,-20,23,58,462,-164,1,0,34,19,200,0,53298,1
2,29624,30758,32197,51444,32995,-4221,907,-708,4,-14,16,53,469,-165,1,0,34,19,240,0,53298,1
2,29614,30759,32200,51445,33020,-4227,904,-722,9,-7,28,56,464,-158,1,0,34,19,280,0,53298,1
2,29629,30758,32196,51446,33045,-4226,908,-707,6,2,25,58,466,-174,1,0,34,19,320,0,53298,1
2,29616,30759,32195,51447,33070,-4229,903,-713,6,0,20,56,470,-166,1,0,34,19,360,0,53298,1
2,29621,30758,32195,51448,33094,-4224,908,-713,12,-4,18,55,471,-165,1,0,34,19,400,0,53298,1
2,29631,30757,32198,51449,33119,-4209,912,-728,6,-13,25,54,468,-172,1,0,34,19,440,0,53298,1
2,29618,30759,32190,51450,33143,-4218,911,-727,-3,-9,15,63,475,-171,1,0,34,19,480,0,53298,1
2,29628,30757,32189,51451,33167,-4226,903,-704,12,-14,22,50,464,-166,1,0,34,19,520,0,53298,1
2,29623,30758,32195,51452,33191,-4223,902,-703,11,-11,18,53,465,-157,1,0,34,19,560,0,53298,1
2,29616,30761,32191,51453,33216,-4220,898,-719,11,0,21,46,472,-156,1,0,34,19,600,0,53298,1
2,29610,30759,32203,51454,33239,-4233,904,-722,7,-5,24,59,463,-155,1,0,34,19,640,0,53298,1
2,29597,30760,32195,51455,33263,-4210,908,-718,15,-6,22,57,467,-167,1,0,34,19,680,0,53298,1
2,29610,30761,32195,51456,33287,-4232,904,-719,11,-1,20,60,468,-168,1,0,34,19,720,0,53298,1
2,29596,30761,32198,51457,33311,-4225,907,-707,7,-9,24,63,471,-163,1,0,34,19,760,0,53298,1
2,29610,30761,32199,51458,33335,-4223,914,-722,-5,-15,23,56,472,-162,1,0,34,19,800,0,53298,1
2,29616,30760,32192,51459,33359,-4214,921,-721,9,-11,19,64,470,-168,1,0,34,19,840,0,53298,1
2,29622,30763,32191,51460,33384,-4225,907,-718,1,-3,20,48,474,-162,1,0,34,19,880,0,53298,1
2,29628,30762,32200,51461,33409,-4227,900,-694,7,-10,24,59,467,-167,1,0,34,19,920,0,53298,1
2,29634,30761,32196,51462,33433,-4217,919,-720,11,-4,19,54,466,-164,1,0,34,19,960,0,53298,1
1,29623,30760,32204,51463,0,-4230,890,-707,11,-5,24,57,469,-163,1,0,34,20,0,0,53298,1
2,29621,30761,32196,51464,32438,-4222,905,-707,11,-1,22,55,467,-169,1,0,34,20,40,0,53298,1
2,29635,30759,32200,51465,32462,-4211,916,-710,6,-13,18,61,463,-165,1,0,34,20,80,0,53298,1
2,29620,30760,32204,51466,32487,-4233,896,-714,5,-7,21,51,467,-161,1,0,34,20,120,0,53298,1
2,29602,30761,32200,51467,32511,-4220,911,-712,1,-4,28,61,467,-167,1,0,34,20,160,0,53298,1
2,29613,30759,32204,51468,32534,-4228,910,-722,11,-8,21,57,475,-171,1,0,34,20,200,0,53298,1
2,29609,30758,32202,51469,32558,-4229,909,-714,4,-7,10,60,464,-166,1,0,34,20,240,0,53298,1
2,29616,30758,32190,51470,32581,-4213,908,-707,8,-6,25,60,464,-174,1,0,34,20,280,0,53298,1
2,29615,30759,32195,51471,32606,-4227,904,-717,9,-5,20,64,472,-166,1,0,34,20,320,0,53298,1
2,29613,30759,32191,51472,32631,-4225,903,-725,9,-3,15,53,463,-163,1,0,34,20,360,0,53298,1
2,29607,30760,32198,51473,32655,-4225,903,-721,2,-5,23,60,464,-168,1,0,34,20,400,0,53298,1
2,29600,30759,32195,51474,32678,-4216,911,-710,9,-4,17,58,468,-168,1,0,34,20,440,0,53298,1
2,29604,30760,32206,51475,32701,-4220,914,-720,15,-3,22,50,474,-164,1,0,34,20,480,0,53298,1
2,29614,30760,32196,51476,32725,-4219,910,-709,13,-5,20,57,467,-169,1,0,34,20,520,0,53298,1
2,29625,30760,32198,51477,32749,-4218,910,-713,4,-9,22,47,461,-167,1,0,34,20,560,0,53298,1
2,29628,30763,32190,51478,32773,-4226,902,-705,2,1,25,62,470,-168,1,0,34,20,600,0,53298,1
2,29643,30760,32190,51479,32798,-4222,894,-711,14,-5,24,61,473,-177,1,0,34,20,640,0,53298,1
2,29640,30760,32194,51480,32821,-4226,910,-722,6,-5,24,59,471,-167,1,0,34,20,680,0,53298,1
2,29627,30761,32201,51481,32845,-4223,906,-725,7,0,15,64,464,-170,1,0,34,20,720,0,53298,1
2,29648,30759,32196,51482,32867,-4211,918,-711,6,-10,16,52,472,-158,1,0,34,20,760,0,53298,1
2,29642,30761,32199,51483,32890,-4228,895,-718,8,-7,21,55,469,-173,1,0,34,20,800,0,53298,1
2,29630,30761,32199,51484,32913,-4220,900,-719,13,-10,26,52,474,-168,1,0,34,20,840,0,53298,1
2,29622,30761,32202,51485,32936,-4221,903,-707,-3,-4,21,51,475,-167,1,0,34,20,880,0,53298,1
2,29636,30764,32205,51486,32960,-4224,906,-702,8,-6,33,52,472,-156,1,0,34,20,920,0,53298,1
2,29650,30761,32193,51487,32984,-4228,902,-710,10,-4,22,58,466,-174,1,0,34,20,960,0,53298,1
1,29661,30762,32203,51488,0,-4218,912,-720,4,-9,16,59,469,-169,1,0,34,21,0,0,53298,1
2,29642,30765,32203,51489,32001,-4225,907,-715,0,-9,17,55,469,-163,1,0,34,21,40,0,53298,1
2,29650,30762,32205,51490,32025,-4228,899,-716,6,-6,23,49,469,-159,1,0,34,21,80,0,53298,1
2,29648,30759,32197,51491,32049,-4227,897,-712,12,-12,19,51,467,-171,1,0,34,21,120,0,53298,1
2,29651,30765,32200,51492,32073,-4216,903,-709,1,-12,22,54,472,-160,1,0,34,21,160,0,53298,1
2,29655,30764,32203,51493,32097,-4213,917,-717,10,-10,20,55,467,-171,1,0,34,21,200,0,53298,1
2,29653,30766,32213,51494,32120,-4223,892,-708,13,-4,27,54,468,-170,1,0,34,21,240,0,53298,1
2,29635,30760,32190,51495,32143,-4237,896,-705,4,1,22,48,468,-170,1,0,34,21,280,0,53298,1
2,29638,30762,32195,51496,32166,-4234,891,-728,-1,-10,23,56,466,-168,1,0,34,21,320,0,53298,1
2,29648,30761,32213,51497,32189,-4219,917,-726,1,-9,22,50,474,-162,1,0,34,21,360,0,53298,1
2,29637,30763,32209,51498,32212,-4232,899,-708,5,-7,25,54,466,-162,1,0,34,21,400,0,53298,1
2,29636,30764,32204,51499,32235,-4213,907,-725,4,1,19,49,469,-169,1,0,34,21,440,0,53298,1
2,29656,30762,32198,51500,32258,-4223,911,-710,2,-4,11,58,466,-162,1,0,34,21,480,0,53298,1
2,29661,30760,32202,51501,32282,-4223,902,-704,8,-9,14,56,468,-172,1,0,34,21,520,0,53298,1
2,29656,30762,32198,51502,32305,-4210,915,-707,6,-20,17,52,466,-164,1,0,34,21,560,0,53298,1
2,29678,30760,32200,51503,32330,-4222,903,-711,7,-12,19,46,466,-170,1,0,34,21,600,0,53298,1
2,29656,30763,32199,51504,32354,-4215,912,-715,-1,-1,24,56,468,-176,1,0,34,21,640,0,53298,1
2,29651,30764,32211,51505,32378,-4228,899,-712,-1,6,26,59,471,-159,1,0,34,21,680,0,53298,1
2,29651,30763,32200,51506,32402,-4223,913,-722,18,-12,19,59,467,-167,1,0,34,21,720,0,53298,1
2,29634,30761,32206,51507,32426,-4226,900,-706,12,-8,17,58,472,-160,1,0,34,21,760,0,53298,1
2,29645,30760,32193,51508,32450,-4225,911,-720,6,-2,26,55,463,-175,1,0,34,21,800,0,53298,1
2,29651,30762,32190,51509,32474,-4216,910,-729,15,-8,14,63,479,-171,1,0,34,21,840,0,53298,1
2,29638,30762,32206,51510,32498,-4217,913,-704,15,-6,19,58,468,-170,1,0,34,21,880,0,53298,1
2,29651,30762,32205,51511,32521,-4227,919,-725,3,-3,23,65,465,-177,1,0,34,21,920,0,53298,1
2,29643,30763,32197,51512,32545,-4223,905,-729,17,-8,21,49,467,-155,1,0,34,21,960,0,53298,1
1,29636,30762,32206,51513,0,-4228,904,-718,23,-7,11,57,463,-161,1,0,34,22,0,1,53298,1
2,29641,30760,32202,51514,31563,-4230,902,-704,6,-5,15,60,474,-172,1,0,34,22,40,1,53298,1
2,29610,30760,32202,51515,31586,-4235,888,-711,1,-10,24,55,471,-163,1,0,34,22,80,1,53298,1
2,29619,30760,32199,51516,31610,-4219,916,-719,12,-16,13,55,469,-161,1,0,34,22,120,1,53298,1
2,29605,30759,32195,51517,31633,-4222,903,-711,-1,-11,14,54,468,-158,1,0,34,22,160,1,53298,1
2,29616,30759,32195,51518,31657,-4220,911,-710,8,3,18,47,465,-159,1,0,34,22,200,1,53298,1
2,29607,30761,32200,51519,31681,-4226,921,-712,6,-5,18,63,467,-177,1,0,34,22,240,1,53298,1
2,29606,30757,32192,51520,31704,-4229,899,-709,7,-6,15,53,467,-177,1,0,34,22,280,1,53298,1
2,29608,30761,32194,51521,31728,-4221,911,-710,9,-14,21,61,469,-165,1,0,34,22,320,1,53298,1
2,29611,30763,32198,51522,31752,-4216,908,-693,12,-8,24,60,466,-164,1,0,34,22,360,1,53298,1
2,29601,30760,32192,51523,31775,-4223,909,-707,2,-7,30,45,461,-167,1,0,34,22,400,1,53298,1
2,29597,30758,32194,51524,31799,-4217,902,-715,8,-14,23,58,456,-162,1,0,34,22,440,1,53298,1
2,29606,30759,32190,51525,31823,-4225,903,-710,6,-8,13,44,462,-158,1,0,34,22,480,1,53298,1
2,29599,30759,32185,51526,31846,-4225,900,-723,1,-10,15,66,468,-174,1,0,34,22,520,1,53298,1
2,29595,30758,32182,51527,31869,-4213,919,-710,5,-9,13,63,467,-167,1,0,34,22,560,1,53298,1
2,29609,30758,32185,51528,31892,-4233,902,-702,8,-5,18,66,466,-168,1,0,34,22,600,1,53298,1
2,29585,30756,32188,51529,31915,-4219,902,-705,18,-5,21,65,467,-165,1,0,34,22,640,1,53298,1
2,29612,30758,32192,51530,31939,-4227,903,-708,13,-1,24,57,467,-165,1,0,34,22,680,1,53298,1
2,29595,30758,32193,51531,31963,-4224,908,-718,21,-5,25,63,459,-171,1,0,34,22,720,1,53298,1
2,29600,30758,32191,51532,31987,-4221,906,-714,13,-5,18,53,469,-165,1,0,34,22,760,1,53298,1
2,29611,30761,32183,51533,32011,-4222,911,-705,5,-9,23,54,470,-166,1,0,34,22,800,1,53298,1
2,29598,30760,32190,51534,32035,-4219,898,-729,1,-3,22,60,468,-158,1,0,34,22,840,1,53298,1
2,29617,30755,32190,51535,32060,-4223,904,-736,5,-6,29,58,472,-164,1,0,34,22,880,1,53298,1
2,29608,30757,32182,51536,32084,-4226,901,-721,14,-10,17,54,464,-166,1,0,34,22,920,1,53298,1
2,29601,30759,32180,51537,32108,-4213,918,-727,10,-6,17,61,467,-169,1,0,34,22,960,1,53298,1
1,29607,30757,32190,51538,0,-4223,906,-711,8,-2,16,60,472,-168,1,0,34,23,0,0,53298,1
2,29615,30756,32189,51539,31125,-4220,914,-717,1,-18,12,51,469,-163,1,0,34,23,40,0,53298,1
2,29596,30755,32188,51540,31148,-4211,914,-707,13,-15,21,54,468,-166,1,0,34,23,80,0,53298,1
2,29581,30760,32190,51541,31172,-4229,894,-708,9,-3,27,60,472,-162,1,0,34,23,120,0,53298,1
2,29616,30758,32190,51542,31196,-4227,914,-702,5,-10,22,63,465,-165,1,0,34,23,160,0,53298,1
2,29612,30758,32186,51543,31220,-4229,911,-728,2,-9,21,49,467,-165,1,0,34,23,200,0,53298,1
2,29625,30760,32187,51544,31244,-4214,917,-715,9,-9,16,55,469,-167,1,0,34,23,240,0,53298,1
2,29620,30759,32200,51545,31267,-4221,902,-711,5,-4,11,54,474,-156,1,0,34,23,280,0,53298,1
2,29610,30758,32190,51546,31291,-4221,892,-709,5,-6,19,60,462,-176,1,0,34,23,320,0,53298,1
2,29622,30757,32193,51547,31314,-4219,901,-713,7,-13,23,65,467,-171,1,0,34,23,360,0,53298,1
2,29595,30758,32190,51548,31337,-4207,911,-691,9,-11,26,65,471,-173,1,0,34,23,400,0,53298,1
2,29590,30757,32186,51549,31361,-4216,915,-722,7,-1,15,47,469,-169,1,0,34,23,440,0,53298,1
2,29615,30756,32182,51550,31385,-4216,902,-709,10,-1,16,54,466,-170,1,0,34,23,480,0,53298,1
2,29613,30758,32191,51551,31409,-4229,904,-714,12,3,21,56,472,-168,1,0,34,23,520,0,53298,1
2,29620,30758,32190,51552,31433,-4235,900,-720,17,-6,31,59,473,-157,1,0,34,23,560,0,53298,1
2,29618,30757,32187,51553,31456,-4239,897,-707,2,-3,24,53,471,-159,1,0,34,23,600,0,53298,1
2,29624,30756,32186,51554,31479,-4218,911,-706,6,-13,21,56,470,-166,1,0,34,23,640,0,53298,1
2,29632,30760,32188,51555,31502,-4219,892,-720,9,-10,13,56,464,-168,1,0,34,23,680,0,53298,1
2,29652,30758,32197,51556,31525,-4229,900,-721,11,-7,27,59,461,-173,1,0,34,23,720,0,53298,1
2,29625,30760,32194,51557,31550,-4229,898,-720,5,-6,21,55,471,-157,1,0,34,23,760,0,53298,1
2,29636,30757,32200,51558,31574,-4221,902,-710,2,3,19,62,470,-160,1,0,34,23,800,0,53298,1
2,29611,30756,32182,51559,31599,-4224,899,-706,10,-12,25,60,466,-172,1,0,34,23,840,0,53298,1
2,29620,30759,32186,51560,31623,-4216,904,-727,2,-9,18,53,467,-165,1,0,34,23,880,0,53298,1
2,29593,30759,32197,51561,31647,-4217,910,-700,-1,-6,20,57,465,-161,1,0,34,23,920,0,53298,1
2,29625,30760,32186,51562,31672,-4221,893,-713,10,-10,27,56,460,-164,1,0,34,23,960,0,53298,1
1,29629,30758,32182,51563,0,-4215,913,-716,14,-9,19,57,463,-163,1,0,34,24,0,0,53298,1
2,29611,30758,32191,51564,30687,-4222,909,-708,0,-11,17,65,463,-167,1,0,34,24,40,0,53298,1
2,29616,30761,32204,51565,30711,-4229,896,-709,5,-11,24,60,466,-172,1,0,34,24,80,0,53298,1
2,29610,30762,32198,51566,30735,-4229,904,-721,11,-7,15,64,452,-172,1,0,34,24,120,0,53298,1
2,29622,30758,32194,51567,30759,-4232,902,-709,8,2,21,51,473,-163,1,0,34,24,160,0,53298,1
2,29572,30757,32185,51568,30784,-4220,909,-716,1,1,17,61,469,-173,1,0,34,24,200,0,53298,1
2,29572,30758,32190,51569,30808,-4220,903,-714,17,-10,19,48,468,-164,1,0,34,24,240,0,53298,1
2,29573,30757,32190,51570,30832,-4224,916,-709,23,-4,18,60,474,-162,1,0,34,24,280,0,53298,1
2,29577,30757,32187,51571,30856,-4225,920,-702,8,-6,23,57,461,-165,1,0,34,24,320,0,53298,1
2,29577,30758,32188,51572,30881,-4216,906,-725,-7,-4,22,58,468,-154,1,0,34,24,360,0,53298,1
2,29581,30758,32185,51573,30904,-4223,915,-723,4,-11,19,64,458,-166,1,0,34,24,400,0,53298,1
2,29574,30757,32174,51574,30929,-4223,897,-715,7,-11,17,56,466,-170,1,0,34,24,440,0,53298,1
2,29582,30756,32190,51575,30953,-4221,908,-711,10,0,26,59,469,-173,1,0,34,24,480,0,53298,1
2,29573,30758,32180,51576,30977,-4219,904,-721,3,-7,18,60,470,-172,1,0,34,24,520,0,53298,1
2,29569,30760,32183,51577,31001,-4212,900,-720,4,-11,20,57,461,-161,1,0,34,24,560,0,53298,1
2,29596,30761,32190,51578,31026,-4233,902,-701,19,-13,19,59,467,-175,1,0,34,24,600,0,53298,1
2,29597,30762,32187,51579,31050,-4216,906,-704,2,-4,13,57,469,-171,1,0,34,24,640,0,53298,1
2,29595,30762,32184,51580,31073,-4222,892,-717,2,-7,27,56,462,-162,1,0,34,24,680,0,53298,1
2,29575,30764,32190,51581,31097,-4218,909,-708,8,-8,23,56,468,-164,1,0,34,24,720,0,53298,1
2,29566,30764,32193,51582,31120,-4224,906,-717,22,-4,18,57,459,-157,1,0,34,24,760,0,53298,1
2,29582,30763,32186,51583,31144,-4231,894,-704,11,-3,17,58,470,-170,1,0,34,24,800,0,53298,1
2,29593,30761,32190,51584,31169,-4236,894,-725,8,7,29,52,472,-158,1,0,34,24,840,0,53298,1
2,29578,30764,32191,51585,31193,-4222,900,-710,10,2,22,62,466,-168,1,0,34,24,880,0,53298,1
2,29599,30763,32189,51586,31217,-4241,896,-711,11,-4,16,56,476,-162,1,0,34,24,920,0,53298,1
2,29568,30761,32182,51587,31241,-4222,921,-722,-1,-5,18,54,464,-162,1,0,34,24,960,0,53298,1
1,29573,30762,32190,51588,0,-4212,903,-720,19,-9,18,64,470,-172,1,0,34,25,0,1,53298,1
2,29558,30762,32191,51589,30249,-4222,902,-707,10,-12,25,63,467,-177,1,0,34,25,40,1,53298,1
2,29591,30768,32212,51590,30273,-4210,908,-708,13,-14,25,56,470,-164,1,0,34,25,80,1,53298,1
2,29572,30768,32221,51591,30296,-4224,908,-713,3,-2,33,55,459,-165,1,0,34,25,120,1,53298,1
2,29571,30766,32206,51592,30320,-4216,906,-725,6,-4,16,58,470,-174,1,0,34,25,160,1,53298,1
2,29586,30765,32216,51593,30343,-4217,892,-709,0,3,9,60,468,-166,1,0,34,25,200,1,53298,1
2,29586,30766,32208,51594,30366,-4230,898,-718,20,1,17,48,462,-156,1,0,34,25,240,1,53298,1
2,29583,30766,32208,51595,30390,-4230,898,-701,-4,5,12,59,473,-165,1,0,34,25,280,1,53298,1
2,29572,30767,32215,51596,30413,-4210,913,-707,-1,-5,23,53,471,-171,1,0,34,25,320,1,53298,1
2,29584,30769,32207,51597,30437,-4207,912,-698,15,-11,24,58,464,-170,1,0,34,25,360,1,53298,1
2,29577,30766,32209,51598,30460,-4223,908,-698,9,-4,28,60,470,-162,1,0,34,25,400,1,53298,1
2,29587,30766,32205,51599,30484,-4218,906,-706,-9,-1,27,59,473,-167,1,0,34,25,440,1,53298,1
2,29600,30768,32213,51600,30507,-4225,909,-724,20,-14,19,53,463,-169,1,0,34,25,480,1,53298,1
2,29605,30766,32212,51601,30530,-4216,911,-708,18,-12,13,61,467,-173,1,0,34,25,520,1,53298,1
2,29595,30767,32219,51602,30553,-4232,904,-727,-7,-8,13,55,473,-161,1,0,34,25,560,1,53298,1
2,29600,30770,32220,51603,30575,-4221,904,-706,7,-6,20,55,465,-171,1,0,34,25,600,1,53298,1
2,29589,30768,32216,51604,30598,-4217,905,-715,21,-3,19,46,468,-158,1,0,34,25,640,1,53298,1
2,29598,30767,32216,51605,30622,-4229,909,-717,8,10,27,58,466,-166,1,0,34,25,680,1,53298,1
2,29609,30766,32213,51606,30646,-4223,899,-716,20,10,39,58,470,-164,1,0,34,25,720,1,53298,1
2,29593,30770,32215,51607,30670,-4225,891,-712,22,-6,22,58,470,-162,1,0,34,25,760,1,53298,1
2,29613,30764,32220,51608,30694,-4222,898,-717,-2,-16,15,56,468,-160,1,0,34,25,800,1,53298,1
2,29572,30764,32212,51609,30718,-4235,902,-709,8,-13,26,58,460,-172,1,0,34,25,840,1,53298,1
2,29595,30767,32212,51610,30742,-4211,905,-717,7,-17,18,59,459,-163,1,0,34,25,880,1,53298,1
2,29601,30765,32218,51611,30767,-4211,911,-723,6,-5,18,54,464,-170,1,0,34,25,920,1,53298,1
2,29588,30766,32218,51612,30790,-4223,903,-694,11,6,27,57,463,-163,1,0,34,25,960,1,53298,1
1,29594,30768,32218,51613,0,-4215,899,-716,18,0,25,54,470,-166,1,0,34,26,0,1,53298,1
2,29604,30765,32220,51614,29812,-4217,909,-734,-1,4,13,66,456,-162,1,0,34,26,40,1,53298,1
2,29624,30769,32216,51615,29836,-4215,909,-711,10,-13,25,60,468,-172,1,0,34,26,80,1,53298,1
2,29601,30766,32217,51616,29859,-4220,913,-712,9,-5,24,56,468,-170,1,0,34,26,120,1,53298,1
2,29587,30769,32210,51617,29883,-4216,914,-717,9,-13,14,57,463,-173,1,0,34,26,160,1,53298,1
2,29600,30767,32206,51618,29907,-4223,903,-716,-1,-4,16,49,473,-161,1,0,34,26,200,1,53298,1
2,29606,30770,32229,51619,29931,-4220,911,-721,7,-13,24,56,470,-160,1,0,34,26,240,1,53298,1
2,29619,30770,32222,51620,29954,-4223,901,-708,5,-8,26,59,471,-165,1,0,34,26,280,1,53298,1
2,29599,30771,32218,51621,29977,-4217,904,-709,12,-6,15,54,456,-168,1,0,34,26,320,1,53298,1
2,29586,30769,32220,51622,30001,-4231,899,-710,8,-1,24,65,473,-173,1,0,34,26,360,1,53298,1
2,29611,30768,32219,51623,30024,-4222,906,-701,5,-5,17,51,459,-167,1,0,34,26,400,1,53298,1
2,29604,30770,32221,51624,30048,-4215,905,-732,30,0,20,59,469,-173,1,0,34,26,440,1,53298,1
2,29616,30770,32215,51625,30071,-4222,908,-714,7,-11,17,51,475,-157,1,0,34,26,480,1,53298,1
2,29588,30771,32222,51626,30093,-4232,898,-704,-4,-14,16,53,459,-171,1,0,34,26,520,1,53298,1
2,29617,30771,32221,51627,30117,-4218,897,-718,10,-6,26,47,465,-165,1,0,34,26,560,1,53298,1
2,29600,30770,32223,51628,30140,-4225,907,-708,6,-2,22,53,471,-167,1,0,34,26,600,1,53298,1
2,29604,30770,32219,51629,30162,-4242,893,-710,-11,-2,18,61,463,-171,1,0,34,26,640,1,53298,1
2,29610,30771,32216,51630,30186,-4217,908,-718,12,-7,23,46,458,-168,1,0,34,26,680,1,53298,1
2,29593,30774,32224,51631,30208,-4231,902,-722,16,-6,18,52,468,-158,1,0,34,26,720,1,53298,1
2,29578,30769,32207,51632,30231,-4224,895,-710,3,-7,21,57,461,-181,1,0,34,26,760,1,53298,1
2,29574,30767,32220,51633,30254,-4222,890,-706,3,-9,19,60,468,-176,1,0,34,26,800,1,53298,1
2,29599,30770,32219,51634,30277,-4228,903,-710,7,-6,30,60,466,-160,1,0,34,26,840,1,53298,1
2,29605,30768,32227,51635,30301,-4215,906,-712,6,-4,24,48,466,-162,1,0,34,26,880,1,53298,1
2,29607,30773,32214,51636,30324,-4236,894,-707,1,-10,31,57,467,-155,1,0,34,26,920,1,53298,1
2,29612,30770,32217,51637,30349,-4233,899,-699,3,-7,21,57,467,-157,1,0,34,26,960,1,53298,1
1,29615,30766,32218,51638,0,-4220,919,-709,12,-9,15,58,472,-168,1,0,34,27,0,1,53298,1
2,29630,30768,32217,51639,29375,-4219,899,-727,8,-3,17,43,473,-163,1,0,34,27,40,1,53298,1
2,29631,30768,32214,51640,29399,-4229,894,-718,3,0,29,52,462,-168,1,0,34,27,80,1,53298,1
2,29623,30765,32215,51641,29422,-4221,914,-701,17,-8,11,57,463,-173,1,0,34,27,120,1,53298,1
2,29636,30768,32212,51642,29447,-4220,905,-719,21,-3,17,58,470,-172,1,0,34,27,160,1,53298,1
2,29646,30766,32220,51643,29470,-4229,896,-723,15,-3,20,53,461,-167,1,0,34,27,200,1,53298,1
2,29680,30766,32218,51644,29494,-4224,899,-722,0,-7,25,54,466,-160,1,0,34,27,240,1,53298,1
2,29665,30765,32213,51645,29517,-4213,909,-700,1,-7,25,59,469,-165,1,0,34,27,280,1,53298,1
2,29666,30766,32213,51646,29541,-4232,908,-717,4,-7,28,57,469,-167,1,0,34,27,320,1,53298,1
2,29694,30768,32220,51647,29564,-4224,905,-713,4,-4,16,52,466,-168,1,0,34,27,360,1,53298,1
2,29693,30768,32217,51648,29587,-4220,908,-721,6,5,18,56,468,-172,1,0,34,27,400,1,53298,1
2,29708,30769,32221,51649,29610,-4221,902,-724,11,-1,13,55,463,-159,1,0,34,27,440,1,53298,1
2,29666,30766,32208,51650,29632,-4221,907,-709,5,-6,21,48,470,-160,1,0,34,27,480,1,53298,1
2,29664,30767,32207,51651,29655,-4215,896,-713,11,-16,20,54,464,-170,1,0,34,27,520,1,53298,1
2,29675,30764,32200,51652,29677,-4232,898,-708,7,-9,22,49,477,-163,1,0,34,27,560,1,53298,1
2,29661,30762,32204,51653,29700,-4220,898,-711,-2,-9,26,54,476,-168,1,0,34,27,600,1,53298,1
2,29677,30763,32203,51654,29722,-4228,905,-712,3,-6,22,57,469,-175,1,0,34,27,640,1,53298,1
2,29640,30766,32199,51655,29745,-4218,913,-707,8,-11,22,53,465,-167,1,0,34,27,680,1,53298,1
2,29642,30766,32205,51656,29768,-4231,902,-720,3,-7,18,64,466,-168,1,0,34,27,720,1,53298,1
2,29639,30765,32206,51657,29790,-4220,900,-717,10,-6,21,56,466,-164,1,0,34,27,760,1,53298,1
2,29643,30767,32214,51658,29813,-4232,898,-708,14,-8,27,50,466,-162,1,0,34,27,800,1,53298,1
2,29625,30765,32217,51659,29835,-4227,899,-714,10,-6,21,56,466,-168,1,0,34,27,840,1,53298,1
2,29640,30766,32210,51660,29859,-4221,906,-714,11,-4,11,51,469,-161,1,0,34,27,880,1,53298,1
2,29629,30764,32218,51661,29882,-4238,897,-702,14,-2,18,61,465,-165,1,0,34,27,920,1,53298,1
2,29628,30765,32201,51662,29905,-4226,903,-722,17,-8,29,51,471,-179,1,0,34,27,960,1,53298,1
1,29628,30763,32201,51663,0,-4227,903,-719,2,-14,23,63,461,-161,1,0,34,28,0,0,53298,1
2,29616,30764,32202,51664,28936,-4228,901,-715,-3,-4,22,63,467,-173,1,0,34,28,40,0,53298,1
2,29625,30765,32200,51665,28959,-4219,906,-710,7,-2,21,56,464,-164,1,0,34,28,80,0,53298,1
2,29622,30764,32221,51666,28980,-4229,908,-710,8,-13,25,59,463,-169,1,0,34,28,120,0,53298,1
2,29606,30761,32215,51667,29001,-4213,899,-715,5,-11,18,52,468,-168,1,0,34,28,160,0,53298,1
2,29592,30762,32214,51668,29023,-4234,905,-721,-2,-17,19,53,467,-157,1,0,34,28,200,0,53298,1
2,29605,30761,32202,51669,29045,-4218,910,-706,12,-6,24,55,469,-167,1,0,34,28,240,0,53298,1
2,29601,30765,32212,51670,29068,-4225,908,-707,20,-4,26,53,463,-169,1,0,34,28,280,0,53298,1
2,29588,30767,32205,51671,29090,-4216,919,-709,2,-4,19,60,466,-168,1,0,34,28,320,0,53298,1
2,29597,30765,32208,51672,29112,-4232,895,-711,8,-6,20,57,475,-155,1,0,34,28,360,0,53298,1
2,29584,30764,32210,51673,29134,-4225,908,-700,14,-10,18,62,468,-168,1,0,34,28,400,0,53298,1
2,29580,30765,32207,51674,29157,-4222,908,-711,2,-4,15,52,470,-166,1,0,34,28,440,0,53298,1
2,29588,30769,32212,51675,29179,-4229,909,-706,5,-6,21,57,465,-171,1,0,34,28,480,0,53298,1
2,29593,30770,32217,51676,29202,-4222,908,-699,17,-3,19,51,473,-163,1,0,34,28,520,0,53298,1
2,29601,30769,32213,51677,29225,-4210,918,-708,13,-6,24,59,469,-167,1,0,34,28,560,0,53298,1
2,29574,30757,32185,51678,29247,-4217,908,-722,3,-8,14,55,465,-173,1,0,34,28,600,0,53298,1
2,29555,30759,32183,51679,29270,-4216,903,-709,13,-1,21,51,469,-175,1,0,34,28,640,0,53298,1
2,29555,30758,32187,51680,29292,-4233,909,-718,18,-5,25,58,476,-158,1,0,34,28,680,0,53298,1
2,29558,30758,32184,51681,29314,-4217,908,-710,18,-9,24,55,465,-169,1,0,34,28,720,0,53298,1
2,29560,30758,32192,51682,29337,-4225,904,-716,-15,0,26,56,464,-164,1,0,34,28,760,0,53298,1
2,29572,30759,32183,51683,29361,-4230,911,-712,11,-11,24,61,473,-173,1,0,34,28,800,0,53298,1
2,29546,30758,32182,51684,29384,-4220,894,-718,12,-12,18,59,465,-171,1,0,34,28,840,0,53298,1
2,29549,30756,32177,51685,29407,-4217,907,-714,-3,-3,13,62,458,-160,1,0,34,28,880,0,53298,1
2,29542,30756,32186,51686,29429,-4219,900,-711,6,-10,20,62,474,-176,1,0,34,28,920,0,53298,1
2,29541,30756,32186,51687,29452,-4219,906,-724,4,-8,26,51,459,-163,1,0,34,28,960,0,53298,1
1,29545,30755,32189,51688,0,-4220,904,-702,12,-2,15,62,466,-166,1,0,34,29,0,0,53298,1
2,29535,30756,32184,51689,28500,-4219,903,-719,10,-3,25,54,470,-174,1,0,34,29,40,0,53298,1
2,29540,30756,32190,51690,28523,-4231,899,-707,17,-4,26,54,468,-162,1,0,34,29,80,0,53298,1
2,29579,30757,32184,51691,28547,-4228,904,-717,6,8,28,59,461,-165,1,0,34,29,120,0,53298,1
2,29557,30758,32177,51692,28570,-4218,907,-710,19,6,25,60,474,-160,1,0,34,29,160,0,53298,1
2,29558,30755,32184,51693,28593,-4222,909,-708,11,-6,24,56,468,-166,1,0,34,29,200,0,53298,1
2,29558,30755,32175,51694,28615,-4224,917,-703,9,2,22,64,468,-164,1,0,34,29,240,0,53298,1
2,29559,30754,32173,51695,28638,-4227,894,-706,13,1,18,65,471,-159,1,0,34,29,280,0,53298,1
2,29552,30757,32182,51696,28661,-4227,908,-718,21,13,29,54,470,-164,1,0,34,29,320,0,53298,1
2,29577,30755,32175,51697,28683,-4234,898,-719,10,9,24,59,459,-161,1,0,34,29,360,0,53298,1
2,29558,30757,32179,51698,28705,-4215,898,-710,7,6,9,54,466,-162,1,0,34,29,400,0,53298,1
2,29563,30756,32184,51699,28728,-4221,903,-712,11,-13,-1,53,471,-171,1,0,34,29,440,0,53298,1
2,29556,30758,32186,51700,28751,-4235,899,-722,15,-16,18,61,467,-163,1,0,34,29,480,0,53298,1
2,29570,30758,32190,51701,28775,-4222,898,-714,-4,-1,26,57,475,-167,1,0,34,29,520,0,53298,1
2,29579,30756,32189,51702,28798,-4230,899,-709,-3,-11,26,59,473,-169,1,0,34,29,560,0,53298,1
2,29576,30755,32183,51703,28821,-4227,899,-721,12,-16,31,53,461,-167,1,0,34,29,600,0,53298,1
2,29576,30757,32184,51704,28845,-4226,911,-695,9,-6,27,55,469,-163,1,0,34,29,640,0,53298,1
2,29561,30754,32185,51705,28869,-4222,916,-719,-5,-2,17,60,472,-164,1,0,34,29,680,0,53298,1
2,29568,30756,32181,51706,28893,-4229,899,-719,-20,-14,15,52,470,-170,1,0,34,29,720,0,53298,1
2,29555,30754,32181,51707,28917,-4221,904,-717,14,-16,9,57,473,-167,1,0,34,29,760,0,53298,1
2,29565,30753,32183,51708,28941,-4226,900,-696,17,-6,21,51,459,-153,1,0,34,29,800,0,53298,1
2,29560,30757,32183,51709,28964,-4232,890,-719,6,7,27,54,458,-164,1,0,34,29,840,0,53298,1
2,29553,30757,32189,51710,28988,-4218,909,-694,14,16,25,51,469,-155,1,0,34,29,880,0,53298,1
2,29559,30756,32175,51711,29012,-4232,902,-702,35,-3,22,42,470,-172,1,0,34,29,920,0,53298,1
2,29572,30756,32186,51712,29035,-4220,906,-718,7,-2,19,62,464,-162,1,0,34,29,960,0,53298,1
1,29558,30756,32183,51713,0,-4225,896,-710,-1,-11,22,56,462,-174,1,0,34,30,0,1,53298,1
2,29544,30754,32183,51714,28062,-4231,903,-716,10,-7,23,61,467,-167,1,0,34,30,40,1,53298,1
2,29577,30755,32183,51715,28085,-4226,899,-705,11,-5,30,58,462,-162,1,0,34,30,80,1,53298,1
2,29560,30757,32188,51716,28109,-4226,914,-715,7,5,24,52,464,-168,1,0,34,30,120,1,53298,1
2,29569,30754,32180,51717,28133,-4215,900,-706,15,-2,27,59,471,-161,1,0,34,30,160,1,53298,1
2,29564,30756,32182,51718,28156,-4232,900,-718,28,4,29,58,464,-156,1,0,34,30,200,1,53298,1
2,29547,30758,32186,51719,28179,-4231,901,-715,26,8,37,60,466,-172,1,0,34,30,240,1,53298,1
2,29548,30756,32183,51720,28202,-4221,915,-709,34,25,55,55,469,-161,1,0,34,30,280,1,53298,1
2,29553,30757,32186,51721,28225,-4213,922,-728,37,30,49,54,468,-162,1,0,34,30,320,1,53298,1
2,29547,30751,32179,51722,28247,-4221,910,-723,25,22,34,62,474,-174,1,0,34,30,360,1,53298,1
2,29547,30753,32173,51723,28271,-4232,904,-728,-14,0,21,61,467,-171,1,0,34,30,400,1,53298,1
2,29542,30752,32178,51724,28294,-4219,912,-719,-15,-34,4,52,470,-160,1,0,34,30,440,1,53298,1
2,29521,30753,32190,51725,28317,-4217,919,-706,-12,-52,-1,46,472,-164,1,0,34,30,480,1,53298,1
2,29543,30752,32189,51726,28342,-4219,904,-720,9,-23,9,55,467,-161,1,0,34,30,520,1,53298,1
2,29562,30759,32183,51727,28365,-4220,911,-716,21,15,25,51,469,-159,1,0,34,30,560,1,53298,1
2,29545,30755,32188,51728,28388,-4232,912,-707,44,40,21,58,468,-168,1,0,34,30,600,1,53298,1
2,29553,30756,32186,51729,28412,-4231,907,-720,30,33,21,57,461,-163,1,0,34,30,640,1,53298,1
2,29546,30752,32184,51730,28435,-4215,914,-727,-3,-1,14,64,472,-170,1,0,34,30,680,1,53298,1
2,29564,30756,32189,51731,28459,-4216,907,-722,-16,-43,16,50,470,-150,1,0,34,30,720,1,53298,1
2,29554,30752,32175,51732,28483,-4226,907,-701,-5,-47,14,53,467,-153,1,0,34,30,760,1,53298,1
2,29545,30753,32174,51733,28508,-4224,903,-710,0,-24,27,58,460,-158,1,0,34,30,800,1,53298,1
2,29534,30754,32173,51734,28532,-4227,906,-709,4,17,22,60,466,-166,1,0,34,30,840,1,53298,1
2,29549,30755,32184,51735,28556,-4225,916,-720,28,17,17,54,464,-162,1,0,34,30,880,1,53298,1
2,29552,30757,32173,51736,28579,-4224,900,-707,35,6,8,47,465,-163,1,0,34,30,920,1,53298,1
2,29550,30754,32185,51737,28603,-4232,909,-706,13,-5,7,54,462,-170,1,0,34,30,960,1,53298,1
1,29543,30755,32175,51738,0,-4229,908,-716,-1,-11,21,51,473,-167,1,0,34,31,0,0,53298,1
2,29546,30757,32185,51739,27624,-4225,904,-713,-4,-19,24,55,469,-171,1,0,34,31,40,0,53298,1
2,29560,30755,32173,51740,27648,-4220,921,-726,-4,-27,28,55,469,-165,1,0,34,31,80,0,53298,1
2,29557,30759,32189,51741,27671,-4226,912,-712,0,-20,23,57,473,-163,1,0,34,31,120,0,53298,1
2,29552,30755,32176,51742,27694,-4224,906,-720,11,-13,22,58,468,-170,1,0,34,31,160,0,53298,1
2,29542,30754,32188,51743,27717,-4238,906,-713,11,-4,14,57,471,-171,1,0,34,31,200,0,53298,1
2,29577,30755,32189,51744,27740,-4224,920,-716,17,5,12,56,472,-166,1,0,34,31,240,0,53298,1
2,29552,30756,32182,51745,27764,-4231,900,-719,14,14,21,60,470,-172,1,0,34,31,280,0,53298,1
2,29559,30756,32190,51746,27787,-4215,908,-721,0,-9,21,57,461,-165,1,0,34,31,320,0,53298,1
2,29567,30756,32185,51747,27811,-4224,904,-707,-6,-17,21,57,469,-173,1,0,34,31,360,0,53298,1
2,29564,30756,32179,51748,27834,-4209,918,-702,0,-31,16,56,472,-162,1,0,34,31,400,0,53298,1
2,29560,30755,32183,51749,27857,-4215,916,-713,-3,-20,26,59,469,-167,1,0,34,31,440,0,53298,1
2,29552,30758,32183,51750,27882,-4224,906,-707,7,-5,23,57,471,-169,1,0,34,31,480,0,53298,1
2,29567,30756,32189,51751,27906,-4221,906,-710,9,11,30,64,468,-172,1,0,34,31,520,0,53298,1
2,29553,30756,32184,51752,27930,-4201,911,-712,25,7,16,57,463,-169,1,0,34,31,560,0,53298,1
2,29546,30758,32177,51753,27953,-4240,895,-717,43,8,17,52,468,-168,1,0,34,31,600,0,53298,1
2,29537,30755,32183,51754,27978,-4228,903,-721,21,9,15,59,467,-167,1,0,34,31,640,0,53298,1
2,29536,30758,32184,51755,28001,-4233,899,-715,1,-9,19,62,472,-166,1,0,34,31,680,0,53298,1
2,29543,30758,32185,51756,28024,-4221,899,-715,-1,-18,25,60,476,-172,1,0,34,31,720,0,53298,1
2,29551,30759,32180,51757,28047,-4229,909,-700,0,-18,23,53,471,-165,1,0,34,31,760,0,53298,1
2,29545,30758,32181,51758,28071,-4224,911,-700,3,-8,23,58,474,-160,1,0,34,31,800,0,53298,1
2,29555,30754,32186,51759,28094,-4230,906,-709,11,-5,30,53,469,-171,1,0,34,31,840,0,53298,1
2,29542,30757,32181,51760,28117,-4229,901,-717,8,3,26,63,471,-159,1,0,34,31,880,0,53298,1
2,29559,30757,32183,51761,28139,-4224,913,-719,15,-11,22,56,468,-170,1,0,34,31,920,0,53298,1
2,29540,30759,32175,51762,28162,-4226,908,-708,-1,-18,18,58,478,-168,1,0,34,31,960,0,53298,1
1,29548,30759,32191,51763,0,-4229,890,-709,-3,-23,9,64,474,-172,1,0,34,32,0,1,53298,1
2,29546,30757,32187,51764,27188,-4233,908,-733,10,-17,20,64,474,-170,1,0,34,32,40,1,53298,1
2,29549,30759,32187,51765,27211,-4221,904,-705,7,-2,19,55,465,-159,1,0,34,32,80,1,53298,1
2,29522,30757,32195,51766,27235,-4225,908,-711,13,7,23,61,461,-171,1,0,34,32,120,1,53298,1
2,29540,30760,32196,51767,27258,-4226,899,-725,13,0,26,56,472,-172,1,0,34,32,160,1,53298,1
2,29536,30758,32198,51768,27281,-4222,909,-711,10,-13,14,58,464,-172,1,0,34,32,200,1,53298,1
2,29549,30758,32197,51769,27305,-4231,901,-708,8,-16,24,54,464,-164,1,0,34,32,240,1,53298,1
2,29540,30759,32192,51770,27328,-4204,921,-718,10,-12,9,62,468,-174,1,0,34,32,280,1,53298,1
2,29544,30759,32203,51771,27353,-4231,905,-704,17,-4,8,59,467,-157,1,0,34,32,320,1,53298,1
2,29558,30755,32193,51772,27376,-4222,909,-703,12,-9,21,47,473,-153,1,0,34,32,360,1,53298,1
2,29540,30758,32194,51773,27399,-4226,898,-710,14,-7,27,65,469,-157,1,0,34,32,400,1,53298,1
2,29545,30758,32194,51774,27423,-4244,900,-710,5,0,27,57,473,-165,1,0,34,32,440,1,53298,1
2,29538,30759,32192,51775,27447,-4230,898,-739,7,-5,25,57,469,-163,1,0,34,32,480,1,53298,1
2,29534,30757,32192,51776,27471,-4234,907,-716,-1,-10,25,55,463,-167,1,0,34,32,520,1,53298,1
2,29528,30758,32186,51777,27494,-4221,919,-712,2,-22,25,63,469,-163,1,0,34,32,560,1,53298,1
2,29517,30760,32187,51778,27518,-4221,909,-713,-6,-13,18,46,472,-156,1,0,34,32,600,1,53298,1
2,29523,30755,32194,51779,27541,-4221,911,-700,13,-13,15,58,470,-168,1,0,34,32,640,1,53298,1
2,29522,30758,32193,51780,27565,-4223,898,-704,12,-6,20,60,462,-164,1,0,34,32,680,1,53298,1
2,29537,30762,32202,51781,27589,-4222,903,-716,10,-2,19,62,474,-162,1,0,34,32,720,1,53298,1
2,29540,30762,32185,51782,27613,-4215,897,-705,-2,0,18,54,472,-162,1,0,34,32,760,1,53298,1
2,29541,30760,32198,51783,27637,-4223,922,-701,6,-10,17,54,466,-180,1,0,34,32,800,1,53298,1
2,29531,30755,32197,51784,27661,-4219,905,-707,6,-20,25,52,460,-168,1,0,34,32,840,1,53298,1
2,29536,30761,32199,51785,27686,-4228,916,-718,9,-15,27,54,460,-166,1,0,34,32,880,1,53298,1
2,29548,30759,32191,51786,27710,-4219,910,-705,0,-10,14,53,467,-169,1,0,34,32,920,1,53298,1
2,29548,30759,32196,51787,27734,-4225,908,-708,18,0,16,65,461,-169,1,0,34,32,960,1,53298,1
1,29539,30757,32191,51788,0,-4228,905,-719,14,0,19,51,461,-155,1,0,34,33,0,0,53298,1
2,29532,30759,32190,51789,26751,-4218,903,-721,15,-2,14,62,470,-164,1,0,34,33,40,0,53298,1
2,29530,30758,32186,51790,26775,-4217,906,-716,11,-9,20,58,462,-166,1,0,34,33,80,0,53298,1
2,29531,30755,32190,51791,26798,-4232,895,-709,12,-10,33,57,473,-165,1,0,34,33,120,0,53298,1
2,29528,30758,32201,51792,26822,-4225,905,-717,-4,-16,29,50,468,-162,1,0,34,33,160,0,53298,1
2,29537,30760,32193,51793,26845,-4222,911,-721,5,-12,21,67,457,-161,1,0,34,33,200,0,53298,1
2,29529,30756,32197,51794,26868,-4218,901,-716,10,-7,17,63,469,-165,1,0,34,33,240,0,53298,1
2,29517,30761,32196,51795,26891,-4224,901,-723,7,-6,20,57,471,-163,1,0,34,33,280,0,53298,1
2,29526,30762,32194,51796,26913,-4219,901,-714,9,-2,15,56,468,-160,1,0,34,33,320,0,53298,1
2,29529,30761,32203,51797,26936,-4226,903,-720,7,-6,15,60,472,-158,1,0,34,33,360,0,53298,1
2,29542,30759,32194,51798,26959,-4215,914,-716,20,-16,28,55,463,-165,1,0,34,33,400,0,53298,1
2,29516,30758,32196,51799,26981,-4221,905,-727,6,-8,23,52,462,-174,1,0,34,33,440,0,53298,1
2,29515,30758,32197,51800,27004,-4225,910,-716,7,0,26,48,474,-152,1,0,34,33,480,0,53298,1
2,29509,30760,32200,51801,27026,-4228,908,-726,6,-1,27,58,466,-168,1,0,34,33,520,0,53298,1
2,29515,30759,32194,51802,27049,-4228,903,-716,10,-14,18,54,466,-162,1,0,34,33,560,0,53298,1
2,29505,30759,32198,51803,27071,-4221,913,-707,4,0,12,64,472,-166,1,0,34,33,600,0,53298,1
2,29510,30759,32206,51804,27094,-4217,912,-717,3,-15,7,51,465,-161,1,0,34,33,640,0,53298,1
2,29480,30756,32191,51805,27117,-4224,899,-709,-12,-14,9,55,473,-167,1,0,34,33,680,0,53298,1
