,sensorStatus,cap1,cap2,cap3,counter,microseconds_since_last_tick,accX,accY,accZ,gyroX,gyroY,gyroZ,magnetX,magnetY,magnetZ,day,hour,min,sec,msec,sync,battery_fuel,crc_good
0,2,31983,30908,32619,41187,7374,-3831,-841,-2309,-14,-7,8,178,454,-298,1,0,27,28,960,1,53298,1
1,1,31987,30914,32624,41188,6794,-3816,-832,-2317,-17,5,14,182,448,-304,1,0,27,29,0,0,53298,1
2,2,31986,30918,32619,41189,6798,-3834,-832,-2298,-29,-7,51,185,453,-309,1,0,27,29,40,0,53298,1
3,2,31987,30909,32621,41190,6802,-3828,-834,-2313,-36,-28,50,186,454,-304,1,0,27,29,80,0,53298,1
4,2,31989,30912,32625,41191,6805,-3808,-819,-2308,-20,-6,11,193,453,-311,1,0,27,29,120,0,53298,1
5,2,31986,30902,32621,41192,6809,-3826,-839,-2307,37,11,-36,188,452,-308,1,0,27,29,160,0,53298,1
6,2,31988,30905,32620,41193,6813,-3835,-850,-2318,39,-6,-33,182,460,-306,1,0,27,29,200,0,53298,1
7,2,31984,30906,32618,41194,6817,-3821,-848,-2320,18,-28,-14,183,447,-299,1,0,27,29,240,0,53298,1
8,2,31987,30907,32624,41195,6820,-3826,-840,-2309,1,-17,12,193,451,-311,1,0,27,29,280,0,53298,1
9,2,31986,30901,32623,41196,6824,-3828,-839,-2318,22,1,14,189,451,-311,1,0,27,29,320,0,53298,1
10,2,31989,30902,32623,41197,6828,-3826,-843,-2315,44,6,-3,188,452,-308,1,0,27,29,360,0,53298,1
11,2,31996,30916,32628,41198,6831,-3819,-837,-2327,14,8,-3,197,451,-309,1,0,27,29,400,0,53298,1
12,2,31995,30913,32629,41199,6834,-3824,-841,-2303,19,-24,9,183,451,-313,1,0,27,29,440,0,53298,1
13,2,31992,30912,32627,41200,6837,-3819,-834,-2328,9,-14,6,187,451,-311,1,0,27,29,480,0,53298,1
14,2,31992,30904,32628,41201,6842,-3824,-839,-2311,-3,-19,0,192,450,-312,1,0,27,29,520,0,53298,1
15,2,31992,30907,32629,41202,6845,-3816,-847,-2305,16,-13,7,185,451,-311,1,0,27,29,560,0,53298,1
16,2,31991,30903,32630,41203,6848,-3821,-834,-2308,-5,-10,10,186,450,-312,1,0,27,29,600,0,53298,1
17,2,31999,30896,32632,41204,6851,-3821,-848,-2308,-23,-12,10,182,452,-310,1,0,27,29,640,0,53298,1
18,2,31994,30904,32634,41205,6854,-3836,-845,-2320,-10,-12,15,188,444,-314,1,0,27,29,680,0,53298,1
19,2,32000,30908,32637,41206,6858,-3825,-840,-2315,-5,-20,17,193,447,-319,1,0,27,29,720,0,53298,1
20,2,31996,30899,32632,41207,6861,-3826,-845,-2315,-10,-18,10,192,450,-308,1,0,27,29,760,0,53298,1
21,2,31997,30909,32630,41208,6864,-3828,-851,-2329,-16,-17,22,174,444,-302,1,0,27,29,800,0,53298,1
22,2,31993,30906,32632,41209,6868,-3826,-840,-2297,-28,-22,26,182,450,-306,1,0,27,29,840,0,53298,1
23,2,31998,30901,32623,41210,6872,-3803,-828,-2306,-16,-7,7,174,444,-294,1,0,27,29,880,0,53298,1
24,0,31998,30901,32623,41210,6872,-3803,-828,-2306,-16,-7,7,174,444,-294,1,0,27,29,880,0,53298,1
25,2,31989,30907,32624,41212,6874,-3809,-834,-2315,3,-4,7,179,453,-307,1,0,27,29,960,0,53298,1
26,1,31981,30907,32618,41213,6288,-3824,-849,-2321,-2,-14,11,184,450,-304,1,0,27,30,0,1,53298,1
27,2,31983,30898,32622,41214,6291,-3817,-845,-2307,6,-18,7,186,450,-302,1,0,27,30,40,1,53298,1
28,2,31984,30900,32619,41215,6296,-3820,-843,-2311,22,-16,11,189,451,-311,1,0,27,30,80,1,53298,1
29,2,31985,30909,32619,41216,6300,-3824,-843,-2307,18,4,-10,183,449,-313,1,0,27,30,120,1,53298,1
30,2,31983,30906,32617,41217,6303,-3823,-843,-2311,8,3,11,183,453,-307,1,0,27,30,160,1,53298,1
31,2,31981,30904,32614,41218,6306,-3820,-843,-2314,-9,-9,10,188,456,-306,1,0,27,30,200,1,53298,1
32,2,31986,30911,32620,41219,6310,-3828,-831,-2308,-21,-23,15,185,447,-309,1,0,27,30,240,1,53298,1
33,2,31983,30917,32618,41220,6313,-3825,-850,-2331,-10,-8,10,190,452,-312,1,0,27,30,280,1,53298,1
34,2,31989,30911,32623,41221,6316,-3819,-850,-2305,18,-7,-6,183,455,-307,1,0,27,30,320,1,53298,1
35,2,31993,30911,32628,41222,6319,-3809,-838,-2308,20,5,-3,184,448,-302,1,0,27,30,360,1,53298,1
36,2,31988,30921,32625,41223,6323,-3828,-850,-2321,16,-5,13,190,454,-312,1,0,27,30,400,1,53298,1
37,2,31992,30916,32623,41224,6326,-3814,-839,-2314,11,-9,10,188,450,-312,1,0,27,30,440,1,53298,1
38,2,31995,30913,32627,41225,6330,-3829,-844,-2308,6,-15,4,184,446,-304,1,0,27,30,480,1,53298,1
39,2,31990,30915,32625,41226,6333,-3801,-821,-2315,-1,-18,11,189,451,-311,1,0,27,30,520,1,53298,1
40,2,31988,30910,32626,41227,6336,-3803,-833,-2314,11,-12,9,193,459,-315,1,0,27,30,560,1,53298,1
41,2,31990,30918,32623,41228,6339,-3822,-842,-2321,12,-6,0,186,448,-312,1,0,27,30,600,1,53298,1
42,2,31995,30922,32621,41229,6342,-3805,-839,-2322,-9,-14,15,186,458,-316,1,0,27,30,640,1,53298,1
43,2,31989,30917,32622,41230,6344,-3818,-833,-2320,4,-1,1,186,452,-314,1,0,27,30,680,1,53298,1
44,2,31988,30913,32622,41231,6346,-3831,-851,-2311,16,-13,-3,192,450,-312,1,0,27,30,720,1,53298,1
45,2,31995,30925,32630,41232,6348,-3832,-830,-2302,21,-16,-2,194,446,-306,1,0,27,30,760,1,53298,1
46,2,31990,30925,32630,41233,6351,-3803,-831,-2303,132,38,-43,180,450,-306,1,0,27,30,800,1,53298,1
47,2,32002,30935,32641,41234,6354,-3824,-842,-2309,180,115,-60,187,451,-319,1,0,27,30,840,1,53298,1
48,2,31998,30927,32639,41235,6357,-3832,-850,-2310,130,103,-18,186,454,-314,1,0,27,30,880,1,53298,1
49,0,31998,30927,32639,41235,6357,-3832,-850,-2310,130,103,-18,186,454,-314,1,0,27,30,880,1,53298,1
50,2,32011,30945,32670,41289,4774,-3867,-1006,-2253,-693,-475,-97,193,453,-319,1,0,27,33,40,0,53298,1
51,2,32007,30927,32676,41290,4776,-3880,-823,-2250,-802,-461,483,190,450,-308,1,0,27,33,80,0,53298,1
52,2,31998,30903,32672,41291,4779,-3817,-742,-2322,-813,-304,485,186,452,-314,1,0,27,33,120,0,53298,1
53,2,32006,30897,32672,41292,4782,-3780,-811,-2328,-655,-140,146,190,446,-314,1,0,27,33,160,0,53298,1
54,2,31999,30885,32669,41293,4784,-3826,-860,-2312,-329,-16,2,190,450,-316,1,0,27,33,200,0,53298,1
55,2,32003,30893,32670,41294,4786,-3846,-834,-2314,-21,-81,23,185,453,-309,1,0,27,33,240,0,53298,1
56,2,31990,30901,32665,41295,4790,-3792,-868,-2295,58,-117,-5,190,452,-304,1,0,27,33,280,0,53298,1
57,2,31989,30900,32665,41296,4793,-3787,-827,-2313,-23,-10,-34,189,449,-309,1,0,27,33,320,0,53298,1
58,2,31994,30907,32663,41297,4795,-3814,-804,-2318,330,84,-122,191,449,-313,1,0,27,33,360,0,53298,1
59,2,31995,30899,32657,41298,4797,-3829,-884,-2296,433,138,-222,181,449,-321,1,0,27,33,400,0,53298,1
60,2,31998,30903,32656,41299,4800,-3842,-899,-2334,217,142,-144,186,444,-316,1,0,27,33,440,0,53298,1
61,2,31998,30897,32654,41300,4803,-3861,-834,-2324,210,-60,-55,194,448,-314,1,0,27,33,480,0,53298,1
62,2,32000,30906,32647,41301,4806,-3801,-889,-2298,26,-201,-18,190,452,-314,1,0,27,33,520,0,53298,1
63,2,31991,30910,32644,41302,4808,-3809,-882,-2328,-465,-151,36,187,449,-311,1,0,27,33,560,0,53298,1
64,2,31992,30899,32640,41303,4812,-3831,-899,-2308,-550,-226,125,180,452,-302,1,0,27,33,600,0,53298,1
65,2,31986,30901,32631,41304,4814,-3828,-851,-2258,-350,-222,297,187,451,-301,1,0,27,33,640,0,53298,1
66,2,31985,30885,32630,41305,4817,-3764,-843,-2326,-375,-3,301,195,451,-313,1,0,27,33,680,0,53298,1
67,2,31983,30882,32626,41306,4819,-3736,-857,-2347,-366,230,161,190,456,-312,1,0,27,33,720,0,53298,1
68,2,31977,30878,32629,41307,4822,-3818,-873,-2377,34,286,4,186,450,-314,1,0,27,33,760,0,53298,1
69,2,31976,30889,32635,41308,4824,-3798,-865,-2321,729,242,-122,187,447,-309,1,0,27,33,800,0,53298,1
70,2,31976,30909,32643,41309,4827,-3796,-781,-2378,1146,302,-467,182,450,-320,1,0,27,33,840,0,53298,1
71,2,31986,30915,32660,41310,4830,-3777,-949,-2384,960,216,-774,187,455,-317,1,0,27,33,880,0,53298,1
72,2,31989,30920,32682,41311,4833,-3799,-1006,-2318,348,117,-559,187,455,-313,1,0,27,33,920,0,53298,1
73,2,31981,30858,32689,41312,4833,-3838,-990,-2351,201,4,-66,194,448,-312,1,0,27,33,960,0,53298,1
74,1,31979,30808,32691,41313,4265,-3850,-823,-2292,176,-223,318,192,454,-320,1,0,27,34,0,1,53298,1
75,2,31982,30867,32689,41314,4269,-3842,-801,-2230,239,-155,253,178,458,-304,1,0,27,34,40,1,53298,1
76,2,31982,30870,32686,41315,4271,-3834,-867,-2255,179,215,-43,184,448,-308,1,0,27,34,80,1,53298,1
77,2,31990,30850,32689,41316,4274,-3813,-907,-2287,208,454,-79,195,449,-305,1,0,27,34,120,1,53298,1
78,2,31988,30870,32671,41317,4276,-3831,-936,-2296,731,776,137,188,456,-312,1,0,27,34,160,1,53298,1
79,2,31996,30885,32664,41318,4279,-3805,-971,-2349,874,1052,268,193,455,-315,1,0,27,34,200,1,53298,1
80,2,32008,30888,32669,41319,4282,-3741,-930,-2426,637,962,340,199,447,-321,1,0,27,34,240,1,53298,1
81,2,32004,30885,32652,41320,4285,-3698,-918,-2485,620,728,203,189,453,-321,1,0,27,34,280,1,53298,1
82,2,32015,30893,32660,41321,4287,-3667,-981,-2513,757,425,-31,193,449,-321,1,0,27,34,320,1,53298,1
83,2,32010,30898,32665,41322,4291,-3705,-964,-2463,774,76,-246,188,448,-320,1,0,27,34,360,1,53298,1
84,2,32017,30897,32672,41323,4294,-3753,-961,-2391,764,-127,-355,186,446,-318,1,0,27,34,400,1,53298,1
85,2,32014,30888,32673,41324,4297,-3767,-980,-2390,459,-246,-379,193,449,-323,1,0,27,34,440,1,53298,1
86,2,32020,30879,32680,41325,4299,-3781,-1040,-2368,-241,-341,-241,187,443,-325,1,0,27,34,480,1,53298,1
87,2,32010,30869,32679,41326,4301,-3755,-1016,-2372,-781,-446,43,188,456,-314,1,0,27,34,520,1,53298,1
88,2,32012,30870,32679,41327,4304,-3767,-964,-2379,-786,-510,229,191,443,-313,1,0,27,34,560,1,53298,1
89,2,32001,30839,32680,41328,4306,-3756,-953,-2384,-894,-573,167,191,453,-311,1,0,27,34,600,1,53298,1
90,2,32003,30812,32685,41329,4309,-3778,-940,-2362,-1062,-596,39,189,453,-309,1,0,27,34,640,1,53298,1
91,2,32002,30834,32690,41330,4312,-3795,-958,-2275,-812,-425,67,187,451,-309,1,0,27,34,680,1,53298,1
92,2,32015,30841,32696,41331,4315,-3811,-912,-2300,-151,2,138,184,446,-304,1,0,27,34,720,1,53298,1
93,2,32021,30831,32692,41332,4317,-3787,-900,-2364,261,290,-28,194,456,-316,1,0,27,34,760,1,53298,1
94,2,32022,30851,32691,41333,4319,-3759,-943,-2372,467,381,-293,183,451,-315,1,0,27,34,800,1,53298,1
95,2,32016,30858,32694,41334,4322,-3768,-981,-2399,652,358,-354,184,446,-318,1,0,27,34,840,1,53298,1
96,2,32014,30865,32693,41335,4324,-3765,-964,-2368,696,213,-289,191,453,-315,1,0,27,34,880,1,53298,1
97,2,32019,30885,32690,41336,4327,-3748,-995,-2392,342,53,-167,185,449,-315,1,0,27,34,920,1,53298,1
98,2,32010,30880,32690,41337,4327,-3765,-992,-2385,-117,-75,-49,197,447,-323,1,0,27,34,960,1,53298,1
99,1,32010,30870,32690,41338,3759,-3763,-985,-2361,-222,-140,25,200,440,-314,1,0,27,35,0,0,53298,1
100,2,32021,30868,32696,41339,3762,-3743,-920,-2344,87,-37,-100,192,446,-314,1,0,27,35,40,0,53298,1
101,2,32016,30852,32693,41340,3765,-3834,-993,-2350,152,151,-537,195,451,-317,1,0,27,35,80,0,53298,1
102,2,32020,30847,32694,41341,3768,-3768,-1011,-2400,-230,248,-390,197,449,-311,1,0,27,35,120,0,53298,1
103,2,32007,30854,32689,41342,3771,-3681,-1137,-2467,-57,-39,-92,188,448,-306,1,0,27,35,160,0,53298,1
104,2,32010,30857,32689,41343,3773,-3759,-967,-2360,663,-274,382,193,453,-309,1,0,27,35,200,0,53298,1
105,2,32010,30879,32689,41344,3777,-3830,-959,-2300,42,-164,391,195,449,-317,1,0,27,35,240,0,53298,1
106,2,32010,30869,32694,41345,3780,-3771,-923,-2393,-216,56,211,190,456,-320,1,0,27,35,280,0,53298,1
107,2,32005,30849,32686,41346,3783,-3775,-1032,-2382,-130,26,-76,193,445,-317,1,0,27,35,320,0,53298,1
108,2,32003,30825,32685,41347,3787,-3762,-969,-2374,186,34,-104,195,455,-325,1,0,27,35,360,0,53298,1
109,2,32008,30816,32681,41348,3790,-3766,-973,-2359,189,75,-129,194,450,-312,1,0,27,35,400,0,53298,1
110,2,32002,30808,32678,41349,3793,-3752,-1036,-2409,-334,85,-76,193,449,-317,1,0,27,35,440,0,53298,1
111,2,32002,30830,32680,41350,3796,-3750,-1021,-2393,-198,-22,107,192,460,-322,1,0,27,35,480,0,53298,1
112,2,31999,30821,32673,41351,3798,-3761,-968,-2364,248,-41,93,184,454,-318,1,0,27,35,520,0,53298,1
113,2,31999,30821,32677,41352,3800,-3762,-958,-2358,377,54,-91,196,448,-314,1,0,27,35,560,0,53298,1
114,2,31989,30812,32665,41353,3802,-3766,-1025,-2397,309,156,-272,194,454,-310,1,0,27,35,600,0,53298,1
115,2,31986,30791,32664,41354,3805,-3760,-1038,-2380,54,35,-176,197,453,-321,1,0,27,35,640,0,53298,1
116,2,31980,30747,32659,41355,3807,-3767,-1034,-2391,-211,-122,46,192,452,-318,1,0,27,35,680,0,53298,1
117,2,31974,30783,32659,41356,3809,-3771,-988,-2384,-234,-201,199,193,447,-315,1,0,27,35,720,0,53298,1
118,2,31977,30788,32660,41357,3811,-3786,-963,-2368,-121,-121,95,197,455,-315,1,0,27,35,760,0,53298,1
119,2,31982,30780,32655,41358,3814,-3772,-983,-2361,99,53,-71,190,452,-310,1,0,27,35,800,0,53298,1
120,2,31987,30828,32660,41359,3816,-3759,-1036,-2389,197,155,-142,189,453,-309,1,0,27,35,840,0,53298,1
121,2,31989,30801,32668,41360,3820,-3751,-1036,-2393,163,62,-6,191,453,-313,1,0,27,35,880,0,53298,1
122,2,31980,30805,32665,41361,3822,-3777,-1013,-2386,90,-43,129,195,459,-317,1,0,27,35,920,0,53298,1
123,2,31982,30786,32662,41362,3822,-3773,-987,-2374,-74,-85,115,198,450,-316,1,0,27,35,960,0,53298,1
124,1,31985,30795,32663,41363,3253,-3770,-994,-2365,-42,-10,213,192,448,-326,1,0,27,36,0,1,53298,1
125,2,31990,30789,32670,41364,3256,-3756,-1018,-2396,52,37,-36,202,446,-326,1,0,27,36,40,1,53298,1
126,2,31990,30786,32670,41365,3259,-3752,-1019,-2378,127,26,-247,198,460,-316,1,0,27,36,80,1,53298,1
127,2,31985,30786,32670,41366,3263,-3777,-1010,-2379,108,18,9,199,457,-311,1,0,27,36,120,1,53298,1
128,2,31987,30784,32667,41367,3265,-3761,-1008,-2382,47,-10,10,189,459,-317,1,0,27,36,160,1,53298,1
129,2,31998,30773,32674,41368,3268,-3760,-1006,-2375,-48,-31,10,198,448,-314,1,0,27,36,200,1,53298,1
130,2,31998,30748,32673,41369,3272,-3771,-1019,-2396,-13,-28,-4,185,451,-313,1,0,27,36,240,1,53298,1
131,2,31996,30759,32677,41370,3276,-3763,-998,-2383,21,-22,3,193,449,-317,1,0,27,36,280,1,53298,1
132,2,31999,30730,32675,41371,3279,-3760,-1004,-2390,5,-3,-2,189,455,-331,1,0,27,36,320,1,53298,1
133,2,31998,30732,32680,41372,3282,-3761,-1014,-2381,-11,-17,-7,198,450,-324,1,0,27,36,360,1,53298,1
134,2,31996,30711,32675,41373,3285,-3760,-1011,-2383,-6,-31,14,195,443,-315,1,0,27,36,400,1,53298,1
135,2,32000,30727,32671,41374,3288,-3769,-1012,-2380,0,-19,1,194,456,-322,1,0,27,36,440,1,53298,1
136,2,31994,30711,32674,41375,3291,-3767,-1006,-2382,-1,-18,-12,192,448,-316,1,0,27,36,480,1,53298,1
137,2,31993,30722,32675,41376,3294,-3757,-1009,-2378,-7,-22,-22,179,455,-313,1,0,27,36,520,1,53298,1
138,2,31991,30735,32669,41377,3297,-3767,-1009,-2386,-7,-18,7,196,452,-316,1,0,27,36,560,1,53298,1
139,2,31994,30706,32676,41378,3300,-3758,-1009,-2373,-14,-27,13,192,444,-324,1,0,27,36,600,1,53298,1
140,2,31990,30725,32672,41379,3304,-3755,-1006,-2383,-25,-35,3,194,452,-318,1,0,27,36,640,1,53298,1
141,2,31976,30714,32667,41380,3307,-3767,-1012,-2372,-22,-23,6,199,451,-317,1,0,27,36,680,1,53298,1
142,2,31976,30685,32654,41381,3310,-3772,-1022,-2379,-4,-10,2,196,458,-318,1,0,27,36,720,1,53298,1
143,2,31983,30705,32661,41382,3314,-3764,-1002,-2379,-13,-31,15,201,451,-327,1,0,27,36,760,1,53298,1
144,2,31984,30738,32666,41383,3317,-3767,-1011,-2396,-20,-26,14,194,454,-312,1,0,27,36,800,1,53298,1
145,2,31981,30714,32659,41384,3319,-3763,-1007,-2378,-13,-28,12,195,451,-321,1,0,27,36,840,1,53298,1
146,2,31976,30723,32661,41385,3322,-3762,-999,-2384,-10,-13,7,184,448,-312,1,0,27,36,880,1,53298,1
147,2,31983,30732,32658,41386,3325,-3753,-1004,-2400,3,-12,4,199,451,-317,1,0,27,36,920,1,53298,1
148,2,31985,30759,32665,41387,3325,-3751,-1003,-2378,5,-17,0,199,449,-317,1,0,27,36,960,1,53298,1
149,1,31990,30791,32670,41388,2749,-3763,-1009,-2379,9,-4,22,195,449,-311,1,0,27,37,0,0,53298,1
150,2,31982,30790,32665,41389,2752,-3760,-995,-2389,1,-25,6,194,450,-326,1,0,27,37,40,0,53298,1
151,2,31984,30783,32662,41390,2755,-3754,-1015,-2368,-10,-246,1,203,451,-313,1,0,27,37,80,0,53298,1
152,2,31996,30805,32674,41391,2758,-3768,-1007,-2400,7,0,2,202,456,-322,1,0,27,37,120,0,53298,1
153,2,31993,30809,32673,41392,2760,-3773,-1009,-2403,8,225,-14,196,452,-322,1,0,27,37,160,0,53298,1
154,2,32003,30832,32683,41393,2763,-3759,-1024,-2386,19,-25,-6,193,451,-315,1,0,27,37,200,0,53298,1
155,2,31998,30863,32680,41394,2766,-3758,-1012,-2383,3,-44,10,196,452,-316,1,0,27,37,240,0,53298,1
156,2,32001,30875,32682,41395,2769,-3761,-1007,-2363,-9,-255,21,195,451,-319,1,0,27,37,280,0,53298,1
157,2,32002,30879,32681,41396,2772,-3767,-1018,-2378,-11,34,9,199,453,-319,1,0,27,37,320,0,53298,1
158,2,32003,30891,32682,41397,2775,-3769,-1015,-2391,-25,252,1,192,456,-308,1,0,27,37,360,0,53298,1
159,2,31995,30903,32677,41398,2779,-3743,-1025,-2395,-10,-34,23,189,455,-317,1,0,27,37,400,0,53298,1
160,2,32005,30925,32681,41399,2783,-3756,-1016,-2389,2,-68,41,197,451,-315,1,0,27,37,440,0,53298,1
161,2,32007,30941,32683,41400,2787,-3764,-1011,-2364,-17,-28,30,187,451,-309,1,0,27,37,480,0,53298,1
162,2,31996,30956,32681,41401,2789,-3770,-1011,-2372,-5,-28,-1,196,450,-314,1,0,27,37,520,0,53298,1
163,2,31999,30955,32682,41402,2792,-3759,-1011,-2381,-11,-15,-15,190,444,-322,1,0,27,37,560,0,53298,1
164,2,31996,30951,32672,41403,2795,-3763,-1013,-2386,21,-1,14,191,447,-323,1,0,27,37,600,0,53298,1
165,2,31996,30963,32675,41404,2798,-3766,-1024,-2386,16,10,6,186,446,-322,1,0,27,37,640,0,53298,1
166,2,31993,30960,32670,41405,2800,-3759,-1005,-2364,-40,-7,7,192,448,-308,1,0,27,37,680,0,53298,1
167,2,31998,30968,32673,41406,2803,-3774,-1020,-2401,-30,-28,23,195,449,-307,1,0,27,37,720,0,53298,1
168,2,31996,30968,32673,41407,2805,-3760,-1007,-2377,13,-43,19,196,462,-306,1,0,27,37,760,0,53298,1
169,2,31996,30966,32671,41408,2807,-3766,-1026,-2357,23,18,34,194,452,-318,1,0,27,37,800,0,53298,1
170,2,31990,30963,32673,41409,2809,-3759,-1016,-2416,-36,7,26,196,452,-318,1,0,27,37,840,0,53298,1
171,2,31981,30962,32664,41410,2811,-3753,-1005,-2392,-96,-135,2,194,458,-308,1,0,27,37,880,0,53298,1
172,2,31980,30956,32658,41411,2813,-3777,-1002,-2373,-103,-108,-16,188,448,-308,1,0,27,37,920,0,53298,1
173,2,31980,30953,32660,41412,2813,-3779,-1009,-2360,-4,-19,-47,184,448,-312,1,0,27,37,960,0,53298,1
174,1,31982,30952,32665,41413,2243,-3761,-1027,-2378,239,128,-13,191,441,-321,1,0,27,38,0,1,53298,1
175,2,31987,30947,32670,41414,2246,-3760,-1023,-2383,220,109,37,197,447,-317,1,0,27,38,40,1,53298,1
176,2,31987,30934,32669,41415,2248,-3768,-1017,-2383,147,68,19,195,447,-319,1,0,27,38,80,1,53298,1
177,2,31991,30920,32667,41416,2250,-3755,-1031,-2401,37,18,-19,192,442,-306,1,0,27,38,120,1,53298,1
178,2,31989,30915,32663,41417,2253,-3755,-1007,-2388,21,-28,-50,195,451,-325,1,0,27,38,160,1,53298,1
179,2,31983,30915,32668,41418,2255,-3753,-1019,-2396,161,-82,-29,196,456,-316,1,0,27,38,200,1,53298,1
180,2,31982,30906,32664,41419,2258,-3762,-1036,-2378,-179,-106,16,203,447,-321,1,0,27,38,240,1,53298,1
181,2,31985,30913,32666,41420,2259,-3757,-1022,-2387,-170,-101,48,188,448,-312,1,0,27,38,280,1,53298,1
182,2,31978,30902,32658,41421,2262,-3755,-1027,-2378,-67,-29,63,204,452,-316,1,0,27,38,320,1,53298,1
183,2,31990,30897,32663,41422,2264,-3763,-1013,-2369,-99,89,-2,186,452,-310,1,0,27,38,360,1,53298,1
184,2,31992,30903,32670,41423,2267,-3767,-1000,-2384,236,116,-84,194,458,-326,1,0,27,38,400,1,53298,1
185,2,31988,30864,32659,41424,2269,-3751,-1031,-2386,150,54,-47,201,451,-317,1,0,27,38,440,1,53298,1
186,2,31980,30842,32658,41425,2270,-3756,-1040,-2387,250,-39,35,185,439,-317,1,0,27,38,480,1,53298,1
187,2,31971,30827,32654,41426,2272,-3756,-1037,-2375,-126,-119,75,194,456,-318,1,0,27,38,520,1,53298,1
188,2,31975,30814,32657,41427,2275,-3776,-1027,-2376,-69,-60,42,198,452,-304,1,0,27,38,560,1,53298,1
189,2,31970,30826,32655,41428,2277,-3763,-1013,-2373,-221,25,-16,193,453,-313,1,0,27,38,600,1,53298,1
190,2,31968,30791,32649,41429,2280,-3775,-1026,-2364,70,71,-36,190,454,-312,1,0,27,38,640,1,53298,1
191,2,31968,30765,32638,41430,2283,-3762,-1036,-2392,59,39,-17,191,443,-319,1,0,27,38,680,1,53298,1
192,2,31963,30797,32647,41431,2286,-3748,-1031,-2383,240,-30,7,196,454,-312,1,0,27,38,720,1,53298,1
193,2,31967,30734,32647,41432,2289,-3753,-1016,-2399,-67,-121,-15,198,454,-318,1,0,27,38,760,1,53298,1
194,2,31972,30690,32647,41433,2292,-3758,-1027,-2364,-7,-65,3,203,443,-313,1,0,27,38,800,1,53298,1
195,2,31970,30709,32650,41434,2295,-3760,-1024,-2361,-215,23,26,200,452,-322,1,0,27,38,840,1,53298,1
196,2,31975,30686,32650,41435,2298,-3767,-1024,-2372,26,89,34,191,453,-321,1,0,27,38,880,1,53298,1
197,2,31964,30728,32647,41436,2300,-3765,-1041,-2391,238,43,39,202,460,-320,1,0,27,38,920,1,53298,1
198,2,31972,30549,32644,41437,2300,-3749,-1022,-2405,-12,13,26,188,446,-322,1,0,27,38,960,1,53298,1
199,1,31973,30525,32647,41438,1738,-3761,-1031,-2401,41,-11,8,196,450,-318,1,0,27,39,0,1,53298,1
200,2,31980,30638,32658,41439,1741,-3757,-1020,-2401,29,-40,-19,199,449,-307,1,0,27,39,40,1,53298,1
201,2,31970,30609,32647,41440,1744,-3753,-1026,-2387,17,-37,19,201,441,-317,1,0,27,39,80,1,53298,1
202,2,31967,30624,32654,41441,1747,-3773,-1022,-2375,-11,-37,19,197,449,-321,1,0,27,39,120,1,53298,1
203,2,31966,30530,32642,41442,1750,-3764,-1023,-2392,2,-15,-53,198,456,-320,1,0,27,39,160,1,53298,1
204,2,31972,30595,32647,41443,1753,-3764,-1033,-2351,21,70,-65,199,449,-321,1,0,27,39,200,1,53298,1
205,2,31970,30512,32653,41444,1756,-3768,-1049,-2391,35,42,8,201,447,-321,1,0,27,39,240,1,53298,1
206,2,31965,30572,32640,41445,1758,-3745,-1039,-2404,26,-22,67,191,449,-323,1,0,27,39,280,1,53298,1
207,2,31970,30555,32644,41446,1761,-3766,-1037,-2383,-50,-60,117,193,455,-321,1,0,27,39,320,1,53298,1
208,2,31971,30487,32647,41447,1764,-3757,-1008,-2380,-110,-55,135,184,452,-308,1,0,27,39,360,1,53298,1
209,2,31965,30553,32641,41448,1766,-3757,-1025,-2382,-62,-50,86,191,453,-313,1,0,27,39,400,1,53298,1
210,2,31965,30521,32645,41449,1769,-3756,-1007,-2389,37,3,-10,190,458,-320,1,0,27,39,440,1,53298,1
211,2,31964,30587,32642,41450,1772,-3764,-1011,-2384,117,60,-88,196,462,-312,1,0,27,39,480,1,53298,1
212,2,31970,30564,32648,41451,1775,-3757,-1028,-2396,116,62,-124,192,452,-316,1,0,27,39,520,1,53298,1
213,2,31964,30617,32637,41452,1777,-3754,-1047,-2384,38,27,-67,195,447,-321,1,0,27,39,560,1,53298,1
214,2,31966,30541,32642,41453,1780,-3756,-1049,-2406,-23,-36,21,192,456,-318,1,0,27,39,600,1,53298,1
215,2,31963,30627,32646,41454,1783,-3760,-1023,-2407,-93,-75,52,193,451,-325,1,0,27,39,640,1,53298,1
216,2,31964,30558,32637,41455,1786,-3747,-1017,-2389,-66,-70,49,197,457,-313,1,0,27,39,680,1,53298,1
217,2,31960,30620,32634,41456,1789,-3749,-1023,-2379,40,-9,12,196,444,-326,1,0,27,39,720,1,53298,1
218,2,31962,30564,32642,41457,1793,-3762,-1012,-2387,40,-14,-40,197,447,-321,1,0,27,39,760,1,53298,1
219,2,31953,30610,32635,41458,1795,-3750,-1033,-2384,-1,-19,-9,194,450,-320,1,0,27,39,800,1,53298,1
220,2,31964,30595,32637,41459,1799,-3776,-1044,-2383,-1,-17,37,192,448,-312,1,0,27,39,840,1,53298,1
221,2,31964,30637,32641,41460,1802,-3739,-1019,-2385,-31,-26,5,200,446,-316,1,0,27,39,880,1,53298,1
222,2,31960,30598,32636,41461,1804,-3761,-1020,-2389,-28,-26,-9,190,448,-324,1,0,27,39,920,1,53298,1
223,2,31960,30602,32638,41462,1804,-3766,-1025,-2377,-63,-26,17,198,452,-312,1,0,27,39,960,1,53298,1
224,1,31965,30600,32641,41463,1233,-3751,-1031,-2388,-161,-30,-6,194,450,-318,1,0,27,40,0,1,53298,1
225,2,31959,30595,32636,41464,1236,-3763,-1031,-2372,34,-14,23,189,447,-313,1,0,27,40,40,1,53298,1
226,2,31963,30654,32645,41465,1238,-3755,-1018,-2394,327,-49,64,199,455,-315,1,0,27,40,80,1,53298,1
227,2,31967,30621,32650,41466,1242,-3747,-1009,-2368,-6,-51,-22,183,445,-311,1,0,27,40,120,1,53298,1
228,2,31967,30622,32645,41467,1244,-3786,-1036,-2372,-296,-9,36,202,456,-324,1,0,27,40,160,1,53298,1
229,2,31963,30550,32641,41468,1247,-3768,-1052,-2408,-26,54,84,195,453,-319,1,0,27,40,200,1,53298,1
230,2,31955,30630,32635,41469,1249,-3755,-1016,-2407,179,4,-6,203,451,-313,1,0,27,40,240,1,53298,1
231,2,31960,30613,32643,41470,1252,-3747,-997,-2402,150,23,-149,193,449,-317,1,0,27,40,280,1,53298,1
232,2,31962,30627,32637,41471,1254,-3765,-1054,-2379,-155,-47,-37,192,456,-322,1,0,27,40,320,1,53298,1
233,2,31961,30662,32641,41472,1256,-3765,-1070,-2378,-129,-99,114,191,449,-319,1,0,27,40,360,1,53298,1
234,2,31964,30618,32641,41473,1258,-3748,-1028,-2372,27,-73,85,195,447,-315,1,0,27,40,400,1,53298,1
235,2,31970,30713,32646,41474,1261,-3763,-1000,-2379,95,28,-53,199,451,-319,1,0,27,40,440,1,53298,1
236,2,31969,30655,32647,41475,1264,-3761,-1000,-2412,-17,56,-84,191,447,-319,1,0,27,40,480,1,53298,1
237,2,31969,30624,32642,41476,1266,-3746,-1066,-2388,-75,-42,56,198,458,-320,1,0,27,40,520,1,53298,1
238,2,31961,30676,32646,41477,1268,-3755,-1039,-2379,37,-68,91,193,447,-309,1,0,27,40,560,1,53298,1
239,2,31969,30640,32645,41478,1270,-3759,-1004,-2393,-3,-24,-37,195,461,-311,1,0,27,40,600,1,53298,1
240,2,31972,30608,32654,41479,1272,-3749,-1015,-2389,-16,17,-75,191,449,-323,1,0,27,40,640,1,53298,1
241,2,31969,30644,32648,41480,1274,-3755,-1059,-2381,14,-31,36,192,450,-322,1,0,27,40,680,1,53298,1
242,2,31971,30649,32652,41481,1276,-3756,-1047,-2378,-21,-53,83,199,451,-323,1,0,27,40,720,1,53298,1
243,2,31972,30591,32655,41482,1279,-3770,-1009,-2386,5,6,11,195,451,-313,1,0,27,40,760,1,53298,1
244,2,31975,30625,32658,41483,1281,-3761,-1023,-2402,19,25,-47,194,454,-308,1,0,27,40,800,1,53298,1
245,2,31975,30655,32649,41484,1284,-3750,-1043,-2405,9,-10,-27,196,452,-322,1,0,27,40,840,1,53298,1
246,2,31980,30641,32656,41485,1287,-3747,-1045,-2375,-7,-61,23,196,454,-312,1,0,27,40,880,1,53298,1
247,2,31977,30692,32660,41486,1290,-3756,-1022,-2378,-26,-15,24,200,450,-314,1,0,27,40,920,1,53298,1
248,2,31977,30661,32655,41487,1290,-3753,-1026,-2383,-30,5,6,191,443,-317,1,0,27,40,960,1,53298,1
249,1,31979,30702,32654,41488,729,-3754,-1024,-2390,22,-24,-10,199,447,-317,1,0,27,41,0,0,53298,1
250,2,31977,30664,32658,41489,731,-3754,-1032,-2384,12,-41,-5,193,459,-313,1,0,27,41,40,0,53298,1
251,2,31976,30651,32659,41490,733,-3758,-1042,-2389,-37,-7,28,191,447,-313,1,0,27,41,80,0,53298,1
252,2,31975,30680,32653,41491,734,-3767,-1024,-2375,-31,-18,43,199,451,-311,1,0,27,41,120,0,53298,1
253,2,31976,30627,32654,41492,736,-3755,-1021,-2381,4,-21,31,198,452,-320,1,0,27,41,160,0,53298,1
254,2,31975,30625,32654,41493,738,-3755,-1021,-2399,18,-14,-20,194,456,-322,1,0,27,41,200,0,53298,1
255,2,31982,30644,32664,41494,739,-3753,-1049,-2387,11,-7,-31,199,451,-319,1,0,27,41,240,0,53298,1
256,2,31975,30637,32656,41495,742,-3754,-1035,-2385,17,-4,11,192,458,-316,1,0,27,41,280,0,53298,1
257,2,31982,30736,32657,41496,745,-3749,-1026,-2387,-11,-13,41,198,452,-308,1,0,27,41,320,0,53298,1
258,2,31980,30698,32658,41497,748,-3751,-1028,-2381,-26,-18,25,204,454,-320,1,0,27,41,360,0,53298,1
259,2,31979,30676,32653,41498,751,-3757,-1030,-2384,9,-11,2,200,452,-316,1,0,27,41,400,0,53298,1
260,2,31979,30684,32658,41499,753,-3763,-1028,-2382,6,3,-13,190,450,-326,1,0,27,41,440,0,53298,1
261,2,31983,30658,32662,41500,756,-3756,-1045,-2388,-2,-18,11,190,452,-306,1,0,27,41,480,0,53298,1
262,2,31983,30663,32661,41501,759,-3765,-1041,-2372,0,-22,28,190,442,-304,1,0,27,41,520,0,53298,1
263,2,31983,30751,32660,41502,761,-3760,-1034,-2396,-4,-10,6,196,454,-312,1,0,27,41,560,0,53298,1
264,2,31986,30695,32660,41503,764,-3773,-1029,-2389,4,-3,5,197,445,-319,1,0,27,41,600,0,53298,1
265,2,31986,30730,32665,41504,767,-3750,-1032,-2395,-2,-10,6,193,443,-311,1,0,27,41,640,0,53298,1
266,2,31983,30711,32659,41505,770,-3759,-1025,-2393,-4,-24,4,199,441,-321,1,0,27,41,680,0,53298,1
267,2,31979,30727,32657,41506,773,-3763,-1036,-2383,-11,-40,4,190,448,-318,1,0,27,41,720,0,53298,1
268,2,31976,30736,32659,41507,775,-3766,-1037,-2374,-5,-28,20,192,452,-324,1,0,27,41,760,0,53298,1
269,2,31979,30711,32656,41508,778,-3764,-1033,-2395,-2,-14,22,197,447,-321,1,0,27,41,800,0,53298,1
270,2,31983,30735,32661,41509,780,-3765,-1019,-2380,8,-21,11,200,450,-320,1,0,27,41,840,0,53298,1
271,2,31990,30781,32667,41510,783,-3742,-1028,-2375,13,7,-3,196,446,-316,1,0,27,41,880,0,53298,1
272,2,31985,30697,32667,41511,786,-3756,-1035,-2371,-7,-8,11,185,455,-317,1,0,27,41,920,0,53298,1
273,2,31988,30795,32668,41512,786,-3760,-1020,-2389,5,-10,15,189,449,-317,1,0,27,41,960,0,53298,1
274,1,31984,30763,32664,41513,224,-3762,-1031,-2374,-10,-27,-3,199,459,-313,1,0,27,42,0,1,53298,1
275,1,31986,30787,32661,41514,227,-3757,-1037,-2383,-9,-21,4,199,443,-319,1,0,27,42,40,1,53298,1
276,1,31982,30763,32661,41515,229,-3756,-1029,-2385,-4,-22,13,190,452,-318,1,0,27,42,80,1,53298,1
277,1,31983,30762,32660,41516,231,-3748,-1035,-2384,1,-3,5,195,451,-317,1,0,27,42,120,1,53298,1
278,1,31984,30814,32658,41517,233,-3768,-1039,-2377,6,-12,-2,192,458,-320,1,0,27,42,160,1,53298,1
279,1,31982,30830,32663,41518,236,-3752,-1036,-2384,-1,-15,6,194,448,-324,1,0,27,42,200,1,53298,1
280,1,31987,30775,32661,41519,238,-3766,-1046,-2380,-19,-15,13,193,449,-321,1,0,27,42,240,1,53298,1
281,1,31985,30779,32665,41520,241,-3761,-1030,-2375,-25,-26,12,196,446,-322,1,0,27,42,280,1,53298,1
282,3,31987,30797,32668,41521,243,-3771,-1033,-2380,-5,-17,18,198,446,-320,1,0,27,42,320,1,53298,1
283,3,31984,30821,32659,41522,246,-3766,-1042,-2375,13,0,11,193,449,-313,1,0,27,42,360,1,53298,1
284,3,31986,30836,32667,41523,249,-3757,-1025,-2397,15,14,5,196,456,-314,1,0,27,42,400,1,53298,1
285,3,31985,30849,32660,41524,251,-3751,-1025,-2394,12,-15,-6,191,453,-325,1,0,27,42,440,1,53298,1
286,3,31989,30857,32665,41525,253,-3766,-1037,-2380,9,-34,-3,191,453,-323,1,0,27,42,480,1,53298,1
287,3,31984,30841,32663,41526,254,-3758,-1020,-2395,-36,-11,29,191,447,-319,1,0,27,42,520,1,53298,1
288,3,31985,30890,32660,41527,256,-3758,-1035,-2382,-27,-7,16,201,447,-317,1,0,27,42,560,1,53298,1
289,3,31991,30906,32666,41528,258,-3757,-1027,-2391,4,-12,-4,200,452,-316,1,0,27,42,600,1,53298,1
290,3,31993,30924,32669,41529,260,-3767,-1052,-2381,29,-21,-3,181,447,-307,1,0,27,42,640,1,53298,1
291,3,31992,30933,32666,41530,263,-3759,-1036,-2384,-28,-23,29,192,450,-314,1,0,27,42,680,1,53298,1
292,3,31979,30927,32660,41531,265,-3769,-1014,-2383,-29,-21,56,189,455,-315,1,0,27,42,720,1,53298,1
293,3,31982,30943,32660,41532,268,-3752,-1022,-2395,30,12,-16,183,449,-309,1,0,27,42,760,1,53298,1
294,3,31985,30955,32666,41533,271,-3757,-1049,-2395,24,7,-51,200,446,-316,1,0,27,42,800,1,53298,1
295,3,31984,30959,32662,41534,273,-3762,-1051,-2386,3,-26,-7,204,458,-324,1,0,27,42,840,1,53298,1
296,3,31984,30957,32659,41535,274,-3750,-1035,-2392,-5,-22,56,195,461,-315,1,0,27,42,880,1,53298,1
297,3,31981,30960,32662,41536,277,-3747,-1014,-2376,-33,4,27,190,446,-318,1,0,27,42,920,1,53298,1
298,0,31982,30956,32665,41537,65535,-3747,-1014,-2376,-33,4,27,192,450,-314,1,0,27,42,960,1,53298,1
299,1,31978,30961,32659,41538,0,-3741,-1026,-2394,10,-45,8,193,453,-327,1,0,27,43,0,1,53298,1
300,2,31978,30967,32656,41539,39724,-3767,-1039,-2397,8,-15,4,198,452,-322,1,0,27,43,40,1,53298,1
301,2,31975,30964,32657,41540,39726,-3763,-1045,-2393,-7,-4,-1,183,441,-311,1,0,27,43,80,1,53298,1
302,2,31989,30966,32666,41541,39728,-3756,-1036,-2394,-15,-26,7,199,449,-307,1,0,27,43,120,1,53298,1
303,2,31982,30968,32665,41542,39731,-3767,-1024,-2372,13,-49,24,196,462,-318,1,0,27,43,160,1,53298,1
304,2,31985,30960,32673,41543,39732,-3752,-1016,-2377,-5,-1,28,201,457,-311,1,0,27,43,200,1,53298,1
305,2,31989,30961,32663,41544,39734,-3751,-1027,-2387,-55,36,-9,194,456,-316,1,0,27,43,240,1,53298,1
306,2,31982,30971,32658,41545,39736,-3758,-1039,-2383,-51,-12,18,191,447,-325,1,0,27,43,280,1,53298,1
307,2,31984,30971,32656,41546,39738,-3752,-1030,-2399,43,-19,49,189,453,-313,1,0,27,43,320,1,53298,1
308,2,31983,30964,32665,41547,39740,-3748,-1017,-2380,51,4,-2,199,457,-323,1,0,27,43,360,1,53298,1
309,2,31984,30965,32660,41548,39742,-3765,-1029,-2374,71,13,-45,197,453,-315,1,0,27,43,400,1,53298,1
310,2,31990,30983,32661,41549,39745,-3747,-1049,-2406,-68,-65,8,194,448,-318,1,0,27,43,440,1,53298,1
311,2,31985,30982,32665,41550,39748,-3755,-1055,-2371,-211,-148,81,193,449,-321,1,0,27,43,480,1,53298,1
312,2,31990,30976,32669,41551,39750,-3764,-999,-2374,-36,-60,118,196,450,-320,1,0,27,43,520,1,53298,1
313,2,31989,30983,32660,41552,39751,-3767,-1017,-2383,76,80,-11,190,450,-322,1,0,27,43,560,1,53298,1
314,2,31989,30982,32665,41553,39754,-3758,-1063,-2403,115,142,-81,200,450,-314,1,0,27,43,600,1,53298,1
315,2,31991,30985,32670,41554,39757,-3733,-1039,-2407,72,-25,-25,200,446,-316,1,0,27,43,640,1,53298,1
316,2,31997,30990,32672,41555,39760,-3759,-1025,-2371,-126,-147,62,192,438,-320,1,0,27,43,680,1,53298,1
317,2,31992,30990,32668,41556,39763,-3770,-1024,-2376,-321,-163,138,187,451,-317,1,0,27,43,720,1,53298,1
318,2,31993,30994,32670,41557,39765,-3757,-1023,-2381,-261,-107,139,193,449,-319,1,0,27,43,760,1,53298,1
319,2,31985,30989,32666,41558,39768,-3768,-1014,-2361,-108,-22,76,199,453,-319,1,0,27,43,800,1,53298,1
320,2,31991,30992,32664,41559,39771,-3759,-1001,-2383,201,82,-67,197,455,-315,1,0,27,43,840,1,53298,1
321,2,32000,30992,32673,41560,39773,-3752,-1034,-2377,278,181,-188,190,446,-316,1,0,27,43,880,1,53298,1
322,2,32000,30991,32672,41561,39775,-3756,-1052,-2419,126,93,-93,189,445,-319,1,0,27,43,920,1,53298,1
323,2,31989,30989,32663,41562,39778,-3752,-1057,-2408,-87,-111,106,193,451,-313,1,0,27,43,960,1,53298,1
324,1,31983,30986,32662,41563,0,-3767,-1001,-2360,-136,-194,186,186,458,-326,1,0,27,44,0,1,53298,1
325,2,31992,30988,32668,41564,39219,-3778,-997,-2369,-5,-35,33,197,449,-315,1,0,27,44,40,1,53298,1
326,2,31987,30986,32662,41565,39221,-3757,-1035,-2398,104,125,-136,194,446,-322,1,0,27,44,80,1,53298,1
327,2,31990,30990,32667,41566,39223,-3744,-1055,-2408,92,78,-113,193,451,-319,1,0,27,44,120,1,53298,1
328,2,31984,30988,32661,41567,39225,-3747,-1061,-2392,-112,-72,41,195,453,-307,1,0,27,44,160,1,53298,1
329,2,31985,30990,32659,41568,39227,-3768,-1006,-2375,-164,-144,193,204,452,-318,1,0,27,44,200,1,53298,1
330,2,31981,30984,32662,41569,39229,-3772,-1002,-2381,-212,-111,151,196,454,-322,1,0,27,44,240,1,53298,1
331,2,31981,30985,32659,41570,39231,-3772,-1010,-2376,-140,-27,60,191,453,-315,1,0,27,44,280,1,53298,1
332,2,31981,30985,32663,41571,39233,-3754,-993,-2375,148,63,-45,195,453,-319,1,0,27,44,320,1,53298,1
333,2,31980,30986,32659,41572,39235,-3765,-1037,-2407,281,133,-167,202,446,-318,1,0,27,44,360,1,53298,1
334,2,31986,30985,32663,41573,39237,-3745,-1046,-2415,10,28,-123,191,453,-311,1,0,27,44,400,1,53298,1
335,2,31980,30978,32664,41574,39239,-3760,-1064,-2380,-187,-142,74,198,454,-324,1,0,27,44,440,1,53298,1
336,2,31983,30977,32661,41575,39242,-3778,-984,-2367,-79,-158,216,202,446,-318,1,0,27,44,480,1,53298,1
337,2,31984,30980,32663,41576,39245,-3773,-985,-2368,118,31,30,196,452,-324,1,0,27,44,520,1,53298,1
338,2,31986,30977,32666,41577,39247,-3750,-1017,-2399,167,180,-175,194,450,-318,1,0,27,44,560,1,53298,1
339,2,31990,30980,32668,41578,39251,-3736,-1059,-2409,114,107,-140,193,457,-313,1,0,27,44,600,1,53298,1
340,2,31983,30973,32660,41579,39254,-3764,-1050,-2408,17,-69,32,192,448,-314,1,0,27,44,640,1,53298,1
341,2,31979,30975,32662,41580,39257,-3759,-1008,-2382,-107,-126,107,201,461,-311,1,0,27,44,680,1,53298,1
342,2,31985,30979,32664,41581,39260,-3754,-1004,-2375,-28,-29,29,204,454,-320,1,0,27,44,720,1,53298,1
343,2,31996,30981,32671,41582,39262,-3758,-1029,-2370,64,50,-52,190,444,-308,1,0,27,44,760,1,53298,1
344,2,31989,30977,32667,41583,39264,-3753,-1046,-2396,21,18,-32,192,448,-314,1,0,27,44,800,1,53298,1
345,2,31987,30977,32660,41584,39266,-3749,-1030,-2397,-25,-34,48,192,452,-312,1,0,27,44,840,1,53298,1
346,2,31984,30976,32662,41585,39268,-3760,-1021,-2375,-43,-56,48,198,452,-314,1,0,27,44,880,1,53298,1
347,2,31986,30976,32660,41586,39270,-3763,-1021,-2378,-16,-16,0,192,452,-316,1,0,27,44,920,1,53298,1
348,2,31982,30976,32662,41587,39271,-3765,-1031,-2407,28,0,-23,196,450,-316,1,0,27,44,960,1,53298,1
349,1,31995,30981,32669,41588,0,-3760,-1032,-2387,26,-21,2,197,453,-325,1,0,27,45,0,1,53298,1
350,2,31988,30977,32663,41589,38716,-3759,-1025,-2383,-7,-16,26,187,447,-313,1,0,27,45,40,1,53298,1
351,2,31995,30987,32675,41590,38718,-3767,-1032,-2385,-24,-7,18,194,450,-326,1,0,27,45,80,1,53298,1
352,2,31993,30982,32670,41591,38720,-3755,-1031,-2396,-23,-8,3,187,451,-313,1,0,27,45,120,1,53298,1
353,2,31995,30982,32667,41592,38722,-3767,-1033,-2385,7,-33,1,192,454,-320,1,0,27,45,160,1,53298,1
354,2,31997,30977,32670,41593,38723,-3762,-1028,-2397,14,-13,8,190,454,-318,1,0,27,45,200,1,53298,1
355,2,31997,30989,32674,41594,38726,-3765,-1039,-2399,-13,0,-1,198,460,-316,1,0,27,45,240,1,53298,1
356,2,31998,30983,32680,41595,38727,-3761,-1031,-2381,-8,-30,2,190,454,-314,1,0,27,45,280,1,53298,1
357,2,31993,30988,32670,41596,38729,-3767,-1033,-2380,6,-38,20,189,455,-313,1,0,27,45,320,1,53298,1
358,2,31995,30991,32672,41597,38731,-3750,-1014,-2378,4,22,42,192,450,-310,1,0,27,45,360,1,53298,1
359,2,31995,30988,32675,41598,38732,-3757,-1037,-2408,7,49,17,197,449,-315,1,0,27,45,400,1,53298,1
360,2,31998,30988,32672,41599,38733,-3751,-1036,-2409,-50,-22,28,190,454,-316,1,0,27,45,440,1,53298,1
361,2,31996,30987,32673,41600,38733,-3762,-1032,-2391,-43,-82,12,189,451,-325,1,0,27,45,480,1,53298,1
362,2,31993,30981,32668,41601,38735,-3771,-1033,-2375,-24,-103,-8,196,442,-314,1,0,27,45,520,1,53298,1
363,2,31994,30990,32668,41602,38737,-3761,-1030,-2373,-12,-22,-5,193,449,-321,1,0,27,45,560,1,53298,1
364,2,31992,30981,32671,41603,38739,-3751,-1031,-2394,3,-13,4,194,450,-318,1,0,27,45,600,1,53298,1
365,2,31994,30983,32673,41604,38740,-3758,-1020,-2396,-13,-25,15,194,448,-314,1,0,27,45,640,1,53298,1
366,2,31991,30978,32670,41605,38742,-3758,-1026,-2386,-20,-37,7,198,452,-318,1,0,27,45,680,1,53298,1
367,2,31994,30978,32672,41606,38744,-3762,-1036,-2390,9,-34,-6,199,453,-321,1,0,27,45,720,1,53298,1
368,2,31991,30984,32673,41607,38746,-3760,-1026,-2371,-4,-16,8,190,448,-316,1,0,27,45,760,1,53298,1
369,2,31991,30973,32671,41608,38749,-3763,-1025,-2379,-19,-4,35,192,448,-310,1,0,27,45,800,1,53298,1
370,2,31989,30970,32670,41609,38752,-3755,-1028,-2398,-41,6,56,192,454,-312,1,0,27,45,840,1,53298,1
371,2,31990,30972,32669,41610,38754,-3763,-1017,-2386,-4,12,29,191,451,-319,1,0,27,45,880,1,53298,1
372,2,31999,30974,32675,41611,38756,-3755,-1023,-2386,33,4,-15,196,458,-316,1,0,27,45,920,1,53298,1
373,2,31997,30982,32675,41612,38758,-3752,-1026,-2388,24,-26,-18,184,454,-316,1,0,27,45,960,1,53298,1
374,1,32002,30965,32677,41613,0,-3767,-1028,-2367,45,-10,-7,191,455,-323,1,0,27,46,0,0,53298,1
375,2,31998,30984,32681,41614,38212,-3766,-1019,-2394,47,17,-9,200,450,-318,1,0,27,46,40,0,53298,1
376,2,31997,30974,32673,41615,38212,-3760,-1044,-2392,-23,-17,-19,196,452,-314,1,0,27,46,80,0,53298,1
377,2,32000,30975,32680,41616,38214,-3750,-1038,-2383,-25,-74,12,196,452,-318,1,0,27,46,120,0,53298,1
378,2,32000,30974,32680,41617,38217,-3768,-1010,-2379,38,-34,8,198,450,-318,1,0,27,46,160,0,53298,1
379,2,31995,30979,32674,41618,38220,-3750,-1024,-2383,73,20,-35,202,452,-322,1,0,27,46,200,0,53298,1
380,2,32002,30985,32674,41619,38222,-3741,-1043,-2390,-119,36,-6,193,453,-321,1,0,27,46,240,0,53298,1
381,2,31990,30970,32669,41620,38224,-3765,-1035,-2391,-174,-57,142,195,443,-323,1,0,27,46,280,0,53298,1
382,2,31991,30972,32673,41621,38227,-3772,-1005,-2381,-135,-134,158,189,447,-311,1,0,27,46,320,0,53298,1
383,2,31995,30977,32671,41622,38229,-3770,-984,-2373,79,-56,20,193,449,-323,1,0,27,46,360,0,53298,1
384,2,31999,30985,32675,41623,38232,-3741,-1049,-2406,53,62,-137,180,450,-310,1,0,27,46,400,0,53298,1
385,2,32003,30977,32678,41624,38235,-3772,-1062,-2375,87,30,-84,196,444,-326,1,0,27,46,440,0,53298,1
386,2,32003,30986,32678,41625,38238,-3783,-1013,-2351,227,40,15,195,449,-317,1,0,27,46,480,0,53298,1
387,2,32004,30982,32680,41626,38241,-3751,-1007,-2376,206,130,-66,192,452,-326,1,0,27,46,520,0,53298,1
388,2,32009,30981,32678,41627,38245,-3748,-1081,-2433,-182,62,-88,204,450,-320,1,0,27,46,560,0,53298,1
389,2,32005,30984,32684,41628,38248,-3741,-1054,-2400,-231,-204,132,195,443,-325,1,0,27,46,600,0,53298,1
390,2,31997,30979,32675,41629,38251,-3764,-992,-2351,-148,-204,218,197,449,-319,1,0,27,46,640,0,53298,1
391,2,31995,30974,32674,41630,38254,-3783,-980,-2360,-51,-39,66,191,445,-317,1,0,27,46,680,0,53298,1
392,2,31990,30970,32670,41631,38258,-3763,-1040,-2393,94,133,-140,188,444,-322,1,0,27,46,720,0,53298,1
393,2,31997,30972,32674,41632,38261,-3752,-1052,-2418,89,69,-83,192,452,-322,1,0,27,46,760,0,53298,1
394,2,31995,30972,32674,41633,38263,-3746,-1034,-2394,46,-60,31,190,450,-312,1,0,27,46,800,0,53298,1
395,2,31993,30974,32669,41634,38267,-3760,-1005,-2374,8,-61,44,188,454,-320,1,0,27,46,840,0,53298,1
396,2,31990,30965,32668,41635,38270,-3759,-1031,-2372,-35,9,-15,194,452,-322,1,0,27,46,880,0,53298,1
397,2,31990,30963,32668,41636,38273,-3746,-1039,-2401,-16,3,4,188,454,-320,1,0,27,46,920,0,53298,1
398,2,31992,30968,32668,41637,38275,-3761,-1036,-2385,-21,-44,53,188,460,-310,1,0,27,46,960,0,53298,1
399,1,31985,30966,32664,41638,0,-3778,-1030,-2394,-46,-30,47,201,447,-319,1,0,27,47,0,1,53298,1
400,2,31993,30942,32666,41639,37711,-3764,-1021,-2383,-17,-24,-2,188,450,-324,1,0,27,47,40,1,53298,1
401,2,31987,30965,32667,41640,37713,-3759,-1030,-2397,39,6,-23,200,452,-322,1,0,27,47,80,1,53298,1
402,2,31994,30965,32674,41641,37715,-3764,-1041,-2375,31,-2,-20,190,456,-324,1,0,27,47,120,1,53298,1
403,2,31999,30961,32675,41642,37718,-3773,-1036,-2400,0,-16,13,197,457,-319,1,0,27,47,160,1,53298,1
404,2,31995,30965,32667,41643,37721,-3755,-1028,-2385,-21,-21,27,190,456,-322,1,0,27,47,200,1,53298,1
405,2,31993,30968,32674,41644,37724,-3770,-1035,-2390,-22,-21,8,191,443,-317,1,0,27,47,240,1,53298,1
406,2,31995,30969,32668,41645,37727,-3759,-1043,-2393,-21,-22,11,195,445,-319,1,0,27,47,280,1,53298,1
407,2,31991,30966,32669,41646,37730,-3759,-1033,-2387,0,-12,6,192,446,-316,1,0,27,47,320,1,53298,1
408,2,31995,30967,32668,41647,37733,-3761,-1022,-2383,18,-6,-4,201,449,-313,1,0,27,47,360,1,53298,1
409,2,31990,30956,32667,41648,37737,-3765,-1028,-2381,31,-6,-14,198,454,-312,1,0,27,47,400,1,53298,1
410,2,31986,30956,32665,41649,37740,-3761,-1036,-2391,-3,-10,-5,193,455,-313,1,0,27,47,440,1,53298,1
411,2,31989,30960,32669,41650,37744,-3770,-1039,-2407,-31,-28,34,199,449,-321,1,0,27,47,480,1,53298,1
412,2,31990,30944,32666,41651,37747,-3765,-1032,-2377,-32,-29,36,197,455,-311,1,0,27,47,520,1,53298,1
413,2,31994,30935,32673,41652,37749,-3765,-1028,-2382,-6,-8,4,198,446,-328,1,0,27,47,560,1,53298,1
414,2,31991,30939,32668,41653,37752,-3763,-1029,-2383,10,-11,-15,200,450,-318,1,0,27,47,600,1,53298,1
415,2,31995,30957,32676,41654,37754,-3761,-1047,-2396,10,-23,-1,197,449,-319,1,0,27,47,640,1,53298,1
416,2,31997,30942,32674,41655,37757,-3757,-1030,-2366,-8,-19,23,191,451,-313,1,0,27,47,680,1,53298,1
417,2,32002,30957,32675,41656,37760,-3764,-1029,-2383,-11,-3,23,188,450,-310,1,0,27,47,720,1,53298,1
418,2,31996,30950,32676,41657,37762,-3763,-1026,-2378,-16,-11,28,190,450,-314,1,0,27,47,760,1,53298,1
419,2,31997,30941,32675,41658,37764,-3748,-1020,-2392,-31,-4,24,193,443,-321,1,0,27,47,800,1,53298,1
420,2,31996,30947,32677,41659,37767,-3752,-1023,-2397,-28,-32,4,197,457,-317,1,0,27,47,840,1,53298,1
421,2,32001,30947,32674,41660,37769,-3765,-1031,-2380,-19,-58,-7,196,452,-322,1,0,27,47,880,1,53298,1
422,2,31996,30944,32669,41661,37772,-3760,-1019,-2386,8,-33,-6,191,447,-309,1,0,27,47,920,1,53298,1
423,2,31997,30945,32675,41662,37774,-3760,-1030,-2366,-9,-9,11,184,448,-306,1,0,27,47,960,1,53298,1
424,1,31995,30941,32671,41663,0,-3774,-1037,-2383,-17,-17,15,200,452,-316,1,0,27,48,0,0,53298,1
425,2,31995,30945,32670,41664,37207,-3768,-1027,-2388,-20,-25,21,202,448,-312,1,0,27,48,40,0,53298,1
426,2,31998,30962,32674,41665,37209,-3768,-1028,-2384,0,-12,23,202,450,-318,1,0,27,48,80,0,53298,1
427,2,31991,30951,32667,41666,37212,-3749,-1025,-2385,-7,23,19,191,445,-311,1,0,27,48,120,0,53298,1
428,2,31992,30952,32665,41667,37215,-3752,-1032,-2392,5,27,0,197,453,-319,1,0,27,48,160,0,53298,1
429,2,31993,30929,32670,41668,37218,-3746,-1023,-2382,5,-20,4,192,448,-328,1,0,27,48,200,0,53298,1
430,2,31998,30963,32676,41669,37221,-3761,-1033,-2360,6,-63,-7,201,449,-315,1,0,27,48,240,0,53298,1
431,2,31998,30958,32673,41670,37223,-3759,-1044,-2371,1,-42,-9,192,452,-316,1,0,27,48,280,0,53298,1
432,2,31998,30959,32675,41671,37226,-3763,-1027,-2388,-10,-5,22,193,451,-311,1,0,27,48,320,0,53298,1
433,2,32001,30954,32678,41672,37228,-3764,-1031,-2379,-9,10,27,195,449,-317,1,0,27,48,360,0,53298,1
434,2,32001,30949,32675,41673,37231,-3769,-1030,-2401,-6,7,7,197,447,-315,1,0,27,48,400,0,53298,1
435,2,31995,30969,32675,41674,37233,-3747,-1022,-2389,-4,-15,-1,191,455,-309,1,0,27,48,440,0,53298,1
436,2,31999,30968,32680,41675,37235,-3763,-1031,-2378,-6,-40,6,194,454,-314,1,0,27,48,480,0,53298,1
437,2,31997,30965,32680,41676,37238,-3760,-1025,-2370,-3,-29,13,190,460,-326,1,0,27,48,520,0,53298,1
438,2,31999,30964,32679,41677,37240,-3760,-1023,-2389,7,-4,1,195,451,-319,1,0,27,48,560,0,53298,1
439,2,32000,30956,32676,41678,37242,-3755,-1030,-2380,-1,-7,-5,198,458,-318,1,0,27,48,600,0,53298,1
440,2,32002,30962,32682,41679,37245,-3757,-1034,-2387,-13,-22,14,192,456,-322,1,0,27,48,640,0,53298,1
441,2,32006,30968,32680,41680,37247,-3766,-1025,-2380,-23,-36,25,183,455,-321,1,0,27,48,680,0,53298,1
442,2,32002,30965,32677,41681,37250,-3770,-1035,-2387,-14,-15,18,196,444,-312,1,0,27,48,720,0,53298,1
443,2,32001,30974,32678,41682,37254,-3748,-1040,-2383,10,3,2,193,447,-327,1,0,27,48,760,0,53298,1
444,2,32004,30959,32678,41683,37257,-3755,-1042,-2387,1,-6,7,193,455,-307,1,0,27,48,800,0,53298,1
445,2,31999,30975,32674,41684,37261,-3763,-1038,-2397,-8,-26,18,193,447,-315,1,0,27,48,840,0,53298,1
446,2,32004,30975,32679,41685,37265,-3760,-1030,-2394,-9,-35,11,191,459,-317,1,0,27,48,880,0,53298,1
447,2,32003,30971,32679,41686,37268,-3780,-1026,-2379,3,-17,-3,196,458,-318,1,0,27,48,920,0,53298,1
448,2,32005,30970,32679,41687,37270,-3768,-1028,-2387,-6,2,13,203,443,-317,1,0,27,48,960,0,53298,1
449,1,32005,30974,32683,41688,0,-3761,-1033,-2392,-28,1,28,201,451,-309,1,0,27,49,0,0,53298,1
450,2,32002,30977,32680,41689,36704,-3760,-1027,-2387,-34,-55,33,192,450,-314,1,0,27,49,40,0,53298,1
451,2,32004,30978,32688,41690,36708,-3763,-1020,-2377,-9,-36,11,202,454,-318,1,0,27,49,80,0,53298,1
452,2,32004,30974,32680,41691,36711,-3763,-1039,-2387,-8,-12,-6,201,453,-325,1,0,27,49,120,0,53298,1
453,2,32007,30974,32683,41692,36715,-3774,-1030,-2377,0,7,1,196,450,-310,1,0,27,49,160,0,53298,1
454,2,32007,30969,32685,41693,36719,-3760,-1030,-2386,-7,0,36,197,451,-319,1,0,27,49,200,0,53298,1
455,2,32007,30972,32685,41694,36722,-3764,-1035,-2389,7,-20,14,192,448,-316,1,0,27,49,240,0,53298,1
456,2,32009,30975,32686,41695,36725,-3767,-1027,-2392,43,-3,-10,191,447,-315,1,0,27,49,280,0,53298,1
457,2,32008,30982,32691,41696,36728,-3778,-1028,-2385,25,4,-2,192,458,-324,1,0,27,49,320,0,53298,1
458,2,32013,30982,32684,41697,36731,-3763,-1039,-2388,-10,-9,1,202,444,-318,1,0,27,49,360,0,53298,1
459,2,32006,30974,32683,41698,36733,-3760,-1029,-2388,-13,-14,23,193,459,-325,1,0,27,49,400,0,53298,1
460,2,32009,30972,32685,41699,36736,-3740,-1023,-2385,-66,-49,19,184,452,-320,1,0,27,49,440,0,53298,1
461,2,32005,30975,32681,41700,36738,-3769,-1021,-2375,-8,-47,24,199,453,-321,1,0,27,49,480,0,53298,1
462,2,32011,30971,32687,41701,36741,-3769,-1021,-2381,39,-6,3,191,447,-317,1,0,27,49,520,0,53298,1
463,2,32007,30974,32680,41702,36743,-3757,-1031,-2372,16,12,-13,189,449,-307,1,0,27,49,560,0,53298,1
464,2,32013,30975,32688,41703,36747,-3769,-1049,-2396,-31,-13,7,193,455,-321,1,0,27,49,600,0,53298,1
465,2,32009,30972,32687,41704,36750,-3759,-1011,-2379,-3,-50,45,187,449,-327,1,0,27,49,640,0,53298,1
466,2,32006,30976,32685,41705,36754,-3758,-1028,-2383,5,-10,18,198,452,-320,1,0,27,49,680,0,53298,1
467,2,32010,30974,32688,41706,36758,-3762,-1030,-2386,31,14,-18,194,448,-310,1,0,27,49,720,0,53298,1
468,2,32011,30974,32686,41707,36762,-3773,-1030,-2393,78,34,-19,193,449,-311,1,0,27,49,760,0,53298,1
469,2,32015,30975,32692,41708,36764,-3759,-1030,-2408,50,15,-9,193,451,-309,1,0,27,49,800,0,53298,1
470,2,32014,30971,32691,41709,36768,-3760,-1031,-2368,53,-11,-13,194,448,-318,1,0,27,49,840,0,53298,1
471,2,32013,30970,32685,41710,36770,-3745,-1044,-2394,-2,-38,-8,194,452,-320,1,0,27,49,880,0,53298,1
472,2,32006,30978,32688,41711,36773,-3734,-1057,-2403,-195,-84,28,193,457,-327,1,0,27,49,920,0,53298,1
473,2,32004,30970,32682,41712,36777,-3768,-1019,-2364,-83,-45,102,198,456,-320,1,0,27,49,960,0,53298,1
474,1,32010,30965,32688,41713,0,-3779,-976,-2368,142,97,42,188,448,-318,1,0,27,50,0,1,53298,1
475,2,32008,30964,32682,41714,36201,-3763,-1025,-2421,138,117,-96,197,457,-321,1,0,27,50,40,1,53298,1
476,2,32010,30963,32682,41715,36204,-3727,-1078,-2420,-127,-101,-61,202,450,-312,1,0,27,50,80,1,53298,1
477,2,32010,30967,32687,41716,36207,-3766,-1033,-2337,-69,-222,95,194,450,-322,1,0,27,50,120,1,53298,1
478,2,32008,30963,32690,41717,36211,-3796,-1003,-2356,-16,-12,103,194,452,-314,1,0,27,50,160,1,53298,1
479,2,32004,30961,32683,41718,36214,-3759,-1005,-2391,78,125,-28,191,455,-305,1,0,27,50,200,1,53298,1
480,2,32006,30967,32684,41719,36218,-3745,-1061,-2409,13,52,-102,196,458,-310,1,0,27,50,240,1,53298,1
481,2,32005,30967,32683,41720,36221,-3756,-1050,-2403,-132,-130,51,192,450,-318,1,0,27,50,280,1,53298,1
482,2,32004,30960,32684,41721,36224,-3768,-1013,-2356,-66,-155,128,196,446,-316,1,0,27,50,320,1,53298,1
483,2,32004,30968,32685,41722,36226,-3775,-998,-2371,59,33,14,201,447,-321,1,0,27,50,360,1,53298,1
484,2,32008,30959,32685,41723,36229,-3763,-1031,-2391,295,201,-142,193,447,-315,1,0,27,50,400,1,53298,1
485,2,32006,30962,32679,41724,36232,-3732,-1069,-2449,54,124,-114,196,452,-328,1,0,27,50,440,1,53298,1
486,2,32012,30964,32688,41725,36234,-3755,-1062,-2419,-445,-247,126,192,454,-312,1,0,27,50,480,1,53298,1
487,2,32010,30967,32685,41726,36238,-3782,-1006,-2326,-347,-427,307,193,451,-315,1,0,27,50,520,1,53298,1
488,2,32006,30964,32683,41727,36241,-3809,-930,-2302,114,-85,125,192,450,-316,1,0,27,50,560,1,53298,1
489,2,32009,30968,32683,41728,36246,-3756,-1018,-2395,245,342,-240,195,461,-313,1,0,27,50,600,1,53298,1
490,2,32012,30971,32685,41729,36250,-3717,-1113,-2447,64,264,-266,190,450,-312,1,0,27,50,640,1,53298,1
491,2,32008,30967,32686,41730,36254,-3743,-1050,-2392,126,-83,62,193,455,-317,1,0,27,50,680,1,53298,1
492,2,32006,30966,32683,41731,36257,-3784,-978,-2345,189,-139,135,195,455,-323,1,0,27,50,720,1,53298,1
493,2,32011,30967,32688,41732,36261,-3783,-1024,-2399,-35,80,-90,192,444,-312,1,0,27,50,760,1,53298,1
494,2,32009,30972,32686,41733,36264,-3721,-1093,-2423,-270,-25,-52,194,452,-314,1,0,27,50,800,1,53298,1
495,2,32005,30971,32682,41734,36267,-3754,-1057,-2369,-114,-203,158,188,452,-320,1,0,27,50,840,1,53298,1
496,2,32004,30970,32683,41735,36271,-3780,-969,-2347,-6,-93,176,200,458,-316,1,0,27,50,880,1,53298,1
497,2,32005,30970,32687,41736,36274,-3755,-997,-2384,103,119,-73,187,441,-321,1,0,27,50,920,1,53298,1
498,2,32004,30969,32683,41737,36278,-3728,-1060,-2410,89,145,-177,198,452,-314,1,0,27,50,960,1,53298,1
499,1,32009,30980,32687,41738,0,-3750,-1060,-2409,-18,-52,6,206,454,-326,1,0,27,51,0,0,53298,1
500,2,32006,30976,32682,41739,35699,-3766,-1008,-2363,-97,-165,138,192,454,-324,1,0,27,51,40,0,53298,1
501,2,32017,30981,32687,41740,35702,-3762,-994,-2354,-51,-60,70,191,451,-305,1,0,27,51,80,0,53298,1
502,2,32010,30978,32690,41741,35706,-3771,-1041,-2382,60,95,-77,200,452,-322,1,0,27,51,120,0,53298,1
503,2,32013,30980,32685,41742,35709,-3750,-1055,-2393,62,70,-54,203,449,-323,1,0,27,51,160,0,53298,1
504,2,32009,30980,32685,41743,35712,-3761,-1044,-2386,4,-46,39,191,453,-319,1,0,27,51,200,0,53298,1
505,2,32010,30977,32686,41744,35715,-3770,-1020,-2373,-78,-83,63,187,451,-321,1,0,27,51,240,0,53298,1
506,2,32012,30978,32691,41745,35719,-3759,-1020,-2378,-53,-35,15,198,448,-316,1,0,27,51,280,0,53298,1
507,2,32011,30978,32686,41746,35723,-3768,-1031,-2379,42,1,-24,195,447,-315,1,0,27,51,320,0,53298,1
508,2,32011,30976,32688,41747,35726,-3764,-1037,-2384,47,17,-28,202,460,-316,1,0,27,51,360,0,53298,1
509,2,32011,30970,32685,41748,35729,-3756,-1034,-2399,13,-4,8,190,452,-308,1,0,27,51,400,0,53298,1
510,2,32012,30973,32689,41749,35733,-3763,-1030,-2387,-19,-29,36,191,449,-325,1,0,27,51,440,0,53298,1
511,2,32010,30979,32683,41750,35737,-3772,-1034,-2374,-15,-22,29,204,442,-320,1,0,27,51,480,0,53298,1
512,2,32008,30977,32684,41751,35740,-3762,-1043,-2381,-13,-6,19,189,447,-305,1,0,27,51,520,0,53298,1
513,2,32014,30982,32691,41752,35743,-3760,-1038,-2400,-17,-9,16,185,441,-311,1,0,27,51,560,0,53298,1
514,2,32011,30974,32691,41753,35746,-3761,-1030,-2384,10,-22,13,196,450,-312,1,0,27,51,600,0,53298,1
515,2,32013,30979,32690,41754,35749,-3763,-1029,-2380,20,-9,-6,196,450,-322,1,0,27,51,640,0,53298,1
516,2,32019,30982,32695,41755,35753,-3762,-1040,-2384,1,-18,-10,188,450,-320,1,0,27,51,680,0,53298,1
517,2,32020,30981,32696,41756,35756,-3763,-1045,-2376,-23,-20,19,189,457,-307,1,0,27,51,720,0,53298,1
518,2,32018,30985,32695,41757,35760,-3753,-1024,-2386,9,-6,54,182,438,-306,1,0,27,51,760,0,53298,1
519,2,32014,30978,32688,41758,35764,-3781,-1028,-2375,35,-7,-4,195,449,-313,1,0,27,51,800,0,53298,1
520,2,32012,30983,32685,41759,35767,-3771,-1030,-2384,29,1,-21,199,453,-325,1,0,27,51,840,0,53298,1
521,2,32012,30985,32690,41760,35770,-3747,-1044,-2387,-53,-19,1,197,447,-311,1,0,27,51,880,0,53298,1
522,2,32011,30985,32682,41761,35774,-3764,-1034,-2394,-126,-73,45,194,450,-320,1,0,27,51,920,0,53298,1
523,2,32006,30976,32682,41762,35777,-3761,-1020,-2368,-85,-64,80,195,445,-319,1,0,27,51,960,0,53298,1
524,1,32005,30974,32684,41763,0,-3753,-1023,-2391,9,-6,46,190,452,-310,1,0,27,52,0,1,53298,1
525,2,32001,30970,32675,41764,35196,-3751,-1032,-2394,-12,19,0,194,450,-312,1,0,27,52,40,1,53298,1
526,2,31998,30972,32680,41765,35199,-3754,-1025,-2392,51,-27,9,190,456,-324,1,0,27,52,80,1,53298,1
527,2,32005,30975,32676,41766,35202,-3773,-1024,-2359,18,-58,24,194,452,-314,1,0,27,52,120,1,53298,1
528,2,31994,30965,32675,41767,35205,-3768,-1015,-2378,-62,5,-11,190,446,-324,1,0,27,52,160,1,53298,1
529,2,31996,30961,32671,41768,35208,-3760,-1035,-2389,143,58,-72,197,451,-313,1,0,27,52,200,1,53298,1
530,2,31995,30960,32672,41769,35210,-3752,-1019,-2378,259,131,-125,193,451,-315,1,0,27,52,240,1,53298,1
531,2,31995,30949,32671,41770,35213,-3740,-1069,-2432,62,127,-71,201,447,-321,1,0,27,52,280,1,53298,1
532,2,31994,30939,32669,41771,35217,-3735,-1067,-2432,-336,-164,169,189,449,-321,1,0,27,52,320,1,53298,1
533,2,31992,30958,32668,41772,35220,-3768,-1017,-2365,-349,-352,317,192,450,-314,1,0,27,52,360,1,53298,1
534,2,31993,30969,32680,41773,35223,-3819,-952,-2322,42,-184,129,191,455,-317,1,0,27,52,400,1,53298,1
535,2,31998,30957,32680,41774,35226,-3772,-996,-2373,260,160,-243,200,450,-324,1,0,27,52,440,1,53298,1
536,2,32000,30963,32669,41775,35230,-3735,-1120,-2432,-52,246,-339,204,452,-314,1,0,27,52,480,1,53298,1
537,2,32000,30942,32671,41776,35233,-3771,-1088,-2394,-7,18,19,194,452,-318,1,0,27,52,520,1,53298,1
538,2,31994,30968,32672,41777,35236,-3776,-994,-2365,227,-57,242,201,459,-319,1,0,27,52,560,1,53298,1
539,2,31996,30972,32678,41778,35238,-3747,-1018,-2416,-78,15,50,192,450,-316,1,0,27,52,600,1,53298,1
540,2,31997,30972,32673,41779,35241,-3761,-1064,-2391,-244,-55,-56,195,453,-317,1,0,27,52,640,1,53298,1
541,2,31995,30969,32675,41780,35245,-3774,-1031,-2360,-41,-201,110,196,446,-318,1,0,27,52,680,1,53298,1
542,2,31992,30969,32673,41781,35248,-3763,-991,-2357,-27,-121,97,187,455,-317,1,0,27,52,720,1,53298,1
543,2,31996,30968,32672,41782,35251,-3769,-1033,-2375,-41,73,-77,193,447,-317,1,0,27,52,760,1,53298,1
544,2,31999,30968,32675,41783,35254,-3764,-1064,-2409,146,170,-109,195,445,-315,1,0,27,52,800,1,53298,1
545,2,32000,30973,32673,41784,35258,-3758,-1008,-2369,373,135,-83,189,447,-311,1,0,27,52,840,1,53298,1
546,2,32000,30970,32670,41785,35261,-3766,-1038,-2412,160,75,-100,189,447,-323,1,0,27,52,880,1,53298,1
547,2,31999,30968,32670,41786,35264,-3717,-1082,-2418,-337,-139,18,194,454,-320,1,0,27,52,920,1,53298,1
548,2,31995,30967,32675,41787,35268,-3777,-1048,-2362,-276,-247,200,191,447,-317,1,0,27,52,960,1,53298,1
549,1,31989,30968,32673,41788,0,-3792,-982,-2375,-193,-136,246,198,448,-320,1,0,27,53,0,1,53298,1
550,2,31994,30965,32674,41789,34693,-3746,-1005,-2384,35,-16,35,193,455,-313,1,0,27,53,40,1,53298,1
551,2,31998,30971,32673,41790,34696,-3779,-1037,-2386,195,126,-179,191,461,-315,1,0,27,53,80,1,53298,1
552,2,32000,30967,32672,41791,34699,-3760,-1044,-2395,184,122,-155,196,454,-318,1,0,27,53,120,1,53298,1
553,2,32002,30973,32672,41792,34702,-3751,-1073,-2399,-22,2,-21,193,449,-319,1,0,27,53,160,1,53298,1
554,2,31994,30969,32676,41793,34706,-3767,-1033,-2395,-152,-99,108,193,457,-311,1,0,27,53,200,1,53298,1
555,2,31996,30970,32670,41794,34709,-3781,-1008,-2377,-16,-86,86,194,450,-312,1,0,27,53,240,1,53298,1
556,2,32004,30960,32676,41795,34713,-3765,-1021,-2383,68,6,-39,189,447,-319,1,0,27,53,280,1,53298,1
557,2,32004,30963,32680,41796,34716,-3743,-1053,-2390,14,49,-72,195,455,-315,1,0,27,53,320,1,53298,1
558,2,32000,30968,32678,41797,34718,-3770,-1035,-2373,12,8,44,198,452,-320,1,0,27,53,360,1,53298,1
559,2,32006,30969,32675,41798,34721,-3784,-1023,-2378,-26,-31,92,200,448,-316,1,0,27,53,400,1,53298,1
560,2,32002,30965,32676,41799,34724,-3763,-1027,-2389,-90,-45,1,185,449,-309,1,0,27,53,440,1,53298,1
561,2,31996,30972,32675,41800,34727,-3752,-1049,-2392,-33,-26,-31,192,448,-324,1,0,27,53,480,1,53298,1
562,2,31994,30974,32670,41801,34729,-3771,-1045,-2388,8,-37,21,194,448,-318,1,0,27,53,520,1,53298,1
563,2,32004,30976,32684,41802,34733,-3763,-1022,-2364,71,-13,37,203,451,-315,1,0,27,53,560,1,53298,1
564,2,32006,30974,32679,41803,34736,-3756,-1034,-2392,54,48,-23,195,451,-317,1,0,27,53,600,1,53298,1
565,2,32002,30971,32676,41804,34740,-3757,-1052,-2407,-37,13,-26,192,450,-320,1,0,27,53,640,1,53298,1
566,2,32001,30971,32677,41805,34744,-3763,-1042,-2379,-23,-73,38,191,443,-315,1,0,27,53,680,1,53298,1
567,2,31995,30971,32671,41806,34747,-3759,-1007,-2372,20,-38,49,192,454,-314,1,0,27,53,720,1,53298,1
568,2,31994,30972,32667,41807,34750,-3769,-1026,-2402,6,29,-36,200,450,-322,1,0,27,53,760,1,53298,1
569,2,31992,30971,32668,41808,34753,-3752,-1057,-2411,-64,-4,-20,192,450,-322,1,0,27,53,800,1,53298,1
570,2,31982,30967,32660,41809,34756,-3765,-1037,-2395,-124,-108,91,197,459,-319,1,0,27,53,840,1,53298,1
571,2,31983,30963,32660,41810,34758,-3772,-1003,-2371,-12,-82,98,198,452,-312,1,0,27,53,880,1,53298,1
572,2,31985,30965,32659,41811,34761,-3767,-1011,-2360,101,36,-25,191,455,-311,1,0,27,53,920,1,53298,1
573,2,31983,30965,32660,41812,34763,-3755,-1044,-2393,112,102,-114,188,466,-310,1,0,27,53,960,1,53298,1
574,1,31985,30965,32658,41813,0,-3757,-1060,-2402,29,21,-66,195,449,-313,1,0,27,54,0,1,53298,1
575,2,31985,30964,32665,41814,34191,-3762,-1028,-2380,24,-62,26,200,448,-326,1,0,27,54,40,1,53298,1
576,2,31988,30968,32664,41815,34195,-3765,-1024,-2371,19,-18,4,184,454,-312,1,0,27,54,80,1,53298,1
577,2,31982,30966,32657,41816,34198,-3743,-1047,-2411,-78,17,-13,183,449,-311,1,0,27,54,120,1,53298,1
578,2,31980,30960,32657,41817,34201,-3764,-1064,-2400,-197,-93,100,196,454,-306,1,0,27,54,160,1,53298,1
579,2,31981,30960,32660,41818,34205,-3760,-1019,-2382,-144,-151,180,198,452,-314,1,0,27,54,200,1,53298,1
580,2,31985,30968,32662,41819,34209,-3767,-996,-2362,13,-54,63,199,445,-319,1,0,27,54,240,1,53298,1
581,2,31988,30970,32662,41820,34212,-3765,-1037,-2377,194,109,-144,196,452,-312,1,0,27,54,280,1,53298,1
582,2,31989,30972,32666,41821,34216,-3751,-1065,-2401,119,142,-166,201,447,-321,1,0,27,54,320,1,53298,1
583,2,31991,30966,32664,41822,34219,-3759,-1046,-2390,77,22,-15,195,451,-319,1,0,27,54,360,1,53298,1
584,2,31990,30965,32661,41823,34222,-3765,-1033,-2397,-45,-76,93,188,448,-324,1,0,27,54,400,1,53298,1
585,2,31989,30970,32665,41824,34224,-3745,-1036,-2388,-301,-172,96,188,450,-324,1,0,27,54,440,1,53298,1
586,2,31990,30972,32664,41825,34227,-3792,-1039,-2342,-96,-128,87,196,460,-314,1,0,27,54,480,1,53298,1
587,2,31987,30973,32663,41826,34230,-3758,-995,-2380,120,21,34,192,452,-320,1,0,27,54,520,1,53298,1
588,2,31986,30975,32665,41827,34233,-3749,-1048,-2398,137,166,-124,196,450,-318,1,0,27,54,560,1,53298,1
589,2,31985,30971,32662,41828,34235,-3763,-1057,-2413,117,135,-105,197,453,-317,1,0,27,54,600,1,53298,1
590,2,32002,30975,32676,41829,34238,-3777,-1032,-2392,140,-14,1,193,449,-323,1,0,27,54,640,1,53298,1
591,2,32004,30977,32672,41830,34240,-3750,-1046,-2407,-112,-92,22,199,449,-315,1,0,27,54,680,1,53298,1
592,2,32003,30981,32680,41831,34243,-3753,-1047,-2387,-370,-195,85,198,454,-320,1,0,27,54,720,1,53298,1
593,2,32000,30979,32678,41832,34245,-3798,-1023,-2358,-128,-167,159,192,456,-322,1,0,27,54,760,1,53298,1
594,2,31997,30975,32669,41833,34248,-3773,-968,-2357,102,-8,77,202,448,-320,1,0,27,54,800,1,53298,1
595,2,31995,30975,32670,41834,34251,-3757,-1031,-2414,184,187,-156,191,451,-315,1,0,27,54,840,1,53298,1
596,2,31995,30973,32665,41835,34254,-3756,-1085,-2423,48,124,-130,199,461,-323,1,0,27,54,880,1,53298,1
597,2,31992,30976,32670,41836,34255,-3758,-1065,-2382,-123,-116,67,193,449,-321,1,0,27,54,920,1,53298,1
598,2,32000,30977,32670,41837,34257,-3766,-1000,-2381,-174,-156,208,194,454,-312,1,0,27,54,960,1,53298,1
599,1,31994,30975,32674,41838,0,-3767,-994,-2376,-120,-97,44,193,453,-315,1,0,27,55,0,1,53298,1
600,2,31995,30977,32669,41839,33689,-3775,-1051,-2371,-42,20,-115,196,446,-320,1,0,27,55,40,1,53298,1
601,2,31994,30977,32676,41840,33692,-3768,-1042,-2400,68,29,-55,187,445,-319,1,0,27,55,80,1,53298,1
602,2,31994,30979,32675,41841,33695,-3753,-1042,-2366,125,-91,39,196,452,-312,1,0,27,55,120,1,53298,1
603,2,32000,30984,32680,41842,33697,-3775,-1024,-2362,3,-38,87,191,449,-323,1,0,27,55,160,1,53298,1
604,2,32001,30983,32676,41843,33699,-3778,-1030,-2386,-53,58,67,190,446,-310,1,0,27,55,200,1,53298,1
605,2,32002,30983,32676,41844,33703,-3757,-1019,-2392,46,79,31,192,446,-312,1,0,27,55,240,1,53298,1
606,2,32000,30982,32677,41845,33706,-3751,-1029,-2398,138,69,-32,198,462,-310,1,0,27,55,280,1,53298,1
607,2,31998,30983,32677,41846,33708,-3762,-1049,-2403,87,36,-61,199,457,-325,1,0,27,55,320,1,53298,1
608,2,31998,30981,32671,41847,33711,-3754,-1038,-2379,13,-41,-27,198,444,-322,1,0,27,55,360,1,53298,1
609,2,32005,30982,32682,41848,33714,-3753,-1029,-2376,-11,-55,20,201,453,-319,1,0,27,55,400,1,53298,1
610,2,31997,30985,32675,41849,33715,-3767,-1015,-2385,-21,-46,13,189,457,-305,1,0,27,55,440,1,53298,1
611,2,32000,30986,32674,41850,33716,-3761,-1033,-2403,-46,-13,0,188,452,-316,1,0,27,55,480,1,53298,1
612,2,31994,30984,32672,41851,33718,-3763,-1040,-2393,-101,-36,25,195,449,-321,1,0,27,55,520,1,53298,1
613,2,31995,30985,32673,41852,33721,-3766,-1028,-2398,-33,-69,27,194,448,-326,1,0,27,55,560,1,53298,1
614,2,31992,30982,32670,41853,33723,-3762,-1020,-2375,11,-52,-8,199,451,-315,1,0,27,55,600,1,53298,1
615,2,31995,30982,32676,41854,33725,-3766,-1043,-2374,-15,-10,-35,201,449,-323,1,0,27,55,640,1,53298,1
616,2,31997,30982,32677,41855,33727,-3766,-1040,-2377,-44,5,12,197,449,-319,1,0,27,55,680,1,53298,1
617,2,32003,30984,32680,41856,33729,-3756,-1020,-2400,-54,-52,38,192,452,-324,1,0,27,55,720,1,53298,1
618,2,32002,30983,32678,41857,33731,-3759,-1023,-2386,-44,-70,-20,194,452,-322,1,0,27,55,760,1,53298,1
619,2,32002,30985,32678,41858,33733,-3770,-1039,-2373,-54,-22,-45,186,454,-320,1,0,27,55,800,1,53298,1
620,2,32002,30980,32676,41859,33735,-3761,-1028,-2380,40,0,2,196,448,-320,1,0,27,55,840,1,53298,1
621,2,31995,30979,32680,41860,33738,-3773,-1026,-2383,99,10,39,192,452,-314,1,0,27,55,880,1,53298,1
622,2,32002,30985,32680,41861,33741,-3754,-1019,-2403,-46,0,35,200,452,-312,1,0,27,55,920,1,53298,1
623,2,31998,30985,32675,41862,33743,-3765,-1049,-2393,-114,-59,18,197,451,-321,1,0,27,55,960,1,53298,1
624,1,31996,30984,32680,41863,0,-3768,-1018,-2378,-78,-100,26,197,453,-317,1,0,27,56,0,0,53298,1
625,2,31999,30978,32679,41864,33188,-3777,-1029,-2365,-9,-46,-18,197,455,-319,1,0,27,56,40,0,53298,1
626,2,31997,30979,32677,41865,33191,-3760,-1031,-2381,50,15,-52,195,449,-315,1,0,27,56,80,0,53298,1
627,2,32004,30982,32680,41866,33195,-3763,-1048,-2381,18,-6,-15,187,451,-319,1,0,27,56,120,0,53298,1
628,2,32003,30986,32679,41867,33199,-3778,-1040,-2373,-33,-43,35,191,451,-319,1,0,27,56,160,0,53298,1
629,2,32000,30982,32680,41868,33202,-3749,-1017,-2363,-39,-80,21,193,447,-323,1,0,27,56,200,0,53298,1
630,2,32001,30982,32677,41869,33205,-3769,-1033,-2378,-7,-30,-31,200,452,-322,1,0,27,56,240,0,53298,1
631,2,31999,30981,32675,41870,33209,-3772,-1047,-2374,11,-1,-27,192,448,-318,1,0,27,56,280,0,53298,1
632,2,31998,30980,32678,41871,33212,-3770,-1045,-2393,16,29,6,196,450,-308,1,0,27,56,320,0,53298,1
633,2,31997,30977,32676,41872,33215,-3764,-1024,-2386,-13,-4,42,187,447,-323,1,0,27,56,360,0,53298,1
634,2,31999,30980,32679,41873,33217,-3769,-1040,-2374,-55,-6,30,199,453,-321,1,0,27,56,400,0,53298,1
635,2,32002,30983,32680,41874,33220,-3766,-1017,-2389,-38,-24,36,202,448,-320,1,0,27,56,440,0,53298,1
636,2,31998,30980,32675,41875,33223,-3766,-1035,-2374,21,-51,-12,194,450,-318,1,0,27,56,480,0,53298,1
637,2,32001,30983,32678,41876,33225,-3762,-1028,-2374,12,22,-9,193,453,-303,1,0,27,56,520,0,53298,1
638,2,32008,30986,32678,41877,33227,-3772,-1029,-2387,50,36,0,195,449,-309,1,0,27,56,560,0,53298,1
639,2,31999,30982,32675,41878,33228,-3762,-1037,-2369,90,32,23,204,460,-322,1,0,27,56,600,0,53298,1
640,2,31999,30979,32673,41879,33231,-3770,-1032,-2387,97,35,19,189,455,-311,1,0,27,56,640,0,53298,1
641,2,32000,30978,32676,41880,33234,-3770,-1051,-2378,3,-12,10,196,448,-320,1,0,27,56,680,0,53298,1
642,2,32002,30984,32679,41881,33237,-3750,-1036,-2396,-60,-48,30,189,449,-317,1,0,27,56,720,0,53298,1
643,2,32000,30979,32679,41882,33240,-3776,-1028,-2392,-127,-77,32,200,446,-324,1,0,27,56,760,0,53298,1
644,2,31998,30981,32677,41883,33242,-3764,-1031,-2385,-207,-144,36,195,449,-313,1,0,27,56,800,0,53298,1
645,2,31999,30982,32677,41884,33245,-3783,-1038,-2375,-179,-157,51,194,448,-316,1,0,27,56,840,0,53298,1
646,2,31999,30985,32682,41885,33248,-3779,-1023,-2364,-73,-70,55,192,452,-316,1,0,27,56,880,0,53298,1
647,2,32000,30984,32678,41886,33250,-3767,-1013,-2370,98,67,12,190,454,-318,1,0,27,56,920,0,53298,1
648,2,32000,30985,32675,41887,33253,-3764,-1023,-2379,242,155,-51,194,440,-318,1,0,27,56,960,0,53298,1
649,1,32009,30985,32679,41888,0,-3755,-1026,-2394,189,139,-56,198,450,-320,1,0,27,57,0,0,53298,1
650,2,32011,30990,32684,41889,32686,-3739,-1057,-2367,-82,44,-12,194,450,-316,1,0,27,57,40,0,53298,1
651,2,32014,30989,32685,41890,32688,-3805,-1047,-2397,-271,37,76,185,449,-315,1,0,27,57,80,0,53298,1
652,2,32013,30995,32689,41891,32691,-3726,-993,-2431,-91,-166,149,196,450,-326,1,0,27,57,120,0,53298,1
653,2,32010,30995,32691,41892,32693,-3776,-1043,-2343,168,-168,-42,192,448,-320,1,0,27,57,160,0,53298,1
654,2,32010,30993,32686,41893,32695,-3809,-1013,-2397,63,25,-45,196,446,-316,1,0,27,57,200,0,53298,1
655,2,32012,30990,32686,41894,32697,-3724,-1088,-2379,23,123,-79,199,447,-313,1,0,27,57,240,0,53298,1
656,2,32008,30992,32686,41895,32700,-3775,-1051,-2415,-102,94,49,188,448,-324,1,0,27,57,280,0,53298,1
657,2,32006,30993,32680,41896,32703,-3777,-973,-2379,204,-97,114,187,447,-317,1,0,27,57,320,0,53298,1
658,2,32010,31000,32690,41897,32705,-3775,-1040,-2367,78,-3,-114,194,448,-312,1,0,27,57,360,0,53298,1
659,2,32011,30997,32687,41898,32708,-3775,-1058,-2392,-298,20,-124,198,452,-322,1,0,27,57,400,0,53298,1
660,2,32018,31000,32693,41899,32711,-3740,-1057,-2402,13,-77,46,197,457,-307,1,0,27,57,440,0,53298,1
661,2,32014,30999,32694,41900,32713,-3766,-1011,-2360,-4,-96,112,194,438,-316,1,0,27,57,480,0,53298,1
662,2,32012,30996,32689,41901,32717,-3773,-1012,-2369,-23,-21,33,194,446,-304,1,0,27,57,520,0,53298,1
663,2,32011,30995,32689,41902,32720,-3756,-1039,-2382,76,39,-42,196,448,-312,1,0,27,57,560,0,53298,1
664,2,32010,30997,32687,41903,32722,-3766,-1045,-2396,18,22,-15,195,445,-313,1,0,27,57,600,0,53298,1
665,2,32008,31000,32683,41904,32726,-3774,-1039,-2358,0,-34,33,197,451,-315,1,0,27,57,640,0,53298,1
666,2,32017,31000,32691,41905,32728,-3764,-1019,-2362,-72,-42,42,197,447,-315,1,0,27,57,680,0,53298,1
667,2,32009,30997,32685,41906,32732,-3761,-1029,-2365,-27,13,9,197,441,-315,1,0,27,57,720,0,53298,1
668,2,32011,30997,32692,41907,32735,-3767,-1044,-2388,41,8,-32,192,448,-322,1,0,27,57,760,0,53298,1
669,2,32013,30998,32690,41908,32739,-3753,-1028,-2385,37,-12,-18,193,447,-311,1,0,27,57,800,0,53298,1
670,2,32006,30996,32689,41909,32743,-3776,-1040,-2378,-2,-25,11,195,445,-319,1,0,27,57,840,0,53298,1
671,2,32012,30996,32692,41910,32747,-3768,-1029,-2364,-48,-32,25,191,449,-325,1,0,27,57,880,0,53298,1
672,2,32010,30997,32690,41911,32751,-3753,-1022,-2370,-23,-33,28,188,454,-308,1,0,27,57,920,0,53298,1
673,2,32011,31000,32690,41912,32755,-3761,-1029,-2390,0,3,11,204,450,-316,1,0,27,57,960,0,53298,1
674,1,32014,31000,32692,41913,0,-3765,-1037,-2407,-3,-1,6,202,448,-316,1,0,27,58,0,0,53298,1
675,2,32012,31000,32691,41914,32185,-3766,-1036,-2377,1,-32,20,196,450,-322,1,0,27,58,40,0,53298,1
676,2,32007,30998,32685,41915,32189,-3773,-1032,-2364,-6,-26,11,195,447,-317,1,0,27,58,80,0,53298,1
677,2,32009,31002,32687,41916,32194,-3761,-1016,-2379,3,-13,-14,189,445,-313,1,0,27,58,120,0,53298,1
678,2,32008,31000,32684,41917,32198,-3765,-1033,-2384,7,0,-12,192,454,-316,1,0,27,58,160,0,53298,1
679,2,32008,31000,32686,41918,32201,-3772,-1042,-2382,-11,-15,3,189,455,-317,1,0,27,58,200,0,53298,1
680,2,32006,31000,32682,41919,32204,-3764,-1026,-2383,0,-23,24,193,443,-307,1,0,27,58,240,0,53298,1
681,2,32008,31000,32685,41920,32207,-3773,-1031,-2389,14,0,21,197,455,-327,1,0,27,58,280,0,53298,1
682,2,32009,31006,32688,41921,32210,-3762,-1050,-2392,-5,14,10,191,457,-309,1,0,27,58,320,0,53298,1
683,2,32009,31004,32686,41922,32213,-3760,-1030,-2393,-36,-21,37,198,452,-318,1,0,27,58,360,0,53298,1
684,2,32013,31003,32693,41923,32217,-3777,-1032,-2359,-27,-59,27,192,450,-320,1,0,27,58,400,0,53298,1
685,2,32010,31004,32689,41924,32221,-3771,-1028,-2369,-3,-31,4,192,454,-312,1,0,27,58,440,0,53298,1
686,2,32004,31003,32685,41925,32226,-3772,-1033,-2380,11,-2,-12,194,456,-322,1,0,27,58,480,0,53298,1
687,2,32005,31002,32683,41926,32230,-3763,-1040,-2379,14,3,6,195,455,-323,1,0,27,58,520,0,53298,1
688,2,32005,31002,32684,41927,32235,-3773,-1027,-2377,2,-1,16,198,450,-322,1,0,27,58,560,0,53298,1
689,2,32003,31001,32683,41928,32238,-3769,-1032,-2389,-7,-9,8,197,463,-315,1,0,27,58,600,0,53298,1
690,2,32004,31004,32682,41929,32242,-3764,-1023,-2386,-15,-23,2,195,449,-313,1,0,27,58,640,0,53298,1
691,2,32010,31006,32686,41930,32246,-3766,-1025,-2365,-4,-23,7,200,450,-330,1,0,27,58,680,0,53298,1
692,2,32008,31005,32687,41931,32249,-3768,-1047,-2389,19,-8,11,194,446,-312,1,0,27,58,720,0,53298,1
693,2,32012,31006,32685,41932,32252,-3759,-1036,-2386,7,-10,7,194,446,-324,1,0,27,58,760,0,53298,1
694,2,32011,31007,32686,41933,32255,-3755,-1035,-2387,3,0,3,193,455,-327,1,0,27,58,800,0,53298,1
695,2,32015,31009,32688,41934,32258,-3775,-1040,-2369,-7,-20,9,198,442,-312,1,0,27,58,840,0,53298,1
696,2,32016,31012,32692,41935,32261,-3763,-1028,-2390,-13,-20,19,197,453,-321,1,0,27,58,880,0,53298,1
697,2,32012,31007,32688,41936,32265,-3758,-1035,-2386,-15,-20,9,194,456,-316,1,0,27,58,920,0,53298,1
698,2,32013,31010,32685,41937,32269,-3768,-1037,-2385,-6,2,3,190,450,-312,1,0,27,58,960,0,53298,1
699,1,32009,31012,32691,41938,0,-3770,-1038,-2377,6,-16,17,196,450,-316,1,0,27,59,0,0,53298,1
700,2,32011,31010,32686,41939,31684,-3767,-1027,-2379,12,-17,11,192,454,-324,1,0,27,59,40,0,53298,1
701,2,32012,31011,32688,41940,31687,-3758,-1036,-2385,-18,16,6,187,445,-309,1,0,27,59,80,0,53298,1
702,2,32010,31010,32687,41941,31690,-3761,-1036,-2395,-31,-14,24,192,454,-310,1,0,27,59,120,0,53298,1
703,2,32010,31010,32686,41942,31693,-3774,-1026,-2379,16,-40,27,203,447,-317,1,0,27,59,160,0,53298,1
704,2,32009,31007,32685,41943,31697,-3759,-1026,-2388,-69,-63,20,191,445,-321,1,0,27,59,200,0,53298,1
705,2,32006,31010,32684,41944,31700,-3759,-1054,-2387,-149,-94,47,196,454,-316,1,0,27,59,240,0,53298,1
706,2,32006,31012,32689,41945,31703,-3784,-1023,-2370,-89,-92,81,190,452,-328,1,0,27,59,280,0,53298,1
707,2,32012,31014,32695,41946,31707,-3770,-1011,-2363,-65,-60,50,191,455,-311,1,0,27,59,320,0,53298,1
708,2,32015,31013,32690,41947,31711,-3767,-1032,-2398,-22,15,-23,199,455,-317,1,0,27,59,360,0,53298,1
709,2,32022,31017,32700,41948,31714,-3765,-1044,-2402,-92,11,4,194,456,-316,1,0,27,59,400,0,53298,1
710,2,32019,31016,32687,41949,31717,-3772,-1023,-2372,22,-12,37,193,453,-313,1,0,27,59,440,0,53298,1
711,2,32015,31016,32685,41950,31721,-3786,-1002,-2346,270,91,-27,192,454,-316,1,0,27,59,480,0,53298,1
712,2,32007,31012,32680,41951,31726,-3793,-1006,-2361,583,237,-189,192,448,-322,1,0,27,59,520,0,53298,1
713,2,32011,31009,32683,41952,31730,-3732,-1073,-2475,132,140,-232,193,453,-323,1,0,27,59,560,0,53298,1
714,2,32012,31008,32678,41953,31734,-3719,-1127,-2450,-901,-325,113,185,447,-319,1,0,27,59,600,0,53298,1
715,2,32014,31015,32693,41954,31737,-3801,-1016,-2310,-627,-557,540,189,451,-305,1,0,27,59,640,0,53298,1
716,2,32013,31014,32695,41955,31740,-3803,-916,-2332,-115,-207,432,195,445,-327,1,0,27,59,680,0,53298,1
717,2,32009,31012,32690,41956,31744,-3775,-959,-2346,352,247,-146,190,440,-308,1,0,27,59,720,0,53298,1
718,2,32017,31012,32685,41957,31747,-3764,-1076,-2428,393,518,-568,193,457,-305,1,0,27,59,760,0,53298,1
719,2,32010,31015,32689,41958,31751,-3744,-1085,-2414,448,238,-290,190,454,-312,1,0,27,59,800,0,53298,1
720,2,32010,31013,32687,41959,31755,-3744,-1043,-2388,209,-75,56,195,445,-315,1,0,27,59,840,0,53298,1
721,2,32012,31015,32687,41960,31758,-3785,-985,-2353,-396,-284,219,188,442,-314,1,0,27,59,880,0,53298,1
722,2,32014,31012,32688,41961,31762,-3763,-1061,-2382,-782,-362,215,197,451,-323,1,0,27,59,920,0,53298,1
723,2,32010,31016,32697,41962,31766,-3797,-1039,-2339,-435,-307,245,188,452,-314,1,0,27,59,960,0,53298,1
724,1,32011,31015,32691,41963,0,-3800,-946,-2317,109,-27,176,192,448,-326,1,0,28,0,0,0,53298,1
725,2,32014,31016,32691,41964,31183,-3758,-990,-2387,417,304,-149,198,452,-318,1,0,28,0,40,0,53298,1
726,2,32022,31017,32692,41965,31187,-3750,-1054,-2410,237,323,-308,199,451,-321,1,0,28,0,80,0,53298,1
727,2,32009,31017,32687,41966,31190,-3748,-1090,-2416,132,88,-99,194,452,-316,1,0,28,0,120,0,53298,1
728,2,32008,31015,32690,41967,31194,-3766,-1018,-2359,91,-147,116,195,447,-309,1,0,28,0,160,0,53298,1
729,2,32012,31014,32689,41968,31198,-3795,-988,-2371,-12,-142,51,195,447,-319,1,0,28,0,200,0,53298,1
730,2,32014,31014,32690,41969,31202,-3746,-1033,-2396,-262,-68,-33,197,451,-325,1,0,28,0,240,0,53298,1
731,2,32015,31014,32690,41970,31206,-3773,-1053,-2371,-214,-102,28,200,450,-316,1,0,28,0,280,0,53298,1
732,2,32013,31015,32692,41971,31209,-3803,-1004,-2361,16,-64,155,195,451,-315,1,0,28,0,320,0,53298,1
733,2,32011,31013,32690,41972,31213,-3764,-983,-2354,155,82,54,189,453,-315,1,0,28,0,360,0,53298,1
734,2,32010,31015,32687,41973,31217,-3758,-1031,-2397,144,201,-147,196,454,-314,1,0,28,0,400,0,53298,1
735,2,32018,31015,32691,41974,31221,-3761,-1057,-2411,102,116,-129,196,452,-328,1,0,28,0,440,0,53298,1
736,2,32017,31015,32690,41975,31226,-3761,-1029,-2389,109,-53,11,187,457,-317,1,0,28,0,480,0,53298,1
737,2,32020,31014,32698,41976,31230,-3768,-1013,-2360,18,-104,21,191,445,-305,1,0,28,0,520,0,53298,1
738,2,32016,31015,32692,41977,31234,-3776,-1033,-2369,-53,-28,-44,188,460,-322,1,0,28,0,560,0,53298,1
739,2,32013,31016,32687,41978,31238,-3779,-1047,-2357,8,-8,-14,186,452,-308,1,0,28,0,600,0,53298,1
740,2,32014,31015,32687,41979,31242,-3768,-1022,-2368,92,28,42,200,456,-308,1,0,28,0,640,0,53298,1
741,2,32014,31017,32691,41980,31245,-3755,-1029,-2392,-7,56,3,189,449,-315,1,0,28,0,680,0,53298,1
742,2,32020,31020,32700,41981,31249,-3760,-1039,-2397,-96,-22,9,189,451,-319,1,0,28,0,720,0,53298,1
743,2,32022,31018,32697,41982,31252,-3775,-1032,-2382,-54,-85,55,189,455,-319,1,0,28,0,760,0,53298,1
744,2,32016,31019,32697,41983,31256,-3760,-1008,-2356,-4,-70,35,190,454,-314,1,0,28,0,800,0,53298,1
745,2,32015,31016,32688,41984,31259,-3768,-1026,-2380,37,26,-27,196,456,-312,1,0,28,0,840,0,53298,1
746,2,32020,31017,32695,41985,31262,-3765,-1040,-2393,50,39,-34,196,452,-320,1,0,28,0,880,0,53298,1
747,2,32016,31018,32695,41986,31265,-3771,-1039,-2380,32,-11,1,193,447,-321,1,0,28,0,920,0,53298,1
748,2,32020,31022,32700,41987,31268,-3757,-1030,-2398,-35,-24,36,202,454,-310,1,0,28,0,960,0,53298,1
749,1,32017,31016,32693,41988,0,-3769,-1033,-2371,-50,-26,29,198,452,-318,1,0,28,1,0,1,53298,1
750,2,32018,31017,32691,41989,30681,-3769,-1036,-2370,-21,-26,14,201,457,-321,1,0,28,1,40,1,53298,1
751,2,32015,31016,32691,41990,30684,-3769,-1038,-2359,29,-19,1,191,453,-323,1,0,28,1,80,1,53298,1
752,2,32014,31013,32691,41991,30687,-3766,-1028,-2375,19,1,-1,199,449,-325,1,0,28,1,120,1,53298,1
753,2,32015,31016,32695,41992,30690,-3768,-1029,-2407,-9,-12,19,200,450,-322,1,0,28,1,160,1,53298,1
754,2,32015,31018,32693,41993,30694,-3767,-1023,-2402,-15,-26,10,196,450,-314,1,0,28,1,200,1,53298,1
755,2,32019,31019,32692,41994,30697,-3768,-1039,-2367,-11,-36,-2,195,453,-317,1,0,28,1,240,1,53298,1
756,2,32013,31015,32688,41995,30700,-3767,-1030,-2367,-16,-14,20,203,459,-313,1,0,28,1,280,1,53298,1
757,2,32007,31016,32685,41996,30704,-3774,-1042,-2389,-28,14,42,196,448,-314,1,0,28,1,320,1,53298,1
758,2,32018,31019,32695,41997,30707,-3776,-1038,-2389,-10,-5,5,190,454,-302,1,0,28,1,360,1,53298,1
759,2,32017,31020,32695,41998,30710,-3764,-1032,-2379,18,-20,-14,193,459,-317,1,0,28,1,400,1,53298,1
760,2,32021,31020,32695,41999,30713,-3764,-1022,-2372,9,-21,-13,201,453,-321,1,0,28,1,440,1,53298,1
761,2,32017,31018,32687,42000,30716,-3774,-1032,-2384,-21,-7,8,192,448,-320,1,0,28,1,480,1,53298,1
762,2,32009,31014,32687,42001,30720,-3762,-1022,-2384,-21,-6,21,194,456,-322,1,0,28,1,520,1,53298,1
763,2,32011,31017,32689,42002,30724,-3760,-1021,-2382,24,3,2,194,452,-320,1,0,28,1,560,1,53298,1
764,2,32013,31016,32691,42003,30728,-3772,-1028,-2393,7,-23,-20,199,447,-325,1,0,28,1,600,1,53298,1
765,2,32012,31017,32693,42004,30732,-3753,-1043,-2374,-44,-66,39,199,445,-327,1,0,28,1,640,1,53298,1
766,2,32020,31017,32695,42005,30735,-3789,-1052,-2388,-60,-19,80,198,454,-326,1,0,28,1,680,1,53298,1
767,2,32023,31020,32702,42006,30739,-3788,-1019,-2384,14,20,38,197,455,-323,1,0,28,1,720,1,53298,1
768,2,32025,31022,32703,42007,30742,-3761,-1023,-2390,94,26,-57,188,444,-314,1,0,28,1,760,1,53298,1
769,2,32028,31025,32699,42008,30744,-3764,-1041,-2372,35,-16,-50,201,453,-319,1,0,28,1,800,1,53298,1
770,2,32022,31022,32703,42009,30747,-3778,-1033,-2381,-30,-6,8,192,448,-320,1,0,28,1,840,1,53298,1
771,2,32024,31019,32697,42010,30750,-3773,-1020,-2390,-32,-6,33,195,451,-315,1,0,28,1,880,1,53298,1
772,2,32022,31021,32699,42011,30752,-3752,-1035,-2385,41,21,0,189,441,-305,1,0,28,1,920,1,53298,1
773,2,32024,31021,32704,42012,30755,-3761,-1030,-2385,32,-9,7,193,441,-317,1,0,28,1,960,1,53298,1
774,1,32026,31022,32704,42013,0,-3770,-1034,-2377,6,-31,31,195,453,-313,1,0,28,2,0,0,53298,1
775,2,32023,31021,32701,42014,30181,-3763,-1025,-2385,-34,-29,30,203,457,-315,1,0,28,2,40,0,53298,1
776,2,32025,31023,32697,42015,30183,-3757,-1029,-2400,-14,-11,0,194,452,-310,1,0,28,2,80,0,53298,1
777,2,32025,31023,32703,42016,30185,-3778,-1045,-2384,15,-15,-5,202,454,-318,1,0,28,2,120,0,53298,1
778,2,32026,31024,32698,42017,30188,-3760,-1030,-2372,3,-2,7,196,454,-322,1,0,28,2,160,0,53298,1
779,2,32029,31026,32707,42018,30189,-3754,-1031,-2380,-10,7,6,194,452,-314,1,0,28,2,200,0,53298,1
780,2,32025,31022,32699,42019,30192,-3754,-1022,-2390,-5,-19,26,199,461,-319,1,0,28,2,240,0,53298,1
781,2,32029,31025,32704,42020,30194,-3766,-1044,-2397,-60,-39,25,196,454,-314,1,0,28,2,280,0,53298,1
782,2,32032,31025,32715,42021,30197,-3786,-1036,-2381,-101,-97,41,191,453,-321,1,0,28,2,320,0,53298,1
783,2,32035,31029,32717,42022,30199,-3762,-1017,-2370,-25,-103,50,200,452,-320,1,0,28,2,360,0,53298,1
784,2,32034,31027,32711,42023,30201,-3759,-1029,-2374,92,41,-14,191,453,-321,1,0,28,2,400,0,53298,1
785,2,32036,31027,32711,42024,30203,-3769,-1022,-2375,245,169,-86,192,452,-316,1,0,28,2,440,0,53298,1
786,2,32040,31032,32706,42025,30206,-3749,-1057,-2415,254,190,-109,199,449,-319,1,0,28,2,480,0,53298,1
787,2,32036,31024,32708,42026,30209,-3735,-1070,-2437,-264,-70,7,198,456,-318,1,0,28,2,520,0,53298,1
788,2,32032,31027,32711,42027,30212,-3771,-1059,-2376,-466,-326,235,198,454,-318,1,0,28,2,560,0,53298,1
789,2,32026,31025,32713,42028,30214,-3805,-958,-2314,-161,-263,263,203,447,-319,1,0,28,2,600,0,53298,1
790,2,32023,31020,32705,42029,30216,-3783,-968,-2346,388,86,-122,203,455,-321,1,0,28,2,640,0,53298,1
791,2,32035,31025,32705,42030,30218,-3716,-1073,-2437,145,344,-382,195,445,-315,1,0,28,2,680,0,53298,1
792,2,32036,31030,32709,42031,30220,-3744,-1127,-2445,-65,88,-105,199,449,-317,1,0,28,2,720,0,53298,1
793,2,32022,31025,32706,42032,30223,-3793,-1030,-2378,-43,-206,314,197,449,-315,1,0,28,2,760,0,53298,1
794,2,32027,31026,32711,42033,30225,-3762,-929,-2338,-39,-178,300,197,457,-319,1,0,28,2,800,0,53298,1
795,2,32029,31023,32704,42034,30227,-3727,-1017,-2415,-344,16,-17,197,455,-321,1,0,28,2,840,0,53298,1
796,2,32028,31024,32701,42035,30229,-3764,-1074,-2412,-605,-169,41,189,449,-317,1,0,28,2,880,0,53298,1
797,2,32026,31025,32711,42036,30231,-3764,-1023,-2346,-507,-473,295,192,450,-320,1,0,28,2,920,0,53298,1
798,2,32022,31020,32704,42037,30232,-3800,-947,-2319,-130,-337,250,187,453,-317,1,0,28,2,960,0,53298,1
799,1,32025,31020,32697,42038,0,-3808,-960,-2332,106,120,-25,196,444,-320,1,0,28,3,0,1,53298,1
800,2,32026,31023,32701,42039,29680,-3764,-1023,-2424,205,398,-269,191,455,-313,1,0,28,3,40,1,53298,1
801,2,32026,31021,32699,42040,29683,-3762,-1085,-2384,162,241,-165,190,444,-310,1,0,28,3,80,1,53298,1
802,2,32030,31024,32707,42041,29685,-3800,-1036,-2384,-63,128,160,194,452,-310,1,0,28,3,120,1,53298,1
803,2,32031,31025,32701,42042,29687,-3754,-939,-2408,-192,16,279,193,461,-313,1,0,28,3,160,1,53298,1
804,2,32033,31025,32705,42043,29689,-3740,-989,-2408,-323,-51,102,200,446,-326,1,0,28,3,200,1,53298,1
805,2,32024,31024,32702,42044,29692,-3759,-1024,-2414,-255,-175,-27,194,448,-318,1,0,28,3,240,1,53298,1
806,2,32027,31026,32704,42045,29695,-3796,-1001,-2373,72,-270,-87,199,459,-321,1,0,28,3,280,1,53298,1
807,2,32026,31023,32703,42046,29698,-3792,-985,-2332,142,-166,-102,197,443,-323,1,0,28,3,320,1,53298,1
808,2,32022,31022,32703,42047,29701,-3766,-1008,-2360,15,23,-49,192,452,-314,1,0,28,3,360,1,53298,1
809,2,32022,31019,32699,42048,29704,-3774,-1023,-2387,43,75,31,195,459,-321,1,0,28,3,400,1,53298,1
810,2,32026,31022,32705,42049,29707,-3777,-994,-2384,71,40,84,194,452,-314,1,0,28,3,440,1,53298,1
811,2,32023,31020,32700,42050,29710,-3765,-998,-2382,-19,5,45,200,448,-316,1,0,28,3,480,1,53298,1
812,2,32022,31022,32699,42051,29712,-3767,-1004,-2384,-23,13,3,200,452,-320,1,0,28,3,520,1,53298,1
813,2,32027,31022,32699,42052,29716,-3780,-1002,-2397,31,32,-10,192,444,-318,1,0,28,3,560,1,53298,1
814,2,32022,31020,32694,42053,29718,-3777,-1013,-2388,-36,-30,3,193,453,-309,1,0,28,3,600,1,53298,1
815,2,32018,31020,32691,42054,29720,-3776,-1002,-2379,-62,-110,45,198,454,-324,1,0,28,3,640,1,53298,1
816,2,32012,31017,32690,42055,29723,-3791,-993,-2354,-30,-83,60,195,453,-313,1,0,28,3,680,1,53298,1
817,2,32018,31016,32693,42056,29725,-3783,-986,-2379,25,19,8,189,459,-331,1,0,28,3,720,1,53298,1
818,2,32016,31017,32691,42057,29728,-3779,-1008,-2392,82,79,-56,196,452,-322,1,0,28,3,760,1,53298,1
819,2,32019,31017,32695,42058,29731,-3778,-1005,-2371,60,17,-39,200,452,-324,1,0,28,3,800,1,53298,1
820,2,32020,31018,32696,42059,29733,-3762,-1008,-2373,-26,-26,43,189,455,-315,1,0,28,3,840,1,53298,1
821,2,32017,31018,32695,42060,29735,-3769,-998,-2365,-70,-46,41,189,449,-315,1,0,28,3,880,1,53298,1
822,2,32016,31019,32690,42061,29737,-3790,-998,-2375,-70,-64,32,195,449,-313,1,0,28,3,920,1,53298,1
823,2,32016,31021,32689,42062,29739,-3782,-1001,-2364,25,-37,9,188,452,-318,1,0,28,3,960,1,53298,1
824,1,32013,31019,32695,42063,0,-3781,-1002,-2381,69,40,-35,191,451,-321,1,0,28,4,0,0,53298,1
825,2,32013,31019,32695,42064,29179,-3787,-1022,-2392,28,34,-34,197,447,-313,1,0,28,4,40,0,53298,1
826,2,32022,31025,32709,42065,29182,-3765,-1010,-2375,-40,-45,30,198,454,-318,1,0,28,4,80,0,53298,1
827,2,32030,31026,32699,42066,29184,-3765,-984,-2366,-62,-57,79,190,452,-316,1,0,28,4,120,0,53298,1
828,2,32025,31022,32695,42067,29187,-3780,-992,-2378,-55,-13,33,188,448,-320,1,0,28,4,160,0,53298,1
829,2,32026,31025,32703,42068,29188,-3771,-1000,-2362,-37,-28,-9,185,455,-305,1,0,28,4,200,0,53298,1
830,2,32023,31022,32704,42069,29191,-3787,-1022,-2374,11,-17,-22,188,448,-308,1,0,28,4,240,0,53298,1
831,2,32024,31022,32701,42070,29193,-3779,-999,-2377,13,-17,5,193,445,-321,1,0,28,4,280,0,53298,1
832,2,32026,31025,32710,42071,29195,-3783,-1007,-2368,-16,-15,18,195,455,-319,1,0,28,4,320,0,53298,1
833,2,32024,31024,32699,42072,29196,-3759,-996,-2386,-37,-22,21,183,449,-313,1,0,28,4,360,0,53298,1
834,2,32023,31023,32702,42073,29197,-3782,-1006,-2381,2,-43,-11,183,449,-301,1,0,28,4,400,0,53298,1
835,2,32027,31025,32700,42074,29198,-3778,-1003,-2369,24,-46,-19,193,447,-311,1,0,28,4,440,0,53298,1
836,2,32024,31024,32698,42075,29200,-3781,-996,-2362,11,-21,-9,193,455,-319,1,0,28,4,480,0,53298,1
837,2,32027,31028,32705,42076,29201,-3790,-1014,-2374,-35,-5,22,195,451,-313,1,0,28,4,520,0,53298,1
838,2,32030,31030,32712,42077,29203,-3782,-1008,-2393,-22,16,46,184,444,-318,1,0,28,4,560,0,53298,1
839,2,32032,31028,32704,42078,29205,-3770,-985,-2379,-7,9,25,194,454,-328,1,0,28,4,600,0,53298,1
840,2,32036,31027,32704,42079,29206,-3778,-1016,-2379,18,-6,-9,192,450,-312,1,0,28,4,640,0,53298,1
841,2,32030,31028,32700,42080,29208,-3774,-1003,-2367,11,-45,-5,193,451,-317,1,0,28,4,680,0,53298,1
842,2,32028,31025,32705,42081,29210,-3767,-993,-2371,19,-30,7,203,447,-317,1,0,28,4,720,0,53298,1
843,2,32030,31029,32707,42082,29212,-3770,-999,-2362,-2,10,14,200,454,-310,1,0,28,4,760,0,53298,1
844,2,32027,31025,32697,42083,29214,-3772,-1000,-2394,-26,35,23,194,446,-316,1,0,28,4,800,0,53298,1
845,2,32030,31025,32706,42084,29215,-3782,-997,-2373,-37,-24,30,185,449,-323,1,0,28,4,840,0,53298,1
846,2,32025,31025,32707,42085,29217,-3784,-1002,-2379,-10,-66,22,184,454,-304,1,0,28,4,880,0,53298,1
847,2,32027,31027,32711,42086,29218,-3775,-997,-2381,-5,-23,0,198,452,-318,1,0,28,4,920,0,53298,1
848,2,32022,31028,32702,42087,29219,-3773,-988,-2379,-8,11,-15,188,444,-316,1,0,28,4,960,0,53298,1
849,1,32026,31024,32702,42088,0,-3792,-999,-2366,16,-17,15,189,453,-315,1,0,28,5,0,0,53298,1
850,2,32031,31026,32700,42089,28679,-3751,-1013,-2386,20,31,-11,190,446,-314,1,0,28,5,40,0,53298,1
851,2,32031,31028,32710,42090,28680,-3781,-1024,-2396,45,37,2,188,452,-316,1,0,28,5,80,0,53298,1
852,2,32029,31027,32702,42091,28683,-3783,-994,-2384,64,6,60,188,446,-312,1,0,28,5,120,0,53298,1
853,2,32027,31024,32702,42092,28685,-3771,-978,-2358,-56,-70,92,186,452,-306,1,0,28,5,160,0,53298,1
854,2,32022,31027,32707,42093,28688,-3769,-983,-2375,-77,-96,49,192,446,-314,1,0,28,5,200,0,53298,1
855,2,32019,31024,32698,42094,28690,-3782,-991,-2350,16,-80,-33,189,445,-315,1,0,28,5,240,0,53298,1
856,2,32022,31023,32701,42095,28692,-3775,-1000,-2360,71,-1,-92,189,455,-313,1,0,28,5,280,0,53298,1
857,2,32027,31023,32708,42096,28695,-3755,-1001,-2393,50,30,-116,189,455,-313,1,0,28,5,320,0,53298,1
858,2,32028,31026,32709,42097,28698,-3789,-1021,-2402,-69,-85,-57,190,454,-322,1,0,28,5,360,0,53298,1
859,2,32031,31028,32714,42098,28700,-3814,-1019,-2356,-142,-187,52,193,453,-323,1,0,28,5,400,0,53298,1
860,2,32025,31027,32709,42099,28703,-3785,-976,-2330,-83,-39,100,200,458,-318,1,0,28,5,440,0,53298,1
861,2,32032,31025,32708,42100,28706,-3780,-991,-2363,127,190,8,190,450,-322,1,0,28,5,480,0,53298,1
862,2,32030,31028,32705,42101,28710,-3766,-1034,-2400,62,235,-28,194,448,-320,1,0,28,5,520,0,53298,1
863,2,32030,31029,32699,42102,28714,-3761,-1000,-2414,-31,24,77,181,453,-325,1,0,28,5,560,0,53298,1
864,2,32028,31032,32711,42103,28718,-3754,-990,-2383,-66,-141,99,184,454,-308,1,0,28,5,600,0,53298,1
865,2,32037,31031,32716,42104,28721,-3791,-979,-2352,-98,-114,40,194,440,-312,1,0,28,5,640,0,53298,1
866,2,32037,31034,32711,42105,28723,-3775,-998,-2384,24,18,-6,188,448,-320,1,0,28,5,680,0,53298,1
867,2,32037,31035,32710,42106,28726,-3768,-1015,-2381,133,105,-16,203,453,-313,1,0,28,5,720,0,53298,1
868,2,32035,31031,32710,42107,28729,-3782,-1002,-2384,140,52,-19,193,445,-319,1,0,28,5,760,0,53298,1
869,2,32041,31032,32720,42108,28732,-3777,-999,-2370,156,-2,-20,191,457,-315,1,0,28,5,800,0,53298,1
870,2,32042,31034,32720,42109,28736,-3759,-995,-2391,121,17,-39,192,450,-322,1,0,28,5,840,0,53298,1
871,2,32040,31031,32711,42110,28739,-3771,-1004,-2361,53,16,-57,198,448,-306,1,0,28,5,880,0,53298,1
872,2,32039,31035,32711,42111,28742,-3795,-1051,-2359,161,52,-34,197,451,-315,1,0,28,5,920,0,53298,1
873,2,32038,31031,32715,42112,28745,-3755,-1049,-2437,85,69,-47,195,451,-311,1,0,28,5,960,0,53298,1
874,1,32044,31036,32715,42113,0,-3773,-1028,-2416,-71,-3,-11,185,441,-321,1,0,28,6,0,0,53298,1
875,2,32044,31033,32714,42114,28180,-3764,-1020,-2375,-206,-149,54,195,459,-319,1,0,28,6,40,0,53298,1
876,2,32040,31033,32714,42115,28182,-3791,-1009,-2337,-139,-143,126,198,452,-320,1,0,28,6,80,0,53298,1
877,2,32039,31031,32722,42116,28185,-3785,-966,-2360,32,-9,82,201,455,-313,1,0,28,6,120,0,53298,1
878,2,32041,31034,32720,42117,28187,-3785,-1009,-2380,185,128,-88,186,456,-316,1,0,28,6,160,0,53298,1
879,2,32042,31032,32711,42118,28190,-3777,-1043,-2396,125,114,-115,194,448,-314,1,0,28,6,200,0,53298,1
880,2,32047,31033,32724,42119,28192,-3756,-1018,-2378,69,14,-9,190,450,-308,1,0,28,6,240,0,53298,1
881,2,32039,31035,32724,42120,28195,-3766,-994,-2377,95,-37,18,195,451,-325,1,0,28,6,280,0,53298,1
882,2,32047,31036,32713,42121,28198,-3776,-1021,-2370,62,6,-72,194,456,-318,1,0,28,6,320,0,53298,1
883,2,32051,31035,32729,42122,28201,-3778,-1038,-2385,72,26,-79,191,445,-323,1,0,28,6,360,0,53298,1
884,2,32042,31033,32712,42123,28203,-3764,-1038,-2379,-18,-41,-7,189,455,-325,1,0,28,6,400,0,53298,1
885,2,32043,31035,32721,42124,28206,-3774,-1012,-2371,-122,-68,91,192,446,-320,1,0,28,6,440,0,53298,1
886,2,32045,31034,32720,42125,28209,-3789,-1011,-2368,-86,-42,98,185,453,-325,1,0,28,6,480,0,53298,1
887,2,32044,31034,32715,42126,28212,-3759,-1000,-2386,-12,26,29,185,453,-317,1,0,28,6,520,0,53298,1
888,2,32042,31033,32717,42127,28216,-3768,-1013,-2390,47,30,-40,193,447,-319,1,0,28,6,560,0,53298,1
889,2,32048,31034,32725,42128,28220,-3764,-1021,-2392,34,-19,-14,190,454,-316,1,0,28,6,600,0,53298,1
890,2,32040,31033,32722,42129,28223,-3769,-1016,-2375,-7,-44,29,197,459,-311,1,0,28,6,640,0,53298,1
891,2,32043,31033,32713,42130,28227,-3771,-1004,-2361,-35,-26,27,189,445,-317,1,0,28,6,680,0,53298,1
892,2,32040,31032,32719,42131,28231,-3766,-1012,-2400,-7,-12,6,189,445,-323,1,0,28,6,720,0,53298,1
893,2,32038,31031,32715,42132,28235,-3770,-1024,-2379,11,-6,-6,191,451,-325,1,0,28,6,760,0,53298,1
894,2,32038,31030,32712,42133,28237,-3766,-1018,-2390,-9,-11,5,193,453,-319,1,0,28,6,800,0,53298,1
895,2,32043,31031,32712,42134,28241,-3776,-1017,-2378,4,-23,18,189,449,-321,1,0,28,6,840,0,53298,1
896,2,32044,31034,32723,42135,28245,-3774,-1018,-2377,1,-26,14,187,457,-313,1,0,28,6,880,0,53298,1
897,2,32038,31030,32721,42136,28249,-3775,-1009,-2393,-13,-3,23,190,450,-314,1,0,28,6,920,0,53298,1
898,2,32037,31031,32712,42137,28253,-3780,-1027,-2380,-49,-27,39,197,447,-319,1,0,28,6,960,0,53298,1
899,1,32037,31030,32711,42138,0,-3772,-1001,-2359,-133,-86,86,200,452,-320,1,0,28,7,0,0,53298,1
900,2,32033,31032,32709,42139,27680,-3747,-1007,-2388,-174,0,118,193,457,-313,1,0,28,7,40,0,53298,1
901,2,32040,31036,32724,42140,27684,-3755,-994,-2438,-139,-81,28,193,457,-323,1,0,28,7,80,0,53298,1
902,2,32045,31037,32725,42141,27687,-3810,-1022,-2336,-84,-283,-79,197,449,-317,1,0,28,7,120,0,53298,1
903,2,32040,31035,32725,42142,27689,-3787,-1031,-2342,-183,-139,11,182,456,-310,1,0,28,7,160,0,53298,1
904,2,32040,31033,32722,42143,27692,-3781,-1022,-2374,-7,174,94,189,451,-309,1,0,28,7,200,0,53298,1
905,2,32044,31035,32715,42144,27695,-3760,-985,-2431,102,288,112,191,455,-315,1,0,28,7,240,0,53298,1
906,2,32040,31034,32710,42145,27696,-3739,-971,-2431,274,72,-16,191,445,-319,1,0,28,7,280,0,53298,1
907,2,32035,31034,32719,42146,27699,-3775,-1022,-2335,262,-55,-185,199,455,-313,1,0,28,7,320,0,53298,1
908,2,32040,31033,32717,42147,27701,-3749,-1014,-2357,221,4,-159,198,454,-318,1,0,28,7,360,0,53298,1
909,2,32044,31035,32715,42148,27705,-3828,-1073,-2391,-41,-22,-44,196,448,-324,1,0,28,7,400,0,53298,1
910,2,32045,31036,32719,42149,27707,-3684,-994,-2442,-722,-370,270,191,455,-315,1,0,28,7,440,0,53298,1
911,2,32045,31035,32722,42150,27709,-3808,-1044,-2325,-462,-339,111,193,445,-319,1,0,28,7,480,0,53298,1
912,2,32045,31035,32729,42151,27712,-3848,-912,-2311,54,-100,153,188,446,-318,1,0,28,7,520,0,53298,1
913,2,32050,31037,32725,42152,27714,-3755,-991,-2362,426,270,-156,198,452,-314,1,0,28,7,560,0,53298,1
914,2,32045,31034,32712,42153,27716,-3755,-1065,-2403,304,349,-246,200,448,-318,1,0,28,7,600,0,53298,1
915,2,32040,31033,32719,42154,27718,-3780,-1059,-2392,87,189,24,204,458,-324,1,0,28,7,640,0,53298,1
916,2,32038,31030,32709,42155,27721,-3737,-993,-2411,12,-48,283,195,455,-321,1,0,28,7,680,0,53298,1
917,2,32035,31030,32718,42156,27724,-3761,-978,-2387,-178,-169,139,197,459,-317,1,0,28,7,720,0,53298,1
918,2,32038,31032,32714,42157,27726,-3811,-1004,-2353,-130,-121,-74,200,456,-324,1,0,28,7,760,0,53298,1
919,2,32044,31035,32712,42158,27729,-3783,-1008,-2355,136,-64,-149,199,455,-309,1,0,28,7,800,0,53298,1
920,2,32045,31035,32721,42159,27733,-3759,-1034,-2373,112,2,-117,195,449,-315,1,0,28,7,840,0,53298,1
921,2,32043,31035,32725,42160,27736,-3750,-1023,-2382,-54,-20,-25,195,455,-321,1,0,28,7,880,0,53298,1
922,2,32038,31031,32711,42161,27740,-3806,-1031,-2366,-66,-7,33,192,454,-318,1,0,28,7,920,0,53298,1
923,2,32032,31029,32708,42162,27744,-3764,-988,-2374,-148,-50,128,196,452,-320,1,0,28,7,960,0,53298,1
924,1,32036,31029,32711,42163,0,-3746,-990,-2385,25,0,55,192,448,-322,1,0,28,8,0,1,53298,1
925,2,32038,31028,32714,42164,27181,-3789,-1012,-2377,87,57,-51,194,450,-314,1,0,28,8,40,1,53298,1
926,2,32034,31028,32707,42165,27184,-3773,-1031,-2389,-38,9,-16,193,445,-321,1,0,28,8,80,1,53298,1
927,2,32035,31030,32719,42166,27187,-3767,-1016,-2380,11,-45,85,187,451,-313,1,0,28,8,120,1,53298,1
928,2,32048,31034,32721,42167,27192,-3778,-985,-2362,98,12,27,198,452,-312,1,0,28,8,160,1,53298,1
929,2,32047,31034,32725,42168,27196,-3771,-1003,-2376,71,61,-74,194,458,-314,1,0,28,8,200,1,53298,1
930,2,32047,31038,32720,42169,27200,-3759,-1045,-2408,-34,3,-57,192,446,-314,1,0,28,8,240,1,53298,1
931,2,32047,31037,32716,42170,27203,-3769,-1001,-2366,6,-87,53,195,453,-319,1,0,28,8,280,1,53298,1
932,2,32042,31035,32722,42171,27208,-3774,-986,-2348,169,20,14,199,451,-327,1,0,28,8,320,1,53298,1
933,2,32047,31035,32725,42172,27212,-3763,-1010,-2393,57,113,-93,185,453,-317,1,0,28,8,360,1,53298,1
934,2,32045,31035,32714,42173,27215,-3759,-1060,-2416,-152,-4,-22,201,449,-315,1,0,28,8,400,1,53298,1
935,2,32045,31035,32721,42174,27218,-3766,-1015,-2366,-217,-222,163,190,448,-320,1,0,28,8,440,1,53298,1
936,2,32043,31036,32725,42175,27221,-3805,-979,-2360,-113,-198,159,196,452,-324,1,0,28,8,480,1,53298,1
937,2,32045,31037,32722,42176,27224,-3786,-992,-2351,-32,-34,3,195,447,-325,1,0,28,8,520,1,53298,1
938,2,32049,31036,32717,42177,27227,-3793,-1033,-2375,56,120,-120,199,443,-315,1,0,28,8,560,1,53298,1
939,2,32047,31037,32721,42178,27230,-3782,-1022,-2391,61,97,-21,192,450,-320,1,0,28,8,600,1,53298,1
940,2,32046,31038,32729,42179,27233,-3764,-1008,-2377,-45,-21,62,192,460,-314,1,0,28,8,640,1,53298,1
941,2,32041,31035,32727,42180,27236,-3777,-1003,-2393,-142,-56,65,193,447,-321,1,0,28,8,680,1,53298,1
942,2,32044,31036,32725,42181,27239,-3785,-1004,-2385,-109,-68,48,190,452,-318,1,0,28,8,720,1,53298,1
943,2,32047,31035,32722,42182,27242,-3785,-1002,-2374,-6,-46,8,197,447,-311,1,0,28,8,760,1,53298,1
944,2,32042,31039,32722,42183,27245,-3747,-999,-2366,75,-20,-9,192,454,-326,1,0,28,8,800,1,53298,1
945,2,32048,31037,32725,42184,27248,-3780,-1030,-2393,84,23,-28,191,447,-317,1,0,28,8,840,1,53298,1
946,2,32050,31037,32722,42185,27251,-3773,-1009,-2391,-130,-89,53,194,448,-312,1,0,28,8,880,1,53298,1
947,2,32048,31037,32731,42186,27254,-3779,-1006,-2361,-141,-139,51,192,452,-324,1,0,28,8,920,1,53298,1
948,2,32049,31038,32731,42187,27258,-3805,-995,-2359,-63,-54,9,205,451,-309,1,0,28,8,960,1,53298,1
949,1,32052,31035,32718,42188,0,-3771,-992,-2362,9,82,-1,191,457,-319,1,0,28,9,0,0,53298,1
950,2,32053,31037,32727,42189,26682,-3756,-1006,-2401,102,143,-41,199,447,-319,1,0,28,9,40,0,53298,1
951,2,32042,31030,32719,42190,26686,-3765,-1021,-2393,21,22,-18,192,450,-316,1,0,28,9,80,0,53298,1
952,2,32043,31031,32716,42191,26689,-3780,-1022,-2380,-92,-126,82,195,447,-317,1,0,28,9,120,0,53298,1
953,2,32047,31036,32721,42192,26693,-3779,-993,-2350,-129,-161,126,192,454,-316,1,0,28,9,160,0,53298,1
954,2,32045,31037,32729,42193,26696,-3797,-991,-2334,-30,-52,40,195,459,-319,1,0,28,9,200,0,53298,1
955,2,32046,31034,32716,42194,26699,-3786,-996,-2380,107,107,-68,193,455,-313,1,0,28,9,240,0,53298,1
956,2,32050,31035,32725,42195,26703,-3751,-1031,-2393,150,152,-131,195,449,-319,1,0,28,9,280,0,53298,1
957,2,32044,31034,32722,42196,26706,-3755,-1052,-2442,-14,31,-40,192,448,-314,1,0,28,9,320,0,53298,1
958,2,32049,31034,32729,42197,26710,-3780,-1005,-2374,-153,-261,136,199,447,-311,1,0,28,9,360,0,53298,1
959,2,32044,31033,32718,42198,26714,-3803,-972,-2314,-57,-242,130,196,448,-312,1,0,28,9,400,0,53298,1
960,2,32043,31033,32713,42199,26717,-3783,-993,-2355,3,94,-33,189,445,-305,1,0,28,9,440,0,53298,1
961,2,32039,31033,32721,42200,26722,-3768,-1020,-2398,46,230,-87,190,452,-306,1,0,28,9,480,0,53298,1
962,2,32039,31032,32715,42201,26726,-3766,-1003,-2406,126,44,0,190,450,-324,1,0,28,9,520,0,53298,1
963,2,32038,31029,32708,42202,26730,-3767,-1006,-2400,-19,-108,8,193,453,-317,1,0,28,9,560,0,53298,1
964,2,32038,31028,32716,42203,26733,-3772,-999,-2359,-102,-120,7,189,453,-327,1,0,28,9,600,0,53298,1
965,2,32041,31029,32720,42204,26737,-3784,-1005,-2349,-26,-46,55,195,447,-313,1,0,28,9,640,0,53298,1
966,2,32048,31034,32730,42205,26740,-3784,-989,-2385,17,32,56,189,451,-307,1,0,28,9,680,0,53298,1
967,2,32053,31034,32720,42206,26743,-3778,-1004,-2371,17,48,-33,188,458,-322,1,0,28,9,720,0,53298,1
968,2,32051,31033,32721,42207,26746,-3775,-1023,-2389,37,6,-31,191,455,-317,1,0,28,9,760,0,53298,1
969,2,32054,31037,32735,42208,26749,-3771,-1008,-2362,10,-49,12,193,451,-321,1,0,28,9,800,0,53298,1
970,2,32046,31036,32732,42209,26752,-3771,-1002,-2373,-57,-58,28,197,453,-315,1,0,28,9,840,0,53298,1
971,2,32052,31037,32730,42210,26755,-3781,-998,-2381,-43,-30,40,195,457,-313,1,0,28,9,880,0,53298,1
972,2,32051,31035,32728,42211,26758,-3779,-997,-2373,38,-10,-10,192,450,-320,1,0,28,9,920,0,53298,1
973,2,32052,31038,32717,42212,26761,-3777,-1015,-2380,52,43,-52,201,453,-323,1,0,28,9,960,0,53298,1
974,1,32048,31037,32729,42213,0,-3770,-1011,-2397,30,23,-18,196,450,-316,1,0,28,10,0,1,53298,1
975,2,32044,31035,32730,42214,26182,-3773,-1006,-2377,-76,-44,54,198,450,-316,1,0,28,10,40,1,53298,1
976,2,32052,31041,32725,42215,26186,-3797,-1001,-2380,-99,-85,107,199,447,-321,1,0,28,10,80,1,53298,1
977,2,32050,31038,32732,42216,26190,-3770,-985,-2376,-18,-53,29,196,456,-320,1,0,28,10,120,1,53298,1
978,2,32049,31036,32728,42217,26195,-3782,-1010,-2358,45,7,-41,199,451,-311,1,0,28,10,160,1,53298,1
979,2,32049,31038,32719,42218,26200,-3776,-1012,-2383,51,51,-39,193,453,-319,1,0,28,10,200,1,53298,1
980,2,32049,31039,32735,42219,26204,-3759,-1009,-2372,7,-18,6,195,449,-317,1,0,28,10,240,1,53298,1
981,2,32054,31039,32729,42220,26207,-3782,-1005,-2383,-23,-60,28,192,450,-316,1,0,28,10,280,1,53298,1
982,2,32055,31040,32729,42221,26211,-3771,-1004,-2359,-41,-35,30,189,455,-317,1,0,28,10,320,1,53298,1
983,2,32051,31039,32723,42222,26213,-3776,-998,-2377,3,16,-1,191,449,-315,1,0,28,10,360,1,53298,1
984,2,32049,31035,32732,42223,26216,-3776,-1005,-2403,52,24,-16,190,454,-318,1,0,28,10,400,1,53298,1
985,2,32045,31034,32730,42224,26219,-3780,-1004,-2374,25,-4,-12,195,449,-309,1,0,28,10,440,1,53298,1
986,2,32048,31035,32718,42225,26222,-3762,-994,-2371,17,7,14,201,457,-319,1,0,28,10,480,1,53298,1
987,2,32048,31035,32717,42226,26225,-3763,-1010,-2396,-38,-34,-19,197,457,-323,1,0,28,10,520,1,53298,1
988,2,32048,31032,32730,42227,26229,-3795,-1013,-2352,-151,-190,55,193,449,-311,1,0,28,10,560,1,53298,1
989,2,32050,31033,32732,42228,26232,-3781,-991,-2345,-20,-107,63,193,449,-313,1,0,28,10,600,1,53298,1
990,2,32056,31035,32725,42229,26234,-3786,-1003,-2365,55,94,-21,198,448,-316,1,0,28,10,640,1,53298,1
991,2,32055,31037,32724,42230,26237,-3774,-1016,-2391,74,183,-35,194,438,-316,1,0,28,10,680,1,53298,1
992,2,32052,31038,32734,42231,26240,-3777,-1009,-2415,144,82,-3,197,451,-311,1,0,28,10,720,1,53298,1
993,2,32055,31037,32724,42232,26244,-3760,-1018,-2387,-61,-28,6,190,448,-310,1,0,28,10,760,1,53298,1
994,2,32052,31035,32735,42233,26248,-3774,-1009,-2371,-148,-117,44,193,453,-303,1,0,28,10,800,1,53298,1
995,2,32055,31038,32728,42234,26252,-3785,-976,-2372,0,-106,70,194,454,-318,1,0,28,10,840,1,53298,1
996,2,32061,31041,32744,42235,26256,-3773,-987,-2376,123,16,-33,198,452,-314,1,0,28,10,880,1,53298,1
997,2,32065,31040,32732,42236,26260,-3778,-1028,-2381,245,112,-167,197,461,-313,1,0,28,10,920,1,53298,1
998,2,32057,31036,32734,42237,26262,-3743,-1040,-2364,442,154,-209,192,450,-322,1,0,28,10,960,1,53298,1
999,1,32058,31037,32741,42238,0,-3843,-950,-2277,1121,494,-622,201,455,-323,1,0,28,11,0,1,53298,1
1000,2,32065,31039,32721,42239,25682,-4025,-1015,-2392,1629,781,-493,198,452,-318,1,0,28,11,40,1,53298,1
1001,2,32064,31038,32721,42240,25685,-3246,-1089,-2627,-1828,-605,98,196,450,-318,1,0,28,11,80,1,53298,1
1002,2,32056,31036,32744,42241,25689,-3866,-1403,-2338,-1404,-512,426,186,452,-314,1,0,28,11,120,1,53298,1
1003,2,32052,31035,32734,42242,25692,-3965,-704,-2227,-630,-881,1412,188,448,-314,1,0,28,11,160,1,53298,1
1004,2,32043,31033,32733,42243,25696,-3741,-818,-2305,580,-133,426,188,450,-314,1,0,28,11,200,1,53298,1
1005,2,32055,31031,32731,42244,25699,-3704,-1001,-2412,548,578,-795,202,452,-316,1,0,28,11,240,1,53298,1
1006,2,32059,31034,32730,42245,25703,-3850,-1142,-2401,13,706,-1014,197,445,-315,1,0,28,11,280,1,53298,1
1007,2,32055,31027,32720,42246,25706,-3690,-1158,-2458,697,151,-156,201,459,-321,1,0,28,11,320,1,53298,1
1008,2,32052,31031,32731,42247,25710,-3717,-1060,-2422,111,-303,382,192,456,-314,1,0,28,11,360,1,53298,1
1009,2,32055,31034,32728,42248,25713,-3850,-929,-2309,-540,-323,343,198,464,-322,1,0,28,11,400,1,53298,1
1010,2,32053,31030,32724,42249,25717,-3774,-1015,-2379,-194,-31,6,198,454,-310,1,0,28,11,440,1,53298,1
1011,2,32053,31032,32723,42250,25719,-3742,-1041,-2386,157,74,-122,198,440,-316,1,0,28,11,480,1,53298,1
1012,2,32055,31032,32735,42251,25722,-3774,-1057,-2417,112,92,-106,195,447,-317,1,0,28,11,520,1,53298,1
1013,2,32060,31034,32734,42252,25726,-3772,-1044,-2398,11,-48,57,200,458,-322,1,0,28,11,560,1,53298,1
1014,2,32057,31035,32726,42253,25730,-3768,-1026,-2373,-94,-100,90,202,448,-320,1,0,28,11,600,1,53298,1
1015,2,32052,31029,32735,42254,25733,-3789,-1016,-2365,-56,-44,34,209,449,-315,1,0,28,11,640,1,53298,1
1016,2,32053,31029,32733,42255,25737,-3775,-1030,-2365,48,19,-14,198,448,-310,1,0,28,11,680,1,53298,1
1017,2,32055,31030,32733,42256,25741,-3770,-1037,-2399,41,43,-25,191,441,-319,1,0,28,11,720,1,53298,1
1018,2,32052,31029,32734,42257,25744,-3778,-1043,-2385,-31,21,4,198,444,-316,1,0,28,11,760,1,53298,1
1019,2,32053,31030,32728,42258,25747,-3764,-1016,-2385,-32,-43,56,186,448,-322,1,0,28,11,800,1,53298,1
1020,2,32047,31025,32721,42259,25751,-3764,-1018,-2388,-60,-83,32,195,449,-323,1,0,28,11,840,1,53298,1
1021,2,32050,31029,32726,42260,25754,-3766,-1033,-2390,-112,-65,5,187,443,-313,1,0,28,11,880,1,53298,1
1022,2,32053,31030,32736,42261,25757,-3774,-1015,-2356,-30,-57,26,194,452,-310,1,0,28,11,920,1,53298,1
1023,2,32057,31035,32736,42262,25759,-3783,-1011,-2386,32,-4,37,193,449,-315,1,0,28,11,960,1,53298,1
1024,1,32059,31035,32740,42263,0,-3769,-1026,-2386,50,43,-18,192,448,-314,1,0,28,12,0,1,53298,1
1025,2,32060,31033,32736,42264,25183,-3763,-1037,-2409,33,18,-48,187,443,-309,1,0,28,12,40,1,53298,1
1026,2,32060,31036,32744,42265,25186,-3765,-1031,-2391,-13,-44,-1,194,450,-322,1,0,28,12,80,1,53298,1
1027,2,32051,31032,32724,42266,25189,-3774,-1035,-2375,6,-63,38,193,459,-321,1,0,28,12,120,1,53298,1
1028,2,32059,31034,32734,42267,25193,-3768,-1023,-2377,-60,-6,6,196,454,-322,1,0,28,12,160,1,53298,1
1029,2,32052,31030,32736,42268,25196,-3761,-1029,-2395,-53,-47,19,195,457,-319,1,0,28,12,200,1,53298,1
1030,2,32052,31033,32724,42269,25199,-3777,-1027,-2378,-33,-54,29,200,448,-312,1,0,28,12,240,1,53298,1
1031,2,32054,31030,32728,42270,25201,-3777,-1021,-2375,-16,-29,9,195,455,-323,1,0,28,12,280,1,53298,1
1032,2,32052,31029,32733,42271,25205,-3779,-1029,-2390,40,21,-27,191,451,-317,1,0,28,12,320,1,53298,1
1033,2,32056,31031,32725,42272,25208,-3773,-1040,-2394,24,16,-27,197,449,-317,1,0,28,12,360,1,53298,1
1034,2,32049,31027,32733,42273,25212,-3763,-1037,-2378,-25,-18,15,191,455,-321,1,0,28,12,400,1,53298,1
1035,2,32057,31035,32741,42274,25215,-3782,-1033,-2384,-52,-68,48,192,446,-324,1,0,28,12,440,1,53298,1
1036,2,32060,31031,32726,42275,25218,-3773,-1019,-2376,-29,-27,39,194,452,-322,1,0,28,12,480,1,53298,1
1037,2,32060,31033,32742,42276,25221,-3764,-1038,-2398,-3,-5,5,195,451,-305,1,0,28,12,520,1,53298,1
1038,2,32053,31032,32736,42277,25225,-3774,-1036,-2383,0,-6,6,193,451,-321,1,0,28,12,560,1,53298,1
1039,2,32061,31032,32738,42278,25228,-3769,-1030,-2387,-1,-20,18,199,455,-313,1,0,28,12,600,1,53298,1
1040,2,32054,31027,32737,42279,25231,-3767,-1030,-2371,-4,-21,18,199,451,-309,1,0,28,12,640,1,53298,1
1041,2,32055,31030,32729,42280,25234,-3777,-1031,-2378,-5,-9,5,205,453,-325,1,0,28,12,680,1,53298,1
1042,2,32055,31024,32735,42281,25237,-3767,-1022,-2380,0,-11,9,192,448,-312,1,0,28,12,720,1,53298,1
1043,2,32050,31021,32729,42282,25241,-3768,-1025,-2385,-7,-13,20,192,450,-318,1,0,28,12,760,1,53298,1
1044,2,32050,31024,32720,42283,25244,-3766,-1029,-2377,-2,-30,12,189,453,-319,1,0,28,12,800,1,53298,1
1045,2,32053,31024,32720,42284,25247,-3792,-1042,-2381,4,-8,10,197,449,-323,1,0,28,12,840,1,53298,1
1046,2,32047,31021,32734,42285,25251,-3759,-1018,-2373,-4,-2,4,193,455,-319,1,0,28,12,880,1,53298,1
1047,2,32046,31018,32729,42286,25254,-3769,-1024,-2389,-1,-21,8,198,460,-318,1,0,28,12,920,1,53298,1
1048,2,32048,31020,32734,42287,25257,-3769,-1028,-2375,-4,-18,7,192,454,-314,1,0,28,12,960,1,53298,1
1049,1,32055,31025,32724,42288,0,-3768,-1026,-2370,-16,-4,9,188,452,-318,1,0,28,13,0,0,53298,1
1050,2,32051,31022,32730,42289,24683,-3776,-1026,-2378,-7,-26,7,191,447,-305,1,0,28,13,40,0,53298,1
1051,2,32056,31020,32740,42290,24687,-3780,-1026,-2374,-9,-14,14,192,462,-316,1,0,28,13,80,0,53298,1
1052,2,32057,31022,32735,42291,24690,-3756,-1018,-2380,2,-6,12,198,452,-316,1,0,28,13,120,0,53298,1
1053,2,32063,31022,32734,42292,24692,-3776,-1030,-2380,7,-4,-3,193,451,-315,1,0,28,13,160,0,53298,1
1054,2,32063,31027,32737,42293,24695,-3780,-1031,-2373,-6,-22,14,190,458,-312,1,0,28,13,200,0,53298,1
1055,2,32066,31029,32745,42294,24698,-3779,-1021,-2388,-3,-29,26,192,446,-320,1,0,28,13,240,0,53298,1
1056,2,32065,31011,32749,42295,24701,-3769,-1030,-2377,-15,-13,14,199,439,-319,1,0,28,13,280,0,53298,1
1057,2,32061,31006,32733,42296,24703,-3770,-1039,-2369,1,-7,6,191,453,-305,1,0,28,13,320,0,53298,1
1058,2,32066,31002,32741,42297,24705,-3773,-1025,-2386,11,-2,9,182,452,-320,1,0,28,13,360,0,53298,1
1059,2,32063,31000,32731,42298,24707,-3772,-1026,-2378,6,-18,9,191,457,-321,1,0,28,13,400,0,53298,1
1060,2,32072,31000,32747,42299,24710,-3776,-1032,-2378,14,-31,15,196,460,-318,1,0,28,13,440,0,53298,1
1061,2,32061,31000,32736,42300,24714,-3763,-1017,-2392,-4,-5,8,192,452,-320,1,0,28,13,480,0,53298,1
1062,2,32065,31001,32740,42301,24716,-3781,-1031,-2397,4,-10,14,192,460,-320,1,0,28,13,520,0,53298,1
1063,2,32064,31006,32750,42302,24718,-3768,-1020,-2371,-3,-9,2,196,444,-314,1,0,28,13,560,0,53298,1
1064,2,32064,31002,32746,42303,24721,-3777,-1035,-2393,5,2,-3,199,451,-313,1,0,28,13,600,0,53298,1
1065,2,32067,31003,32741,42304,24724,-3774,-1030,-2385,10,-18,-3,191,451,-309,1,0,28,13,640,0,53298,1
1066,2,32065,31001,32749,42305,24727,-3785,-1037,-2389,-20,-32,12,193,451,-323,1,0,28,13,680,0,53298,1
1067,2,32068,31013,32734,42306,24730,-3781,-1039,-2381,-30,-19,34,195,453,-321,1,0,28,13,720,0,53298,1
1068,2,32066,31013,32746,42307,24733,-3768,-1032,-2372,-28,-36,30,188,450,-322,1,0,28,13,760,0,53298,1
1069,2,32065,31005,32733,42308,24736,-3776,-1028,-2377,-16,-17,28,198,448,-318,1,0,28,13,800,0,53298,1
1070,2,32067,31003,32746,42309,24739,-3758,-1013,-2384,-8,-14,20,198,452,-316,1,0,28,13,840,0,53298,1
1071,2,32065,31001,32745,42310,24742,-3763,-1021,-2377,12,-11,0,193,445,-315,1,0,28,13,880,0,53298,1
1072,2,32067,30996,32748,42311,24745,-3772,-1022,-2370,1,-19,2,205,445,-319,1,0,28,13,920,0,53298,1
1073,2,32065,31009,32745,42312,24749,-3776,-1021,-2380,2,-5,19,195,451,-317,1,0,28,13,960,0,53298,1
1074,1,32070,31015,32747,42313,0,-3758,-1014,-2387,14,-14,1,186,460,-316,1,0,28,14,0,0,53298,1
1075,2,32070,31014,32736,42314,24184,-3774,-1030,-2376,9,-14,6,197,449,-317,1,0,28,14,40,0,53298,1
1076,2,32070,31007,32741,42315,24187,-3762,-1020,-2387,12,-9,17,191,447,-317,1,0,28,14,80,0,53298,1
1077,2,32070,31006,32753,42316,24190,-3766,-1024,-2400,-6,-10,19,194,452,-316,1,0,28,14,120,0,53298,1
1078,2,32068,31005,32748,42317,24193,-3767,-1029,-2379,8,-13,1,185,457,-321,1,0,28,14,160,0,53298,1
1079,2,32067,31004,32749,42318,24195,-3767,-1017,-2385,7,-23,-1,191,453,-315,1,0,28,14,200,0,53298,1
1080,2,32070,30998,32742,42319,24198,-3771,-1028,-2369,3,-11,10,189,447,-319,1,0,28,14,240,0,53298,1
1081,2,32073,30998,32750,42320,24201,-3783,-1033,-2377,5,-16,6,193,447,-319,1,0,28,14,280,0,53298,1
1082,2,32066,30988,32747,42321,24204,-3774,-1029,-2395,4,-7,13,191,455,-317,1,0,28,14,320,0,53298,1
1083,2,32066,30988,32738,42322,24207,-3773,-1025,-2385,0,-9,12,193,443,-313,1,0,28,14,360,0,53298,1
1084,2,32066,30977,32747,42323,24211,-3766,-1014,-2389,0,-19,14,193,449,-317,1,0,28,14,400,0,53298,1
1085,2,32063,30984,32734,42324,24215,-3761,-1022,-2376,-8,-14,10,193,447,-311,1,0,28,14,440,0,53298,1
1086,2,32067,30974,32745,42325,24218,-3770,-1031,-2373,-6,-6,14,200,448,-320,1,0,28,14,480,0,53298,1
1087,2,32070,30978,32748,42326,24222,-3756,-1017,-2372,4,-19,7,190,452,-324,1,0,28,14,520,0,53298,1
1088,2,32068,30976,32745,42327,24225,-3770,-1025,-2373,0,-15,9,196,460,-330,1,0,28,14,560,0,53298,1
1089,2,32063,30953,32745,42328,24228,-3779,-1024,-2369,6,-9,7,184,450,-310,1,0,28,14,600,0,53298,1
1090,2,32068,30947,32748,42329,24232,-3782,-1028,-2364,3,-14,1,197,457,-311,1,0,28,14,640,0,53298,1
1091,2,32066,30956,32737,42330,24235,-3771,-1026,-2376,7,-11,8,190,460,-318,1,0,28,14,680,0,53298,1
1092,2,32071,30954,32749,42331,24239,-3776,-1037,-2381,6,-5,18,190,454,-310,1,0,28,14,720,0,53298,1
1093,2,32070,30979,32753,42332,24242,-3763,-1027,-2389,4,-7,12,196,454,-320,1,0,28,14,760,0,53298,1
1094,2,32067,30975,32747,42333,24246,-3785,-1021,-2391,6,-21,6,191,449,-323,1,0,28,14,800,0,53298,1
1095,2,32067,30981,32748,42334,24249,-3758,-1021,-2382,5,-21,4,199,447,-309,1,0,28,14,840,0,53298,1
1096,2,32061,30974,32750,42335,24254,-3775,-1030,-2376,-2,-8,11,201,447,-315,1,0,28,14,880,0,53298,1
1097,2,32059,30982,32745,42336,24257,-3762,-1023,-2378,5,-12,13,199,445,-325,1,0,28,14,920,0,53298,1
1098,2,32059,30975,32735,42337,24260,-3778,-1027,-2379,-1,-14,6,185,445,-319,1,0,28,14,960,0,53298,1
1099,1,32062,30986,32737,42338,0,-3768,-1022,-2391,4,-13,9,196,448,-318,1,0,28,15,0,1,53298,1
1100,2,32059,30985,32740,42339,23687,-3771,-1025,-2380,3,-21,15,193,453,-317,1,0,28,15,40,1,53298,1
1101,2,32062,30988,32742,42340,23692,-3772,-1035,-2387,1,-17,14,195,449,-315,1,0,28,15,80,1,53298,1
1102,2,32060,30983,32734,42341,23696,-3754,-1017,-2373,-4,-9,13,201,447,-317,1,0,28,15,120,1,53298,1
1103,2,32062,30991,32744,42342,23700,-3775,-1029,-2373,-21,-3,20,186,450,-314,1,0,28,15,160,1,53298,1
1104,2,32062,30990,32735,42343,23703,-3774,-1034,-2393,-21,-11,26,185,449,-315,1,0,28,15,200,1,53298,1
1105,2,32060,30990,32733,42344,23708,-3754,-1026,-2384,-16,-31,14,197,449,-315,1,0,28,15,240,1,53298,1
1106,2,32065,30992,32743,42345,23712,-3785,-1027,-2391,3,-27,-4,199,453,-317,1,0,28,15,280,1,53298,1
1107,2,32061,30985,32744,42346,23717,-3776,-1028,-2378,14,-34,-6,194,458,-318,1,0,28,15,320,1,53298,1
1108,2,32062,30989,32744,42347,23721,-3785,-1036,-2384,-20,-8,21,192,452,-306,1,0,28,15,360,1,53298,1
1109,2,32065,30977,32747,42348,23725,-3768,-1024,-2389,-33,-8,20,196,452,-316,1,0,28,15,400,1,53298,1
1110,2,32062,30982,32734,42349,23730,-3779,-1030,-2384,-20,-14,22,185,449,-313,1,0,28,15,440,1,53298,1
1111,2,32063,30999,32746,42350,23734,-3767,-1024,-2379,-6,-30,5,203,455,-321,1,0,28,15,480,1,53298,1
1112,2,32065,31000,32736,42351,23737,-3762,-1029,-2374,-13,-27,-5,191,449,-309,1,0,28,15,520,1,53298,1
1113,2,32064,31001,32729,42352,23741,-3766,-1019,-2382,-1,-18,9,187,453,-307,1,0,28,15,560,1,53298,1
1114,2,32057,30996,32736,42353,23745,-3772,-1033,-2379,-1,-11,20,196,456,-312,1,0,28,15,600,1,53298,1
1115,2,32061,31001,32745,42354,23748,-3760,-1009,-2372,-22,-2,21,197,453,-311,1,0,28,15,640,1,53298,1
1116,2,32060,31005,32731,42355,23752,-3766,-1027,-2387,-13,-21,7,197,443,-317,1,0,28,15,680,1,53298,1
1117,2,32060,31008,32741,42356,23755,-3789,-1028,-2384,2,-26,9,196,452,-318,1,0,28,15,720,1,53298,1
1118,2,32065,31010,32746,42357,23759,-3761,-1021,-2394,-2,-18,-1,198,450,-318,1,0,28,15,760,1,53298,1
1119,2,32061,31010,32735,42358,23762,-3772,-1019,-2404,4,-4,12,195,449,-317,1,0,28,15,800,1,53298,1
1120,2,32061,31009,32745,42359,23766,-3768,-1033,-2401,-2,2,6,190,454,-302,1,0,28,15,840,1,53298,1
1121,2,32057,31007,32738,42360,23771,-3755,-1012,-2388,5,-28,9,196,446,-312,1,0,28,15,880,1,53298,1
1122,2,32058,30999,32738,42361,23775,-3767,-1033,-2387,-14,-29,5,201,451,-313,1,0,28,15,920,1,53298,1
1123,2,32054,31000,32726,42362,23779,-3771,-1029,-2375,2,-25,3,196,450,-310,1,0,28,15,960,1,53298,1
1124,1,32058,31006,32728,42363,0,-3764,-1027,-2381,5,-13,1,197,455,-323,1,0,28,16,0,1,53298,1
1125,2,32064,31006,32733,42364,23188,-3773,-1036,-2385,1,-5,9,197,453,-321,1,0,28,16,40,1,53298,1
1126,2,32065,31005,32748,42365,23192,-3777,-1032,-2387,-19,0,18,194,450,-320,1,0,28,16,80,1,53298,1
1127,2,32067,30998,32735,42366,23197,-3771,-1023,-2369,-3,-14,25,199,455,-315,1,0,28,16,120,1,53298,1
1128,2,32070,31000,32735,42367,23200,-3772,-1029,-2373,2,-10,0,193,457,-327,1,0,28,16,160,1,53298,1
1129,2,32067,31001,32750,42368,23205,-3773,-1034,-2389,-10,-7,-14,189,451,-309,1,0,28,16,200,1,53298,1
1130,2,32066,30998,32751,42369,23209,-3779,-1038,-2378,4,-26,4,198,446,-320,1,0,28,16,240,1,53298,1
1131,2,32066,30985,32746,42370,23214,-3761,-1024,-2373,-7,-40,16,195,449,-315,1,0,28,16,280,1,53298,1
1132,2,32062,30980,32746,42371,23218,-3768,-1030,-2384,8,0,14,198,454,-318,1,0,28,16,320,1,53298,1
1133,2,32061,30990,32742,42372,23223,-3772,-1034,-2386,6,-4,3,190,444,-310,1,0,28,16,360,1,53298,1
1134,2,32057,30991,32740,42373,23227,-3752,-1025,-2381,-5,-11,8,197,445,-325,1,0,28,16,400,1,53298,1
1135,2,32055,30978,32729,42374,23232,-3771,-1031,-2363,-11,-16,18,189,453,-317,1,0,28,16,440,1,53298,1
1136,2,32053,30990,32733,42375,23237,-3762,-1026,-2375,-13,-18,10,201,451,-313,1,0,28,16,480,1,53298,1
1137,2,32054,30996,32739,42376,23242,-3774,-1034,-2384,4,-8,11,200,452,-324,1,0,28,16,520,1,53298,1
1138,2,32054,30991,32736,42377,23247,-3772,-1027,-2382,1,-2,4,194,448,-322,1,0,28,16,560,1,53298,1
1139,2,32057,30984,32737,42378,23251,-3770,-1033,-2377,-6,-22,5,198,456,-316,1,0,28,16,600,1,53298,1
1140,2,32057,30983,32738,42379,23255,-3771,-1026,-2382,-9,-25,15,194,448,-322,1,0,28,16,640,1,53298,1
1141,2,32056,30992,32742,42380,23259,-3781,-1031,-2387,2,-20,14,187,451,-315,1,0,28,16,680,1,53298,1
1142,2,32055,30986,32728,42381,23263,-3770,-1028,-2379,11,-11,3,197,455,-315,1,0,28,16,720,1,53298,1
1143,2,32059,30993,32743,42382,23267,-3773,-1028,-2367,-3,-7,7,190,444,-314,1,0,28,16,760,1,53298,1
1144,2,32060,30993,32738,42383,23271,-3775,-1031,-2377,-4,-18,11,195,441,-309,1,0,28,16,800,1,53298,1
1145,2,32057,30991,32725,42384,23274,-3779,-1032,-2389,4,-11,4,193,457,-303,1,0,28,16,840,1,53298,1
1146,2,32054,30990,32738,42385,23278,-3766,-1019,-2386,-1,-17,4,188,452,-316,1,0,28,16,880,1,53298,1
1147,2,32057,30995,32743,42386,23283,-3782,-1035,-2390,-5,-18,14,188,448,-320,1,0,28,16,920,1,53298,1
1148,2,32060,30998,32739,42387,23287,-3768,-1022,-2379,-11,-26,17,194,450,-316,1,0,28,16,960,1,53298,1
1149,1,32060,30994,32743,42388,0,-3761,-1032,-2376,-10,-20,17,188,452,-318,1,0,28,17,0,0,53298,1
1150,2,32060,30992,32743,42389,22690,-3777,-1035,-2382,-1,-10,12,192,452,-314,1,0,28,17,40,0,53298,1
1151,2,32060,30990,32740,42390,22694,-3762,-1023,-2386,3,-10,10,191,449,-319,1,0,28,17,80,0,53298,1
1152,2,32059,30991,32740,42391,22698,-3778,-1028,-2378,-3,-11,12,196,448,-320,1,0,28,17,120,0,53298,1
1153,2,32059,31001,32740,42392,22701,-3778,-1036,-2373,-9,-19,10,189,447,-315,1,0,28,17,160,0,53298,1
1154,2,32059,31002,32736,42393,22705,-3773,-1032,-2384,-6,-25,9,200,452,-316,1,0,28,17,200,0,53298,1
1155,2,32066,30999,32730,42394,22709,-3781,-1035,-2367,4,-22,10,188,458,-328,1,0,28,17,240,0,53298,1
1156,2,32061,31010,32744,42395,22713,-3768,-1029,-2387,7,-6,11,199,451,-311,1,0,28,17,280,0,53298,1
1157,2,32055,31012,32733,42396,22717,-3761,-1032,-2384,-1,-12,15,199,457,-311,1,0,28,17,320,0,53298,1
1158,2,32056,31016,32733,42397,22721,-3784,-1043,-2367,-8,-27,10,188,454,-306,1,0,28,17,360,0,53298,1
1159,2,32055,31010,32728,42398,22725,-3775,-1038,-2380,0,-23,17,200,452,-310,1,0,28,17,400,0,53298,1
1160,2,32059,31020,32730,42399,22729,-3772,-1031,-2378,4,-17,0,191,453,-315,1,0,28,17,440,0,53298,1
1161,2,32067,31026,32735,42400,22733,-3765,-1031,-2378,2,-19,0,192,444,-312,1,0,28,17,480,0,53298,1
1162,2,32064,31016,32742,42401,22737,-3766,-1028,-2390,4,-11,20,193,453,-315,1,0,28,17,520,0,53298,1
1163,2,32059,31017,32739,42402,22742,-3781,-1038,-2393,-2,-19,15,196,450,-320,1,0,28,17,560,0,53298,1
1164,2,32061,31014,32732,42403,22746,-3763,-1022,-2384,4,-9,12,199,453,-311,1,0,28,17,600,0,53298,1
1165,2,32057,31012,32736,42404,22750,-3771,-1033,-2382,0,-19,0,198,448,-316,1,0,28,17,640,0,53298,1
1166,2,32060,31013,32734,42405,22754,-3769,-1036,-2387,-1,-10,11,199,459,-319,1,0,28,17,680,0,53298,1
1167,2,32064,31012,32729,42406,22758,-3767,-1025,-2371,-1,-35,11,186,450,-310,1,0,28,17,720,0,53298,1
1168,2,32059,31011,32730,42407,22762,-3778,-1036,-2397,-2,-4,4,197,445,-317,1,0,28,17,760,0,53298,1
1169,2,32062,31014,32734,42408,22767,-3773,-1026,-2377,-2,-18,11,191,441,-317,1,0,28,17,800,0,53298,1
1170,2,32060,31014,32743,42409,22771,-3777,-1017,-2372,29,-8,15,206,448,-320,1,0,28,17,840,0,53298,1
1171,2,32060,31010,32730,42410,22776,-3764,-1028,-2400,-22,1,9,193,455,-321,1,0,28,17,880,0,53298,1
1172,2,32062,31013,32735,42411,22781,-3768,-1039,-2394,-17,-17,-9,191,449,-309,1,0,28,17,920,0,53298,1
1173,2,32059,31007,32728,42412,22785,-3781,-1025,-2386,46,-46,8,198,456,-318,1,0,28,17,960,0,53298,1
1174,1,32059,31008,32730,42413,0,-3776,-1030,-2400,2,-13,4,200,452,-320,1,0,28,18,0,0,53298,1
1175,2,32059,31011,32722,42414,22191,-3767,-1026,-2387,1,-9,4,186,452,-320,1,0,28,18,40,0,53298,1
1176,2,32057,31013,32735,42415,22195,-3773,-1022,-2371,2,-8,25,194,448,-316,1,0,28,18,80,0,53298,1
1177,2,32061,31007,32735,42416,22200,-3775,-1028,-2394,-28,-5,9,205,455,-325,1,0,28,18,120,0,53298,1
1178,2,32061,31010,32740,42417,22204,-3800,-1038,-2372,64,-5,-11,194,454,-320,1,0,28,18,160,0,53298,1
1179,2,32058,31005,32731,42418,22207,-3781,-1045,-2379,76,33,-43,198,454,-326,1,0,28,18,200,0,53298,1
1180,2,32061,31010,32734,42419,22211,-3777,-1050,-2403,-94,-13,21,196,446,-320,1,0,28,18,240,0,53298,1
1181,2,32061,31006,32733,42420,22215,-3770,-1038,-2384,-157,-114,114,190,450,-306,1,0,28,18,280,0,53298,1
1182,2,32059,31006,32733,42421,22219,-3783,-1006,-2351,-39,-116,89,185,459,-313,1,0,28,18,320,0,53298,1
1183,2,32062,31023,32733,42422,22223,-3774,-1000,-2360,143,42,-44,190,452,-314,1,0,28,18,360,0,53298,1
1184,2,32057,31023,32737,42423,22227,-3756,-1066,-2408,135,135,-141,197,453,-319,1,0,28,18,400,0,53298,1
1185,2,32057,31018,32728,42424,22231,-3772,-1079,-2404,-11,36,-25,198,444,-310,1,0,28,18,440,0,53298,1
1186,2,32054,31013,32728,42425,22236,-3770,-1019,-2367,-35,-122,123,185,445,-311,1,0,28,18,480,0,53298,1
1187,2,32057,31019,32738,42426,22240,-3781,-1004,-2350,-26,-85,70,188,450,-312,1,0,28,18,520,0,53298,1
1188,2,32055,31024,32735,42427,22244,-3771,-1041,-2375,-41,57,-44,189,455,-325,1,0,28,18,560,0,53298,1
1189,2,32057,31030,32740,42428,22249,-3773,-1053,-2393,14,45,-24,199,453,-325,1,0,28,18,600,0,53298,1
