sensorStatus,cap1,cap2,cap3,counter,microseconds_since_last_tick,accX,accY,accZ,gyroX,gyroY,gyroZ,magnetX,magnetY,magnetZ,day,hour,min,sec,msec,sync,battery_fuel,crc_good
2,31573,34864,32213,26325,14274,-4330,171,-1190,21,3,25,101,547,-193,1,0,17,34,480,1,53298,1
2,31578,34874,32214,26326,14286,-4326,159,-1180,-6,-11,20,108,550,-188,1,0,17,34,520,1,53298,1
2,31573,34869,32210,26327,14297,-4314,175,-1167,-9,-28,24,119,555,-189,1,0,17,34,560,1,53298,1
2,31571,34862,32212,26328,14308,-4319,174,-1171,13,-31,29,112,554,-190,1,0,17,34,600,1,53298,1
2,31573,34863,32206,26329,14320,-4318,183,-1179,-2,-7,17,115,561,-189,1,0,17,34,640,1,53298,1
2,31570,34863,32210,26330,14331,-4328,161,-1177,4,1,20,108,560,-186,1,0,17,34,680,1,53298,1
2,31572,34867,32216,26331,14343,-4318,178,-1184,13,-8,11,112,554,-200,1,0,17,34,720,1,53298,1
2,31570,34868,32211,26332,14354,-4331,167,-1169,4,-7,2,116,558,-194,1,0,17,34,760,1,53298,1
2,31579,34884,32225,26333,14366,-4323,182,-1164,3,-14,15,116,554,-184,1,0,17,34,800,1,53298,1
2,31580,34863,32221,26334,14377,-4326,176,-1172,2,-20,11,112,552,-194,1,0,17,34,840,1,53298,1
2,31573,34867,32214,26335,14389,-4323,159,-1178,-18,-25,6,116,562,-188,1,0,17,34,880,1,53298,1
2,31569,34871,32219,26336,14400,-4317,180,-1174,-11,-35,18,107,551,-187,1,0,17,34,920,1,53298,1
2,31574,34878,32209,26337,14412,-4323,177,-1156,17,-34,31,118,556,-186,1,0,17,34,960,1,53298,1
1,31576,34863,32212,26338,0,-4328,175,-1168,8,-3,39,113,553,-181,1,0,17,35,0,0,53298,1
2,31580,34870,32218,26339,13664,-4323,182,-1167,12,8,45,117,553,-189,1,0,17,35,40,0,53298,1
2,31577,34869,32215,26340,13676,-4324,168,-1176,15,14,37,111,557,-191,1,0,17,35,80,0,53298,1
2,31570,34866,32214,26341,13689,-4327,168,-1177,16,8,27,120,554,-188,1,0,17,35,120,0,53298,1
2,31582,34866,32212,26342,13700,-4323,177,-1172,6,-4,6,116,554,-186,1,0,17,35,160,0,53298,1
2,31575,34870,32221,26343,13712,-4320,171,-1177,3,-11,12,116,550,-188,1,0,17,35,200,0,53298,1
2,31574,34868,32218,26344,13726,-4326,158,-1155,2,-18,23,115,553,-197,1,0,17,35,240,0,53298,1
2,31563,34865,32208,26345,13739,-4320,170,-1174,15,-12,31,113,563,-195,1,0,17,35,280,0,53298,1
2,31563,34867,32208,26346,13752,-4325,168,-1164,-1,-7,28,99,557,-177,1,0,17,35,320,0,53298,1
2,31543,34850,32198,26347,13764,-4317,170,-1165,3,-2,18,113,561,-189,1,0,17,35,360,0,53298,1
2,31548,34852,32206,26348,13776,-4317,178,-1169,2,3,20,117,559,-185,1,0,17,35,400,0,53298,1
2,31556,34859,32206,26349,13788,-4325,163,-1168,8,4,36,116,554,-196,1,0,17,35,440,0,53298,1
2,31553,34856,32204,26350,13801,-4320,170,-1163,7,5,19,109,553,-189,1,0,17,35,480,0,53298,1
2,31560,34875,32216,26351,13814,-4321,155,-1176,2,-2,2,117,559,-195,1,0,17,35,520,0,53298,1
2,31552,34862,32214,26352,13826,-4313,173,-1175,11,-14,1,119,553,-181,1,0,17,35,560,0,53298,1
2,31541,34856,32200,26353,13839,-4336,159,-1175,-5,-29,3,120,560,-180,1,0,17,35,600,0,53298,1
2,31550,34864,32206,26354,13852,-4333,168,-1162,-22,-47,-10,112,554,-198,1,0,17,35,640,0,53298,1
2,31559,34861,32214,26355,13865,-4324,169,-1167,-49,-70,11,121,559,-187,1,0,17,35,680,0,53298,1
2,31560,34859,32209,26356,13878,-4317,171,-1185,-77,-86,4,117,545,-197,1,0,17,35,720,0,53298,1
2,31545,34861,32205,26357,13890,-4330,158,-1163,-64,-82,-4,113,551,-179,1,0,17,35,760,0,53298,1
2,31550,34859,32210,26358,13903,-4316,175,-1146,-20,-72,16,121,551,-185,1,0,17,35,800,0,53298,1
2,31554,34864,32207,26359,13916,-4322,171,-1157,1,-30,70,109,549,-191,1,0,17,35,840,0,53298,1
2,31584,34880,32218,26360,13928,-4327,161,-1146,34,11,104,117,555,-185,1,0,17,35,880,0,53298,1
2,31574,34863,32221,26361,13941,-4321,177,-1157,66,49,117,112,562,-184,1,0,17,35,920,0,53298,1
2,31580,34866,32214,26362,13953,-4309,187,-1170,89,100,89,115,555,-187,1,0,17,35,960,0,53298,1
1,31568,34873,32225,26363,0,-4310,192,-1172,63,133,62,114,552,-190,1,0,17,36,0,1,53298,1
2,31572,34870,32216,26364,13190,-4326,179,-1160,79,112,33,107,553,-195,1,0,17,36,40,1,53298,1
2,31573,34858,32208,26365,13204,-4302,183,-1194,19,55,26,107,557,-187,1,0,17,36,80,1,53298,1
2,31571,34869,32215,26366,13216,-4322,164,-1194,10,10,37,110,550,-188,1,0,17,36,120,1,53298,1
2,31571,34870,32220,26367,13231,-4320,175,-1184,-9,-50,33,111,557,-195,1,0,17,36,160,1,53298,1
2,31570,34862,32208,26368,13244,-4324,174,-1200,-41,-111,23,117,561,-197,1,0,17,36,200,1,53298,1
2,31568,34861,32211,26369,13258,-4315,177,-1170,-62,-133,12,114,556,-196,1,0,17,36,240,1,53298,1
2,31578,34871,32220,26370,13271,-4312,183,-1157,-51,-119,15,109,559,-189,1,0,17,36,280,1,53298,1
2,31568,34866,32215,26371,13285,-4325,179,-1141,-13,-63,40,110,554,-188,1,0,17,36,320,1,53298,1
2,31557,34858,32208,26372,13299,-4317,182,-1145,2,12,52,119,555,-191,1,0,17,36,360,1,53298,1
2,31563,34859,32211,26373,13314,-4322,179,-1169,39,92,51,114,554,-192,1,0,17,36,400,1,53298,1
2,31564,34863,32210,26374,13328,-4337,174,-1175,75,112,38,117,555,-185,1,0,17,36,440,1,53298,1
2,31563,34863,32211,26375,13342,-4317,186,-1180,60,94,23,114,558,-196,1,0,17,36,480,1,53298,1
2,31566,34863,32218,26376,13356,-4319,176,-1184,27,63,10,113,555,-193,1,0,17,36,520,1,53298,1
2,31570,34864,32213,26377,13369,-4322,168,-1183,36,20,24,107,547,-193,1,0,17,36,560,1,53298,1
0,31570,34864,32213,26377,13383,-4322,168,-1183,36,20,24,107,547,-193,1,0,17,36,560,1,53298,1
2,31557,34864,32215,26414,12241,-4311,182,-1160,-17,-33,11,106,556,-192,1,0,17,38,40,0,53298,1
2,31541,34853,32196,26415,12255,-4319,172,-1179,-5,-29,13,110,554,-178,1,0,17,38,80,0,53298,1
2,31577,34879,32228,26416,12269,-4328,184,-1185,3,-5,20,117,559,-193,1,0,17,38,120,0,53298,1
2,31580,34880,32227,26417,12282,-4328,164,-1191,3,-2,11,117,571,-185,1,0,17,38,160,0,53298,1
2,31573,34873,32227,26418,12295,-4331,164,-1166,6,-6,13,109,565,-187,1,0,17,38,200,0,53298,1
2,31563,34875,32218,26419,12308,-4319,169,-1180,-3,-26,20,119,559,-201,1,0,17,38,240,0,53298,1
2,31573,34878,32225,26420,12321,-4322,181,-1176,-10,-32,39,110,548,-192,1,0,17,38,280,0,53298,1
2,31597,34879,32230,26421,12334,-4324,178,-1177,-19,-26,46,117,561,-197,1,0,17,38,320,0,53298,1
2,31596,34890,32232,26422,12348,-4326,172,-1188,-23,-26,46,115,555,-197,1,0,17,38,360,0,53298,1
2,31601,34882,32239,26423,12361,-4325,178,-1175,-21,-28,58,109,549,-193,1,0,17,38,400,0,53298,1
2,31606,34886,32235,26424,12373,-4328,187,-1167,-23,-33,43,110,550,-196,1,0,17,38,440,0,53298,1
2,31605,34894,32235,26425,12386,-4318,163,-1184,-28,-44,59,101,561,-185,1,0,17,38,480,0,53298,1
2,31602,34892,32235,26426,12398,-4323,185,-1167,-15,-38,66,109,555,-183,1,0,17,38,520,0,53298,1
2,31605,34886,32236,26427,12412,-4315,182,-1167,-6,-31,61,111,547,-183,1,0,17,38,560,0,53298,1
2,31607,34885,32232,26428,12425,-4316,187,-1171,3,-36,64,121,557,-189,1,0,17,38,600,0,53298,1
2,31597,34888,32235,26429,12438,-4312,182,-1174,-4,-28,45,108,554,-194,1,0,17,38,640,0,53298,1
2,31600,34886,32230,26430,12453,-4319,184,-1165,-2,-8,32,110,558,-186,1,0,17,38,680,0,53298,1
2,31600,34885,32235,26431,12466,-4319,189,-1179,2,-2,23,118,550,-190,1,0,17,38,720,0,53298,1
2,31600,34882,32235,26432,12480,-4305,185,-1172,-5,-12,14,109,565,-191,1,0,17,38,760,0,53298,1
2,31603,34887,32228,26433,12492,-4315,191,-1169,0,-25,5,112,558,-198,1,0,17,38,800,0,53298,1
2,31601,34884,32236,26434,12505,-4333,171,-1184,6,-35,14,108,554,-188,1,0,17,38,840,0,53298,1
2,31603,34882,32238,26435,12518,-4311,180,-1158,9,-28,17,115,561,-195,1,0,17,38,880,0,53298,1
2,31599,34886,32229,26436,12531,-4309,194,-1169,21,-26,36,117,555,-193,1,0,17,38,920,0,53298,1
2,31604,34883,32235,26437,12545,-4325,168,-1180,20,13,39,112,554,-190,1,0,17,38,960,0,53298,1
1,31600,34883,32235,26438,0,-4319,177,-1168,30,20,30,114,556,-180,1,0,17,39,0,1,53298,1
2,31607,34884,32235,26439,11767,-4311,187,-1169,14,18,18,107,555,-195,1,0,17,39,40,1,53298,1
2,31603,34887,32235,26440,11780,-4323,169,-1179,2,3,6,111,553,-189,1,0,17,39,80,1,53298,1
2,31608,34887,32248,26441,11794,-4331,167,-1175,17,-10,-5,118,556,-198,1,0,17,39,120,1,53298,1
2,31611,34889,32235,26442,11808,-4329,183,-1186,0,-18,-11,105,557,-193,1,0,17,39,160,1,53298,1
2,31605,34891,32238,26443,11823,-4317,185,-1162,0,-14,-13,105,557,-183,1,0,17,39,200,1,53298,1
2,31606,34891,32240,26444,11837,-4303,182,-1172,-1,-25,6,112,558,-194,1,0,17,39,240,1,53298,1
2,31606,34889,32241,26445,11851,-4314,177,-1175,6,-13,35,101,561,-187,1,0,17,39,280,1,53298,1
2,31611,34893,32243,26446,11864,-4321,180,-1166,8,-11,52,116,558,-198,1,0,17,39,320,1,53298,1
2,31618,34894,32243,26447,11878,-4313,186,-1165,-5,-10,47,114,554,-194,1,0,17,39,360,1,53298,1
2,31601,34889,32244,26448,11891,-4319,184,-1173,4,2,41,110,568,-178,1,0,17,39,400,1,53298,1
2,31596,34888,32230,26449,11904,-4309,198,-1173,7,-11,44,108,558,-180,1,0,17,39,440,1,53298,1
2,31591,34883,32234,26450,11917,-4319,178,-1180,-20,-14,35,106,556,-190,1,0,17,39,480,1,53298,1
2,31587,34885,32235,26451,11931,-4318,182,-1171,-10,-33,43,111,557,-189,1,0,17,39,520,1,53298,1
2,31593,34882,32237,26452,11944,-4327,177,-1161,-11,-35,50,107,557,-187,1,0,17,39,560,1,53298,1
2,31597,34887,32235,26453,11957,-4309,189,-1165,-12,-26,50,112,556,-190,1,0,17,39,600,1,53298,1
2,31594,34888,32241,26454,11970,-4325,177,-1164,-5,-11,50,114,554,-194,1,0,17,39,640,1,53298,1
2,31597,34889,32243,26455,11984,-4327,176,-1171,12,-6,35,113,549,-189,1,0,17,39,680,1,53298,1
2,31610,34885,32239,26456,11997,-4326,179,-1186,7,8,24,114,558,-192,1,0,17,39,720,1,53298,1
2,31604,34884,32242,26457,12010,-4327,179,-1163,17,5,39,108,554,-182,1,0,17,39,760,1,53298,1
2,31597,34882,32235,26458,12023,-4314,188,-1168,10,2,44,118,558,-186,1,0,17,39,800,1,53298,1
2,31602,34887,32239,26459,12036,-4311,190,-1154,27,-4,85,114,556,-188,1,0,17,39,840,1,53298,1
2,31605,34890,32245,26460,12048,-4309,186,-1180,10,-13,61,113,547,-191,1,0,17,39,880,1,53298,1
2,31597,34880,32240,26461,12061,-4317,194,-1170,13,0,50,111,553,-193,1,0,17,39,920,1,53298,1
2,31592,34881,32234,26462,12073,-4326,199,-1174,-37,-27,88,114,548,-188,1,0,17,39,960,1,53298,1
1,31591,34879,32227,26463,0,-4282,185,-1192,23,-154,275,104,548,-184,1,0,17,40,0,0,53298,1
2,31569,34876,32226,26464,11293,-4299,238,-1269,56,-221,488,106,562,-178,1,0,17,40,40,0,53298,1
2,31667,30311,32215,26465,11306,-4549,97,-1496,-736,-14,927,108,564,-190,1,0,17,40,80,0,53298,1
2,31650,34952,32226,26466,11321,-4347,268,-1242,293,333,864,105,555,-195,1,0,17,40,120,0,53298,1
2,31494,34939,32219,26467,11336,-3435,1370,-1314,1658,248,2096,93,561,-195,1,0,17,40,160,0,53298,1
2,31483,34530,32198,26468,11351,-3600,1568,-1696,1744,1171,4811,86,556,-198,1,0,17,40,200,0,53298,1
2,31401,34400,32136,26469,11365,-3831,1549,-1619,779,2409,6482,68,548,-206,1,0,17,40,240,0,53298,1
2,31365,34170,32100,26470,11379,-3850,1649,-1666,-1560,3790,7748,46,534,-222,1,0,17,40,280,0,53298,1
2,31381,34527,32120,26471,11394,-3972,1785,-1781,-3064,4537,9496,20,524,-220,1,0,17,40,320,0,53298,1
2,31256,32415,31953,26472,11408,-4315,1686,-1772,-3276,4661,11093,-4,502,-230,1,0,17,40,360,0,53298,1
2,31245,32520,31946,26473,11422,-4297,1740,-1867,-3879,4773,12001,-35,467,-243,1,0,17,40,400,0,53298,1
2,31225,33545,31929,26474,11435,-4257,1341,-1678,-4820,4646,12256,-52,450,-254,1,0,17,40,440,0,53298,1
2,31207,33935,31948,26475,11450,-3750,1898,-1717,-5242,4701,12078,-68,422,-256,1,0,17,40,480,0,53298,1
2,31192,33672,31925,26476,11464,-3802,1518,-1416,-3736,4135,12084,-77,405,-245,1,0,17,40,520,0,53298,1
2,31204,33912,31934,26477,11479,-3707,1612,-1196,-3398,3519,10691,-78,398,-252,1,0,17,40,560,0,53298,1
2,31201,33648,31945,26478,11493,-3283,2067,-1037,-2918,2729,9216,-80,370,-268,1,0,17,40,600,0,53298,1
2,31181,33567,31925,26479,11507,-3021,2148,-1125,-3020,2321,8802,-78,356,-266,1,0,17,40,640,0,53298,1
2,31197,32106,31904,26480,11520,-3050,2466,-1331,-2001,1848,8245,-78,340,-262,1,0,17,40,680,0,53298,1
2,31201,33312,31905,26481,11534,-2488,3253,-1386,18,1173,7910,-78,314,-262,1,0,17,40,720,0,53298,1
2,31152,33472,31817,26482,11548,-2672,2818,-1477,160,473,7787,-83,313,-255,1,0,17,40,760,0,53298,1
2,31250,30236,31871,26483,11561,-2256,2438,-1549,-2249,194,6461,-72,306,-248,1,0,17,40,800,0,53298,1
2,31250,31792,31856,26484,11575,-2151,2329,-1505,-3459,551,6104,-66,282,-252,1,0,17,40,840,0,53298,1
2,31270,30314,31857,26485,11589,-2192,1552,-1643,-3534,679,5327,-71,279,-241,1,0,17,40,880,0,53298,1
2,31183,33163,31775,26486,11603,-1955,2092,-1488,-68,801,3848,-71,287,-247,1,0,17,40,920,0,53298,1
2,31262,34099,31823,26487,11617,-1749,2470,-1293,1811,681,2998,-55,273,-255,1,0,17,40,960,0,53298,1
1,31191,33799,31819,26488,0,-1731,2552,-1255,2058,661,2701,-64,268,-250,1,0,17,41,0,1,53298,1
2,31150,32410,31767,26489,10819,-1586,2936,-1322,276,745,1748,-63,279,-251,1,0,17,41,40,1,53298,1
2,31186,30591,31815,26490,10832,-1558,2929,-1364,-1142,588,1090,-70,278,-250,1,0,17,41,80,1,53298,1
2,31154,32188,31752,26491,10846,-1686,2431,-1349,-1950,445,723,-69,265,-251,1,0,17,41,120,1,53298,1
2,31189,33849,31823,26492,10858,-1616,2848,-1444,-749,284,114,-63,273,-255,1,0,17,41,160,1,53298,1
2,31150,33565,31790,26493,10871,-1624,2824,-1249,98,177,-78,-58,274,-244,1,0,17,41,200,1,53298,1
2,31149,31700,31748,26494,10885,-1679,2746,-1237,113,31,-525,-58,276,-242,1,0,17,41,240,1,53298,1
2,31166,31354,31741,26495,10898,-1547,3302,-1386,46,-297,-1049,-71,273,-237,1,0,17,41,280,1,53298,1
2,31147,32726,31752,26496,10911,-1625,2857,-1270,-454,-290,-543,-69,267,-255,1,0,17,41,320,1,53298,1
2,31142,33434,31765,26497,10923,-1572,3027,-1495,-1087,-180,-811,-65,279,-253,1,0,17,41,360,1,53298,1
2,31136,33492,31780,26498,10936,-1595,3151,-1503,-748,208,-494,-66,284,-244,1,0,17,41,400,1,53298,1
2,31129,33624,31777,26499,10949,-1655,2955,-1388,739,44,-174,-64,276,-244,1,0,17,41,440,1,53298,1
2,31107,33460,31768,26500,10961,-1650,3064,-1364,733,-67,-315,-79,281,-245,1,0,17,41,480,1,53298,1
2,31098,33576,31767,26501,10973,-1630,3162,-1247,332,157,-22,-74,276,-248,1,0,17,41,520,1,53298,1
2,31090,33365,31748,26502,10986,-1659,3082,-1122,-197,-67,162,-68,274,-238,1,0,17,41,560,1,53298,1
2,31078,32989,31717,26503,10998,-1656,2852,-1399,-2630,-105,-323,-69,275,-239,1,0,17,41,600,1,53298,1
2,31061,32968,31712,26504,11010,-1675,2856,-1407,-2006,162,-298,-67,283,-243,1,0,17,41,640,1,53298,1
2,31058,32423,31703,26505,11023,-1637,3016,-1382,59,-108,-47,-61,285,-249,1,0,17,41,680,1,53298,1
2,31065,32128,31700,26506,11036,-1629,3101,-1358,663,-100,-120,-65,285,-239,1,0,17,41,720,1,53298,1
2,31070,31639,31708,26507,11048,-1645,3210,-1295,2,57,-160,-69,275,-245,1,0,17,41,760,1,53298,1
2,31074,31693,31710,26508,11060,-1718,2894,-1265,-360,58,-78,-68,278,-230,1,0,17,41,800,1,53298,1
2,31079,31436,31716,26509,11073,-1694,2953,-1256,130,-189,-273,-65,271,-239,1,0,17,41,840,1,53298,1
2,31082,31445,31714,26510,11086,-1691,2885,-1254,-151,-152,-256,-66,280,-240,1,0,17,41,880,1,53298,1
2,31088,31410,31720,26511,11098,-1692,3020,-1231,124,-83,-268,-73,283,-237,1,0,17,41,920,1,53298,1
2,31076,31580,31717,26512,11111,-1712,3045,-1254,134,-279,-352,-58,272,-234,1,0,17,41,960,1,53298,1
1,31091,31559,31717,26513,0,-1716,2987,-1279,-267,-247,-424,-67,277,-245,1,0,17,42,0,0,53298,1
2,31088,31546,31725,26514,10344,-1729,2976,-1312,-406,-183,-403,-65,283,-243,1,0,17,42,40,0,53298,1
2,31084,31466,31722,26515,10356,-1698,3076,-1280,15,-226,-323,-69,283,-229,1,0,17,42,80,0,53298,1
2,31079,31533,31718,26516,10368,-1727,2997,-1297,-158,-181,-170,-69,285,-249,1,0,17,42,120,0,53298,1
2,31083,31492,31723,26517,10381,-1756,2984,-1274,-211,-110,-284,-76,280,-236,1,0,17,42,160,0,53298,1
2,31083,31455,31721,26518,10394,-1700,3024,-1296,-197,-191,-358,-67,287,-241,1,0,17,42,200,0,53298,1
2,31083,31475,31724,26519,10406,-1754,2935,-1277,-67,-77,-104,-65,279,-237,1,0,17,42,240,0,53298,1
2,31077,31572,31717,26520,10419,-1806,2895,-1185,65,-58,-219,-61,285,-245,1,0,17,42,280,0,53298,1
2,31075,31774,31711,26521,10431,-1790,2896,-1178,-157,-261,-569,-77,279,-233,1,0,17,42,320,0,53298,1
2,31072,31660,31717,26522,10444,-1796,2824,-1170,-535,-258,-704,-76,282,-236,1,0,17,42,360,0,53298,1
2,31080,31410,31722,26523,10457,-1917,2592,-1085,-369,-324,-951,-70,290,-234,1,0,17,42,400,0,53298,1
2,31084,31561,31723,26524,10469,-1971,2628,-1026,-158,-775,-1870,-67,291,-233,1,0,17,42,440,0,53298,1
2,31079,31625,31721,26525,10482,-2028,2414,-923,-775,-1096,-2700,-62,290,-236,1,0,17,42,480,0,53298,1
2,31091,31528,31730,26526,10495,-2097,2485,-985,-1604,-1218,-3555,-67,295,-225,1,0,17,42,520,0,53298,1
2,31105,31513,31742,26527,10508,-2046,2847,-1007,-1280,-1533,-3930,-75,303,-235,1,0,17,42,560,0,53298,1
2,31114,31612,31750,26528,10521,-2259,2738,-1118,-962,-1563,-3793,-74,310,-228,1,0,17,42,600,0,53298,1
2,31122,31797,31753,26529,10534,-2295,3156,-1226,-513,-1585,-4265,-74,322,-220,1,0,17,42,640,0,53298,1
2,31113,31776,31759,26530,10546,-2256,3214,-1115,-149,-1627,-4007,-73,331,-215,1,0,17,42,680,0,53298,1
2,31120,31788,31764,26531,10559,-2435,3042,-1250,-866,-1273,-3477,-75,321,-223,1,0,17,42,720,0,53298,1
2,31121,31953,31761,26532,10571,-2420,3089,-1111,51,-1113,-2848,-81,329,-213,1,0,17,42,760,0,53298,1
2,31128,31813,31777,26533,10583,-2587,2768,-1152,-140,-872,-2363,-69,339,-205,1,0,17,42,800,0,53298,1
2,31129,31690,31776,26534,10596,-2466,3089,-1139,71,-780,-2346,-57,333,-223,1,0,17,42,840,0,53298,1
2,31135,31779,31771,26535,10609,-2448,2820,-1019,-130,-551,-1410,-72,332,-224,1,0,17,42,880,0,53298,1
2,31127,32242,31769,26536,10623,-2688,2573,-1138,-517,-119,-1065,-71,345,-213,1,0,17,42,920,0,53298,1
2,31144,31974,31779,26537,10635,-2628,2741,-966,606,-269,-1424,-68,340,-222,1,0,17,42,960,0,53298,1
1,31143,32484,31782,26538,0,-2594,2537,-898,431,-341,-1317,-74,346,-216,1,0,17,43,0,0,53298,1
2,31152,32329,31791,26539,9871,-2797,2402,-1017,152,-189,-1274,-67,349,-213,1,0,17,43,40,0,53298,1
2,31158,32344,31800,26540,9885,-2677,2643,-934,454,-217,-1529,-78,348,-202,1,0,17,43,80,0,53298,1
2,31180,32473,31825,26541,9899,-2683,2711,-995,47,-238,-1465,-68,348,-218,1,0,17,43,120,0,53298,1
2,31220,32225,31856,26542,9912,-2780,2606,-1022,-30,-185,-1274,-68,354,-216,1,0,17,43,160,0,53298,1
2,31293,31959,31934,26543,9926,-2830,2568,-992,345,-135,-1299,-59,359,-209,1,0,17,43,200,0,53298,1
2,31328,31251,31947,26544,9940,-2717,2752,-960,654,-203,-1256,-76,362,-208,1,0,17,43,240,0,53298,1
2,31355,30694,31970,26545,9952,-2820,2563,-955,268,-205,-793,-64,360,-210,1,0,17,43,280,0,53298,1
2,31400,30041,32023,26546,9965,-2880,2502,-1015,27,-91,-748,-71,361,-219,1,0,17,43,320,0,53298,1
2,31423,30067,32051,26547,9978,-2896,2457,-936,469,-269,-930,-61,367,-215,1,0,17,43,360,0,53298,1
2,31425,30100,32053,26548,9991,-2838,2459,-1011,196,-271,-932,-61,373,-213,1,0,17,43,400,0,53298,1
2,31422,30067,32054,26549,10003,-2929,2232,-1005,153,-204,-858,-73,371,-205,1,0,17,43,440,0,53298,1
2,31425,30092,32052,26550,10016,-3085,2032,-978,585,-231,-1376,-63,375,-219,1,0,17,43,480,0,53298,1
2,31308,32570,31955,26551,10028,-2953,2231,-918,1147,-540,-2194,-64,374,-204,1,0,17,43,520,0,53298,1
2,31395,34119,32053,26552,10040,-2843,2386,-916,1036,-788,-2300,-65,383,-217,1,0,17,43,560,0,53298,1
2,31386,34191,32039,26553,10053,-3010,2422,-1033,-129,-570,-2153,-50,380,-214,1,0,17,43,600,0,53298,1
2,31379,34104,32034,26554,10065,-3049,2655,-1122,51,-462,-2045,-53,393,-201,1,0,17,43,640,0,53298,1
2,31366,33812,32021,26555,10077,-3102,2654,-1059,601,-541,-1493,-54,392,-210,1,0,17,43,680,0,53298,1
2,31433,30107,32011,26556,10090,-3088,2490,-873,-182,-848,-971,-54,384,-200,1,0,17,43,720,0,53298,1
2,31512,30182,32111,26557,10103,-3100,2431,-1377,-1667,513,-641,-56,392,-212,1,0,17,43,760,0,53298,1
2,31479,30113,32087,26558,10116,-3142,2345,-1045,-30,458,-292,-60,402,-210,1,0,17,43,800,0,53298,1
2,31507,30111,32129,26559,10128,-3147,2219,-1027,243,211,-418,-58,394,-202,1,0,17,43,840,0,53298,1
2,31509,30132,32137,26560,10141,-3019,2343,-1116,923,197,-210,-58,390,-222,1,0,17,43,880,0,53298,1
2,31474,30140,32119,26561,10153,-3077,2256,-1101,1995,250,157,-56,394,-212,1,0,17,43,920,0,53298,1
2,31450,30163,32102,26562,10166,-3152,2253,-1008,2446,385,214,-60,386,-212,1,0,17,43,960,0,53298,1
1,31410,30054,32061,26563,0,-3135,2255,-1036,1949,400,91,-62,402,-222,1,0,17,44,0,1,53298,1
2,31397,30044,32034,26564,9397,-3109,2248,-1040,1299,352,-3,-55,393,-219,1,0,17,44,40,1,53298,1
2,31366,30421,32023,26565,9410,-3119,2134,-1055,767,255,4,-60,400,-220,1,0,17,44,80,1,53298,1
2,31402,30079,32053,26566,9423,-3147,2097,-1064,482,80,-197,-56,392,-220,1,0,17,44,120,1,53298,1
2,31422,30090,32069,26567,9436,-3214,1902,-1121,310,-71,-475,-64,398,-220,1,0,17,44,160,1,53298,1
2,31442,30125,32102,26568,9449,-3240,1827,-1247,860,7,-923,-54,404,-226,1,0,17,44,200,1,53298,1
2,31434,30094,32105,26569,9462,-3251,1909,-1209,2264,-149,-1550,-57,405,-239,1,0,17,44,240,1,53298,1
2,31439,30090,32107,26570,9475,-3254,1889,-1337,3123,-149,-1960,-53,417,-237,1,0,17,44,280,1,53298,1
2,31439,30055,32097,26571,9487,-3373,1711,-1299,3845,-129,-2341,-51,419,-235,1,0,17,44,320,1,53298,1
2,31427,30065,32102,26572,9500,-3442,1616,-1353,4180,-258,-3115,-57,419,-245,1,0,17,44,360,1,53298,1
2,31420,30071,32089,26573,9513,-3391,1729,-1399,4361,-468,-3853,-49,435,-247,1,0,17,44,400,1,53298,1
2,31411,30063,32093,26574,9525,-3431,1655,-1397,3782,-597,-4222,-51,447,-251,1,0,17,44,440,1,53298,1
2,31424,30063,32102,26575,9537,-3380,1987,-1727,2872,-146,-4166,-41,449,-249,1,0,17,44,480,1,53298,1
2,31421,30061,32109,26576,9551,-3581,1794,-1826,3285,80,-3785,-32,458,-244,1,0,17,44,520,1,53298,1
2,31430,30069,32124,26577,9565,-3779,1660,-1865,4149,159,-3668,-32,470,-258,1,0,17,44,560,1,53298,1
2,31435,30076,32125,26578,9578,-3950,1528,-1862,4827,115,-3794,-35,473,-263,1,0,17,44,600,1,53298,1
2,31449,30080,32131,26579,9592,-4014,966,-1734,5163,12,-4306,-22,490,-278,1,0,17,44,640,1,53298,1
2,31447,30078,32140,26580,9605,-3921,764,-1649,4372,-187,-5349,-4,506,-274,1,0,17,44,680,1,53298,1
2,31450,30083,32132,26581,9619,-3913,659,-1549,3166,-434,-6084,12,512,-280,1,0,17,44,720,1,53298,1
2,31404,30077,32076,26582,9633,-3889,687,-1377,2891,-901,-6222,18,536,-282,1,0,17,44,760,1,53298,1
2,31388,30072,32053,26583,9648,-4122,327,-1246,1834,-1800,-6709,37,547,-275,1,0,17,44,800,1,53298,1
2,31385,30076,32041,26584,9662,-4280,481,-1387,-30,-2642,-7598,56,558,-280,1,0,17,44,840,1,53298,1
2,31398,30087,32034,26585,9676,-4026,602,-1420,-1124,-3101,-8136,80,564,-266,1,0,17,44,880,1,53298,1
2,31407,30124,32017,26586,9691,-4083,661,-1478,-2033,-3246,-8271,104,574,-262,1,0,17,44,920,1,53298,1
2,31415,30145,32023,26587,9705,-3968,816,-1494,-2518,-3186,-7936,120,580,-254,1,0,17,44,960,1,53298,1
1,31430,30175,32024,26588,0,-3967,787,-1375,-2183,-2938,-6878,127,593,-243,1,0,17,45,0,1,53298,1
2,31419,30236,32043,26589,8926,-4059,930,-1367,-2637,-2711,-5575,158,592,-236,1,0,17,45,40,1,53298,1
2,31462,30156,32073,26590,8940,-3970,830,-1244,-2808,-2528,-3917,150,588,-222,1,0,17,45,80,1,53298,1
2,31434,34395,32121,26591,8955,-3927,626,-1184,-3163,-2507,-2352,165,585,-221,1,0,17,45,120,1,53298,1
2,31375,33974,31990,26592,8969,-3998,1069,-1358,-4592,-2149,-1134,160,582,-206,1,0,17,45,160,1,53298,1
2,31373,30543,32056,26593,8982,-4469,-166,-1872,-6212,-548,306,158,580,-204,1,0,17,45,200,1,53298,1
2,31400,33476,32045,26594,8996,-5120,-1022,-1851,-1705,13,696,151,587,-199,1,0,17,45,240,1,53298,1
2,31380,31094,32016,26595,9011,-4314,99,-1151,690,136,-302,149,585,-199,1,0,17,45,280,1,53298,1
2,31403,33701,31994,26596,9025,-4135,107,-869,2425,-453,210,153,587,-203,1,0,17,45,320,1,53298,1
2,31368,33271,32004,26597,9038,-4332,-180,-1216,903,-144,201,150,576,-204,1,0,17,45,360,1,53298,1
2,31382,33872,32020,26598,9051,-4489,-12,-1357,673,177,88,151,593,-197,1,0,17,45,400,1,53298,1
2,31360,33608,32011,26599,9064,-4451,99,-1042,1310,201,-72,146,584,-206,1,0,17,45,440,1,53298,1
2,31353,33444,31989,26600,9077,-4399,-38,-1086,1173,198,-315,149,587,-205,1,0,17,45,480,1,53298,1
2,31357,33684,31998,26601,9091,-4330,-92,-1168,998,304,-397,154,584,-202,1,0,17,45,520,1,53298,1
2,31384,34139,32046,26602,9104,-4382,-77,-1172,537,521,-424,151,585,-207,1,0,17,45,560,1,53298,1
2,31367,33788,31991,26603,9118,-4394,-120,-1183,270,535,-331,165,581,-205,1,0,17,45,600,1,53298,1
2,31350,33608,31991,26604,9132,-4340,-129,-1268,332,358,-169,154,580,-198,1,0,17,45,640,1,53298,1
2,31355,33472,31983,26605,9146,-4328,-141,-1309,301,204,-35,150,570,-202,1,0,17,45,680,1,53298,1
2,31348,33251,31965,26606,9160,-4343,-118,-1274,193,84,23,152,576,-200,1,0,17,45,720,1,53298,1
2,31342,32910,31968,26607,9173,-4383,-116,-1226,115,-35,40,158,570,-202,1,0,17,45,760,1,53298,1
2,31349,32523,31971,26608,9186,-4347,-115,-1237,-9,-127,41,162,584,-208,1,0,17,45,800,1,53298,1
2,31347,32500,31975,26609,9200,-4376,-141,-1229,-56,-105,45,149,577,-211,1,0,17,45,840,1,53298,1
2,31355,32104,31975,26610,9215,-4362,-97,-1199,11,-51,57,156,582,-202,1,0,17,45,880,1,53298,1
2,31355,32161,31973,26611,9229,-4370,-101,-1208,52,-22,70,160,582,-212,1,0,17,45,920,1,53298,1
2,31358,31702,31980,26612,9243,-4354,-102,-1220,-5,-14,49,157,591,-199,1,0,17,45,960,1,53298,1
1,31367,31468,31986,26613,0,-4352,-117,-1237,-46,-5,-5,162,580,-206,1,0,17,46,0,0,53298,1
2,31386,30966,32006,26614,8452,-4356,-128,-1227,4,-3,-25,148,576,-208,1,0,17,46,40,0,53298,1
2,31388,30770,32004,26615,8465,-4359,-107,-1218,39,18,-18,157,587,-203,1,0,17,46,80,0,53298,1
2,31400,30668,32021,26616,8479,-4378,-116,-1190,31,55,-13,149,585,-193,1,0,17,46,120,0,53298,1
2,31403,30605,32015,26617,8492,-4374,-110,-1212,29,69,-20,154,586,-208,1,0,17,46,160,0,53298,1
2,31401,30513,32022,26618,8506,-4366,-118,-1229,40,67,-48,161,591,-201,1,0,17,46,200,0,53298,1
2,31400,30511,32025,26619,8519,-4359,-127,-1231,48,69,-42,150,586,-204,1,0,17,46,240,0,53298,1
2,31413,30513,32020,26620,8534,-4370,-129,-1235,34,54,-29,156,580,-200,1,0,17,46,280,0,53298,1
2,31411,30511,32030,26621,8549,-4367,-126,-1236,41,20,-13,155,593,-205,1,0,17,46,320,0,53298,1
2,31402,30520,32029,26622,8564,-4366,-127,-1235,26,-10,1,155,573,-203,1,0,17,46,360,0,53298,1
2,31400,30616,32019,26623,8579,-4366,-126,-1245,-10,-32,7,155,581,-211,1,0,17,46,400,0,53298,1
2,31409,30461,32029,26624,8593,-4362,-125,-1227,-15,-51,31,158,588,-208,1,0,17,46,440,0,53298,1
2,31407,30466,32025,26625,8607,-4364,-135,-1211,-5,-25,57,154,596,-204,1,0,17,46,480,0,53298,1
2,31408,30398,32024,26626,8620,-4364,-117,-1214,31,18,70,150,580,-210,1,0,17,46,520,0,53298,1
2,31402,30530,32023,26627,8634,-4357,-112,-1232,38,49,43,158,590,-212,1,0,17,46,560,0,53298,1
2,31413,30411,32027,26628,8647,-4358,-116,-1242,27,57,13,158,582,-200,1,0,17,46,600,0,53298,1
2,31415,30349,32039,26629,8661,-4370,-133,-1231,24,52,4,147,579,-207,1,0,17,46,640,0,53298,1
2,31416,30352,32032,26630,8674,-4360,-127,-1225,48,26,13,162,584,-214,1,0,17,46,680,0,53298,1
2,31415,30372,32031,26631,8688,-4356,-120,-1240,34,14,37,146,580,-210,1,0,17,46,720,0,53298,1
2,31420,30344,32038,26632,8703,-4370,-118,-1227,47,12,31,154,590,-194,1,0,17,46,760,0,53298,1
2,31417,30295,32039,26633,8717,-4367,-128,-1253,43,-4,13,157,573,-209,1,0,17,46,800,0,53298,1
2,31423,30316,32038,26634,8730,-4364,-123,-1230,9,-5,0,150,586,-202,1,0,17,46,840,0,53298,1
2,31412,30406,32045,26635,8744,-4356,-132,-1242,10,11,14,153,583,-201,1,0,17,46,880,0,53298,1
2,31421,30288,32039,26636,8758,-4363,-117,-1228,56,43,38,152,582,-200,1,0,17,46,920,0,53298,1
2,31421,30320,32035,26637,8771,-4361,-122,-1229,50,30,45,155,585,-197,1,0,17,46,960,0,53298,1
1,31423,30222,32040,26638,0,-4359,-124,-1244,2,7,30,149,585,-209,1,0,17,47,0,1,53298,1
2,31429,30204,32041,26639,7980,-4353,-119,-1253,-17,-16,1,147,583,-209,1,0,17,47,40,1,53298,1
2,31420,30240,32047,26640,7994,-4366,-125,-1234,2,-56,2,152,584,-210,1,0,17,47,80,1,53298,1
2,31426,30301,32048,26641,8009,-4370,-128,-1231,-28,-75,19,155,579,-205,1,0,17,47,120,1,53298,1
2,31429,30198,32049,26642,8024,-4350,-102,-1233,-52,-75,16,150,584,-210,1,0,17,47,160,1,53298,1
2,31434,30181,32049,26643,8038,-4359,-130,-1240,-33,-59,-16,155,583,-205,1,0,17,47,200,1,53298,1
2,31430,30169,32046,26644,8052,-4369,-137,-1233,-13,-34,6,155,579,-205,1,0,17,47,240,1,53298,1
2,31437,30197,32048,26645,8066,-4362,-116,-1216,-2,-10,51,161,575,-201,1,0,17,47,280,1,53298,1
2,31430,30182,32049,26646,8081,-4358,-111,-1206,-7,5,70,160,576,-204,1,0,17,47,320,1,53298,1
2,31435,30158,32051,26647,8096,-4360,-127,-1225,43,76,74,145,579,-209,1,0,17,47,360,1,53298,1
2,31432,30178,32042,26648,8111,-4358,-103,-1210,173,133,62,157,589,-195,1,0,17,47,400,1,53298,1
2,31432,30181,32049,26649,8126,-4359,-109,-1216,232,170,74,150,586,-210,1,0,17,47,440,1,53298,1
2,31425,30252,32037,26650,8142,-4367,-144,-1215,160,182,160,152,588,-206,1,0,17,47,480,1,53298,1
2,31436,30261,32045,26651,8156,-4368,-140,-1263,50,163,303,148,584,-194,1,0,17,47,520,1,53298,1
2,31432,30280,32035,26652,8171,-4350,-129,-1272,165,40,450,156,582,-202,1,0,17,47,560,1,53298,1
2,31444,30189,32042,26653,8186,-4364,-83,-1261,248,-47,439,154,582,-210,1,0,17,47,600,1,53298,1
2,31446,30175,32049,26654,8201,-4355,-85,-1267,155,-84,288,154,584,-208,1,0,17,47,640,1,53298,1
2,31439,30199,32038,26655,8216,-4339,-71,-1265,102,-36,74,144,588,-200,1,0,17,47,680,1,53298,1
2,31437,30281,32037,26656,8231,-4365,-88,-1222,114,42,-93,154,588,-214,1,0,17,47,720,1,53298,1
2,31434,30289,32036,26657,8245,-4380,-117,-1207,67,74,-75,160,586,-208,1,0,17,47,760,1,53298,1
2,31445,30238,32037,26658,8259,-4347,-105,-1250,64,55,56,153,583,-203,1,0,17,47,800,1,53298,1
2,31446,30234,32039,26659,8273,-4345,-120,-1255,192,81,142,145,583,-205,1,0,17,47,840,1,53298,1
2,31450,30193,32045,26660,8287,-4333,-102,-1297,324,185,131,143,579,-205,1,0,17,47,880,1,53298,1
2,31460,30145,32050,26661,8302,-4341,-97,-1312,298,268,20,159,573,-217,1,0,17,47,920,1,53298,1
2,31451,30154,32045,26662,8316,-4343,-87,-1307,118,178,-106,149,581,-201,1,0,17,47,960,1,53298,1
1,31445,30199,32048,26663,7507,-4337,-132,-1314,-43,-23,-148,152,574,-210,1,0,17,48,0,1,53298,1
2,31446,30216,32044,26664,7519,-4337,-127,-1284,10,-154,-73,155,581,-213,1,0,17,48,40,1,53298,1
2,31450,30193,32046,26665,7532,-4360,-104,-1239,100,-194,61,144,576,-204,1,0,17,48,80,1,53298,1
2,31454,30202,32049,26666,7546,-4355,-91,-1219,89,-128,115,159,583,-203,1,0,17,48,120,1,53298,1
2,31451,30231,32042,26667,7560,-4347,-111,-1239,4,28,76,150,582,-212,1,0,17,48,160,1,53298,1
2,31455,30200,32045,26668,7574,-4351,-106,-1273,28,165,38,154,582,-208,1,0,17,48,200,1,53298,1
2,31446,30196,32045,26669,7587,-4355,-103,-1281,161,203,5,152,578,-200,1,0,17,48,240,1,53298,1
2,31450,30222,32045,26670,7601,-4356,-107,-1274,162,159,-14,147,585,-201,1,0,17,48,280,1,53298,1
2,31453,30190,32048,26671,7601,-4343,-121,-1290,37,85,-56,155,581,-205,1,0,17,48,320,1,53298,1
2,31455,30165,32049,26672,7629,-4320,-124,-1296,-24,5,-41,154,580,-208,1,0,17,48,360,1,53298,1
2,31451,30191,32049,26673,7629,-4335,-118,-1303,-14,-59,24,150,584,-214,1,0,17,48,400,1,53298,1
2,31446,30208,32049,26674,7644,-4344,-113,-1270,-5,-90,74,150,576,-212,1,0,17,48,440,1,53298,1
2,31451,30186,32054,26675,7658,-4344,-99,-1265,-17,-67,88,152,586,-214,1,0,17,48,480,1,53298,1
2,31456,30162,32049,26676,7672,-4354,-95,-1273,-31,-33,49,157,581,-211,1,0,17,48,520,1,53298,1
2,31455,30171,32056,26677,7686,-4367,-115,-1272,-2,5,17,147,585,-211,1,0,17,48,560,1,53298,1
2,31455,30163,32060,26678,7699,-4350,-116,-1289,24,35,1,147,585,-201,1,0,17,48,600,1,53298,1
2,31459,30153,32052,26679,7713,-4345,-111,-1267,53,42,19,149,581,-209,1,0,17,48,640,1,53298,1
2,31452,30172,32049,26680,7726,-4344,-109,-1289,25,42,25,152,576,-206,1,0,17,48,680,1,53298,1
2,31455,30137,32053,26681,7740,-4341,-103,-1293,9,18,27,141,585,-207,1,0,17,48,720,1,53298,1
2,31458,30152,32054,26682,7754,-4342,-102,-1283,35,7,22,139,575,-203,1,0,17,48,760,1,53298,1
2,31460,30129,32052,26683,7768,-4340,-95,-1276,8,-3,-3,156,590,-214,1,0,17,48,800,1,53298,1
2,31457,30133,32057,26684,7782,-4336,-104,-1267,-16,-11,-4,149,581,-209,1,0,17,48,840,1,53298,1
2,31459,30108,32056,26685,7797,-4339,-110,-1253,-4,-7,25,149,585,-205,1,0,17,48,880,1,53298,1
2,31460,30102,32060,26686,7813,-4334,-100,-1275,4,-6,53,151,581,-215,1,0,17,48,920,1,53298,1
2,31461,30092,32057,26687,7828,-4340,-101,-1288,-52,-27,72,158,582,-210,1,0,17,48,960,1,53298,1
1,31467,30114,32059,26688,7035,-4353,-117,-1289,-102,-59,135,149,573,-203,1,0,17,49,0,1,53298,1
2,31469,30113,32062,26689,7050,-4390,-54,-1262,-149,-172,270,143,585,-209,1,0,17,49,40,1,53298,1
2,31479,30113,32073,26690,7064,-4385,-72,-1316,-465,-292,527,154,578,-208,1,0,17,49,80,1,53298,1
2,31384,32743,31987,26691,7079,-4355,146,-1634,-1036,-251,654,148,596,-206,1,0,17,49,120,1,53298,1
2,31406,34178,31990,26692,7094,-4586,-110,-1231,-1249,-424,951,141,579,-197,1,0,17,49,160,1,53298,1
2,31501,30175,32099,26693,7110,-4270,166,-1261,213,-385,1121,146,582,-214,1,0,17,49,200,1,53298,1
2,31383,32096,31985,26694,7126,-3742,1217,-1159,-1141,-283,1908,130,578,-210,1,0,17,49,240,1,53298,1
2,31379,34192,31983,26695,7143,-3963,1021,-1460,-2506,336,3893,127,579,-217,1,0,17,49,280,1,53298,1
2,31431,34600,32073,26696,7160,-4064,1161,-1649,-2298,1159,6043,107,575,-207,1,0,17,49,320,1,53298,1
2,31458,34664,32107,26697,7177,-3971,1318,-1710,-1309,1829,7989,68,562,-224,1,0,17,49,360,1,53298,1
2,31392,34507,32057,26698,7193,-3658,1681,-1942,-201,2625,10083,56,554,-224,1,0,17,49,400,1,53298,1
2,31385,34468,32056,26699,7210,-3597,2064,-2027,724,4004,12542,19,529,-241,1,0,17,49,440,1,53298,1
2,31295,32872,31956,26700,7226,-3762,2221,-1943,256,5467,14819,-25,507,-253,1,0,17,49,480,1,53298,1
2,31333,34407,32024,26701,7242,-3974,2658,-1824,-1382,6280,16611,-50,470,-260,1,0,17,49,520,1,53298,1
2,31367,34576,32070,26702,7258,-3820,3251,-1708,-3554,6175,18349,-76,414,-272,1,0,17,49,560,1,53298,1
2,31276,34070,31987,26703,7273,-4086,3223,-1911,-6238,6433,20584,-87,379,-271,1,0,17,49,600,1,53298,1
2,31240,33723,31953,26704,7287,-5134,2118,-1577,-5802,6153,20840,-92,344,-278,1,0,17,49,640,1,53298,1
2,31212,33557,31916,26705,7302,-4246,1441,-1192,-4488,4712,16726,-85,311,-259,1,0,17,49,680,1,53298,1
2,31188,33429,31895,26706,7317,-3038,1344,-1396,-3899,3256,12624,-73,291,-265,1,0,17,49,720,1,53298,1
2,31189,33212,31885,26707,7332,-2931,736,-1158,-1787,2598,10735,-74,288,-272,1,0,17,49,760,1,53298,1
2,31178,32822,31862,26708,7346,-2323,1295,-1469,-1210,1974,8053,-65,277,-267,1,0,17,49,800,1,53298,1
2,31178,32478,31870,26709,7360,-1859,1947,-1343,-779,1411,5224,-71,267,-261,1,0,17,49,840,1,53298,1
2,31183,32339,31826,26710,7375,-1401,2588,-1386,-724,639,3232,-71,257,-259,1,0,17,49,880,1,53298,1
2,31202,32265,31845,26711,7389,-1177,3125,-1642,-2135,966,2624,-65,269,-257,1,0,17,49,920,1,53298,1
2,31197,32324,31881,26712,7389,-1230,3126,-1518,-2768,1372,2585,-65,261,-247,1,0,17,49,960,1,53298,1
1,31075,32357,31770,26713,6562,-1091,3266,-1529,-2476,1202,2282,-61,261,-245,1,0,17,50,0,0,53298,1
2,31170,32725,31834,26714,6577,-1247,3116,-1437,-1854,1340,2666,-73,243,-237,1,0,17,50,40,0,53298,1
2,31169,32698,31852,26715,6592,-1322,2767,-1375,-1158,1322,2744,-63,253,-243,1,0,17,50,80,0,53298,1
2,31249,33350,31889,26716,6606,-1318,2780,-1206,-363,1192,2329,-55,247,-245,1,0,17,50,120,0,53298,1
2,31255,33159,31880,26717,6620,-1358,2593,-1172,-732,708,1479,-66,242,-246,1,0,17,50,160,0,53298,1
2,31236,33365,31868,26718,6635,-1063,2851,-1364,-1180,294,644,-61,253,-239,1,0,17,50,200,0,53298,1
2,31189,33675,31857,26719,6649,-1124,2820,-1242,-399,371,586,-58,232,-240,1,0,17,50,240,0,53298,1
2,31098,33136,31815,26720,6664,-1003,2939,-1292,48,-158,-43,-58,254,-246,1,0,17,50,280,0,53298,1
2,30980,32147,31675,26721,6678,-1062,3105,-1216,749,-401,-259,-57,255,-239,1,0,17,50,320,0,53298,1
2,30998,32412,31685,26722,6692,-1053,3075,-1369,155,-328,-349,-62,252,-238,1,0,17,50,360,0,53298,1
2,30986,32553,31672,26723,6706,-1090,3148,-1278,134,-249,-452,-65,255,-243,1,0,17,50,400,0,53298,1
2,31009,32023,31685,26724,6720,-1058,3225,-1400,-181,-371,-634,-54,250,-240,1,0,17,50,440,0,53298,1
2,31044,32513,31712,26725,6734,-1042,3267,-1372,-57,-175,-338,-66,256,-248,1,0,17,50,480,0,53298,1
2,31111,31658,31785,26726,6748,-1124,3142,-1271,-246,-57,-183,-64,250,-238,1,0,17,50,520,0,53298,1
2,31141,31469,31797,26727,6761,-1084,3196,-1329,-309,-321,-354,-54,244,-248,1,0,17,50,560,0,53298,1
2,31138,31578,31792,26728,6775,-1108,3188,-1328,-73,-219,-76,-59,245,-243,1,0,17,50,600,0,53298,1
2,31156,31102,31803,26729,6789,-1091,3182,-1314,-198,-163,35,-55,253,-239,1,0,17,50,640,0,53298,1
2,31153,31012,31805,26730,6802,-1116,3183,-1306,-159,-206,17,-65,255,-245,1,0,17,50,680,0,53298,1
2,31154,31029,31801,26731,6815,-1132,3030,-1296,8,-218,88,-67,245,-235,1,0,17,50,720,0,53298,1
2,31160,30693,31815,26732,6829,-1116,3032,-1310,138,-306,-102,-66,248,-230,1,0,17,50,760,0,53298,1
2,31152,30587,31806,26733,6842,-1117,3065,-1359,27,-137,-156,-64,248,-244,1,0,17,50,800,0,53298,1
2,31164,30468,31818,26734,6855,-1171,3085,-1357,-102,-150,-482,-67,253,-243,1,0,17,50,840,0,53298,1
2,31166,30311,31830,26735,6868,-1161,3102,-1370,196,-425,-829,-65,257,-241,1,0,17,50,880,0,53298,1
2,31103,32682,31780,26736,6881,-1169,3093,-1402,47,-268,-777,-67,245,-237,1,0,17,50,920,0,53298,1
2,31105,33119,31782,26737,6881,-1172,3178,-1338,283,-178,-641,-63,249,-251,1,0,17,50,960,0,53298,1
1,31121,33764,31802,26738,6090,-1192,3255,-1333,515,-150,-422,-60,246,-238,1,0,17,51,0,1,53298,1
2,31122,33850,31822,26739,6103,-1208,3178,-1264,126,-48,-297,-60,256,-250,1,0,17,51,40,1,53298,1
2,31133,33979,31828,26740,6116,-1199,3111,-1283,-279,-60,-306,-72,256,-236,1,0,17,51,80,1,53298,1
2,31125,33971,31821,26741,6130,-1182,3149,-1329,-153,-50,-117,-64,256,-240,1,0,17,51,120,1,53298,1
2,31120,33804,31813,26742,6142,-1237,3160,-1336,193,67,152,-63,251,-245,1,0,17,51,160,1,53298,1
2,31123,33789,31819,26743,6155,-1273,3049,-1276,76,42,73,-59,259,-245,1,0,17,51,200,1,53298,1
2,31121,33784,31814,26744,6169,-1203,3102,-1344,-356,3,-89,-59,253,-241,1,0,17,51,240,1,53298,1
2,31132,33860,31825,26745,6184,-1247,2997,-1261,-133,34,31,-58,252,-250,1,0,17,51,280,1,53298,1
2,31136,33800,31817,26746,6198,-1232,2970,-1200,-45,-265,-289,-64,254,-234,1,0,17,51,320,1,53298,1
2,31128,33747,31811,26747,6211,-1249,2968,-1239,-257,-432,-567,-61,257,-243,1,0,17,51,360,1,53298,1
2,31131,33915,31820,26748,6225,-1322,2870,-1201,-488,-429,-763,-65,261,-229,1,0,17,51,400,1,53298,1
2,31129,33903,31817,26749,6238,-1369,2865,-1171,-478,-619,-1177,-60,262,-240,1,0,17,51,440,1,53298,1
2,31130,33970,31819,26750,6251,-1417,2919,-1134,-582,-945,-1789,-70,262,-228,1,0,17,51,480,1,53298,1
2,31143,33977,31838,26751,6264,-1398,2933,-1150,-1062,-1105,-2219,-62,262,-240,1,0,17,51,520,1,53298,1
2,31139,33925,31827,26752,6276,-1488,2937,-1088,-1116,-1173,-2527,-70,264,-232,1,0,17,51,560,1,53298,1
2,31162,33974,31839,26753,6289,-1534,2902,-1105,-842,-1360,-2797,-69,269,-223,1,0,17,51,600,1,53298,1
2,31054,33821,31754,26754,6301,-1637,3020,-1082,-592,-1567,-3169,-67,269,-233,1,0,17,51,640,1,53298,1
2,31084,33717,31800,26755,6313,-1650,3101,-1130,-559,-1576,-3122,-67,285,-233,1,0,17,51,680,1,53298,1
2,31103,33325,31776,26756,6325,-1840,2984,-1097,-428,-1509,-2948,-79,275,-223,1,0,17,51,720,1,53298,1
2,31111,33712,31794,26757,6338,-1738,3279,-1083,-690,-1715,-3119,-81,281,-227,1,0,17,51,760,1,53298,1
2,31093,33415,31780,26758,6351,-1808,3155,-1266,-1279,-1155,-2388,-75,287,-221,1,0,17,51,800,1,53298,1
2,31061,33094,31744,26759,6364,-2056,3097,-1195,-844,-978,-2429,-68,294,-220,1,0,17,51,840,1,53298,1
2,31063,33081,31739,26760,6378,-1790,3144,-1329,-520,-1070,-2495,-78,296,-214,1,0,17,51,880,1,53298,1
2,31050,32662,31729,26761,6391,-2070,2899,-1359,413,-389,-1783,-73,295,-221,1,0,17,51,920,1,53298,1
2,31056,32708,31725,26762,6391,-1985,3316,-1240,1346,-448,-2096,-76,300,-226,1,0,17,51,960,1,53298,1
1,31075,32181,31750,26763,5617,-2091,2863,-1276,783,-60,-1637,-77,305,-227,1,0,17,52,0,1,53298,1
2,31112,32267,31774,26764,5631,-2426,2447,-1060,1081,183,-2022,-81,309,-215,1,0,17,52,40,1,53298,1
2,31107,32061,31772,26765,5643,-2071,2982,-994,1639,-367,-3205,-83,315,-227,1,0,17,52,80,1,53298,1
2,31103,32381,31767,26766,5655,-2172,2533,-1030,1018,-165,-2575,-85,317,-229,1,0,17,52,120,1,53298,1
2,31107,32292,31773,26767,5668,-2669,2170,-998,1397,-38,-3044,-77,329,-239,1,0,17,52,160,1,53298,1
2,31111,32754,31778,26768,5680,-2520,2510,-869,2300,-1031,-4797,-76,338,-240,1,0,17,52,200,1,53298,1
2,31115,32859,31786,26769,5694,-2769,2014,-1117,1603,-1295,-5690,-80,350,-242,1,0,17,52,240,1,53298,1
2,31120,32985,31794,26770,5707,-2900,2191,-1339,2733,-1413,-6830,-75,367,-245,1,0,17,52,280,1,53298,1
2,31113,32905,31799,26771,5721,-2852,2667,-1390,4648,-1577,-7172,-81,379,-247,1,0,17,52,320,1,53298,1
2,31127,33008,31802,26772,5735,-2983,2857,-1782,4012,-1182,-6506,-65,389,-257,1,0,17,52,360,1,53298,1
2,31138,33295,31820,26773,5748,-3067,2732,-1914,3960,-643,-5764,-60,396,-252,1,0,17,52,400,1,53298,1
2,31139,33199,31815,26774,5761,-3263,2349,-1680,4541,-56,-5192,-56,404,-264,1,0,17,52,440,1,53298,1
2,31129,33113,31823,26775,5774,-3651,1761,-1483,4489,-282,-5578,-45,427,-267,1,0,17,52,480,1,53298,1
2,31148,33132,31823,26776,5787,-3649,1586,-1271,4570,-1373,-6941,-40,450,-264,1,0,17,52,520,1,53298,1
2,31133,32571,31807,26777,5800,-3936,1038,-1189,4006,-2176,-8166,-26,462,-280,1,0,17,52,560,1,53298,1
2,31129,32108,31808,26778,5813,-3845,1320,-1321,3176,-2893,-9726,-12,474,-274,1,0,17,52,600,1,53298,1
2,31174,32466,31830,26779,5826,-3605,1189,-1236,1841,-2990,-10441,14,498,-266,1,0,17,52,640,1,53298,1
2,31208,32900,31865,26780,5840,-3796,1282,-1326,1207,-3023,-10301,29,521,-257,1,0,17,52,680,1,53298,1
2,31227,31478,31872,26781,5853,-3740,1299,-1308,-40,-3344,-10052,49,529,-249,1,0,17,52,720,1,53298,1
2,31265,33061,31874,26782,5866,-3855,1184,-1297,-269,-3586,-9338,71,549,-249,1,0,17,52,760,1,53298,1
2,31323,34322,31973,26783,5879,-3922,1361,-1398,-368,-3782,-8456,75,557,-227,1,0,17,52,800,1,53298,1
2,31257,33882,31881,26784,5892,-4008,1172,-1306,-137,-3573,-7187,109,561,-217,1,0,17,52,840,1,53298,1
2,31260,33119,31886,26785,5905,-4186,1159,-1326,115,-3306,-5899,113,559,-217,1,0,17,52,880,1,53298,1
2,31250,32100,31875,26786,5918,-4150,1079,-1282,-129,-2818,-4687,114,562,-208,1,0,17,52,920,1,53298,1
2,31295,34411,31993,26787,5918,-4070,586,-1188,-773,-2083,-3552,116,566,-190,1,0,17,52,960,1,53298,1
1,31296,34179,31921,26788,5146,-4255,416,-1122,-441,-1559,-2690,127,569,-197,1,0,17,53,0,0,53298,1
2,31325,34140,31968,26789,5159,-4150,454,-895,302,-1428,-2121,131,567,-183,1,0,17,53,40,0,53298,1
2,31374,30409,31998,26790,5172,-3718,1000,-1031,-1170,-1155,-1847,141,571,-181,1,0,17,53,80,0,53298,1
2,31363,30353,31982,26791,5185,-4200,505,-1879,-3370,830,-557,132,568,-178,1,0,17,53,120,0,53298,1
2,31317,30129,32000,26792,5198,-6189,-196,-1721,-97,2014,201,138,566,-186,1,0,17,53,160,0,53298,1
2,31399,33596,32115,26793,5211,-4401,413,-253,1084,466,-629,130,572,-184,1,0,17,53,200,0,53298,1
2,31452,34821,32108,26794,5224,-4067,33,-974,665,-578,-42,142,568,-188,1,0,17,53,240,0,53298,1
2,31296,32390,31957,26795,5236,-4225,-138,-1601,-441,-111,105,137,571,-189,1,0,17,53,280,0,53298,1
2,31357,34257,31983,26796,5249,-4459,202,-1111,498,86,65,147,575,-179,1,0,17,53,320,0,53298,1
2,31297,32952,31940,26797,5263,-4498,217,-719,1203,-97,25,131,571,-175,1,0,17,53,360,0,53298,1
2,31291,31947,31956,26798,5276,-4361,91,-1018,886,-14,-96,133,573,-185,1,0,17,53,400,0,53298,1
2,31307,32745,31951,26799,5290,-4347,113,-1080,915,299,-215,133,571,-183,1,0,17,53,440,0,53298,1
2,31313,31260,31946,26800,5304,-4428,122,-935,640,634,-330,139,571,-191,1,0,17,53,480,0,53298,1
2,31349,30451,31943,26801,5317,-4390,54,-1084,118,730,-377,135,573,-193,1,0,17,53,520,0,53298,1
2,31314,31576,31941,26802,5331,-4331,22,-1192,313,593,-263,131,569,-183,1,0,17,53,560,0,53298,1
2,31295,32368,31935,26803,5345,-4362,45,-1172,578,453,-187,143,569,-191,1,0,17,53,600,0,53298,1
2,31300,32954,31941,26804,5359,-4374,63,-1121,542,303,-151,142,564,-192,1,0,17,53,640,0,53298,1
2,31307,32069,31943,26805,5374,-4357,62,-1127,250,186,-124,136,562,-192,1,0,17,53,680,0,53298,1
2,31291,32700,31937,26806,5388,-4353,62,-1139,6,109,-93,131,565,-189,1,0,17,53,720,0,53298,1
2,31290,32931,31941,26807,5402,-4378,35,-1131,67,51,-42,136,566,-196,1,0,17,53,760,0,53298,1
2,31287,33228,31946,26808,5415,-4355,62,-1109,198,52,-13,142,574,-192,1,0,17,53,800,0,53298,1
2,31384,30108,32018,26809,5428,-4362,63,-1120,151,88,-40,147,567,-197,1,0,17,53,840,0,53298,1
2,31355,30633,31995,26810,5440,-4373,48,-1127,35,88,-58,136,568,-178,1,0,17,53,880,0,53298,1
2,31350,30583,31982,26811,5454,-4362,42,-1135,63,57,-51,143,559,-189,1,0,17,53,920,0,53298,1
2,31374,30165,32009,26812,5454,-4372,38,-1137,72,15,-15,142,564,-192,1,0,17,53,960,0,53298,1
1,31386,30138,32025,26813,4675,-4360,40,-1149,-5,-17,22,135,573,-191,1,0,17,54,0,1,53298,1
2,31363,30268,32003,26814,4688,-4371,40,-1131,-41,-21,29,138,570,-194,1,0,17,54,40,1,53298,1
2,31355,30460,31983,26815,4702,-4371,43,-1133,-24,-2,-2,134,564,-182,1,0,17,54,80,1,53298,1
2,31318,30507,31949,26816,4714,-4369,54,-1116,1,49,-48,133,573,-195,1,0,17,54,120,1,53298,1
2,31348,30527,31998,26817,4728,-4367,39,-1124,8,93,-91,136,558,-184,1,0,17,54,160,1,53298,1
2,31325,30577,31963,26818,4741,-4362,26,-1133,-10,101,-98,145,563,-187,1,0,17,54,200,1,53298,1
2,31323,30610,31973,26819,4754,-4367,19,-1141,14,81,-68,138,568,-192,1,0,17,54,240,1,53298,1
2,31330,30879,31965,26820,4768,-4377,29,-1146,42,40,3,143,561,-187,1,0,17,54,280,1,53298,1
2,31316,30989,31952,26821,4781,-4347,31,-1137,25,-12,59,138,570,-194,1,0,17,54,320,1,53298,1
2,31287,32022,31938,26822,4794,-4367,45,-1145,-40,-30,82,131,571,-191,1,0,17,54,360,1,53298,1
2,31282,32004,31933,26823,4807,-4365,29,-1126,-30,-44,64,140,562,-188,1,0,17,54,400,1,53298,1
2,31256,32393,31907,26824,4820,-4355,47,-1137,-24,-42,26,146,568,-190,1,0,17,54,440,1,53298,1
2,31255,32523,31906,26825,4833,-4359,36,-1132,-26,-33,-19,125,569,-179,1,0,17,54,480,1,53298,1
2,31255,32619,31901,26826,4846,-4377,28,-1143,-42,-18,-41,141,573,-197,1,0,17,54,520,1,53298,1
2,31270,31864,31923,26827,4859,-4366,31,-1125,-28,-30,-52,135,563,-193,1,0,17,54,560,1,53298,1
2,31276,31768,31927,26828,4871,-4360,31,-1134,-57,-42,-31,134,568,-204,1,0,17,54,600,1,53298,1
2,31280,31708,31920,26829,4885,-4384,47,-1121,-71,-58,25,135,565,-193,1,0,17,54,640,1,53298,1
2,31285,31305,31933,26830,4898,-4376,18,-1138,-97,-112,122,128,572,-184,1,0,17,54,680,1,53298,1
2,31288,31155,31931,26831,4911,-4392,35,-1145,-82,-156,180,134,564,-196,1,0,17,54,720,1,53298,1
2,31287,31023,31931,26832,4923,-4363,30,-1135,-49,-198,240,141,571,-193,1,0,17,54,760,1,53298,1
2,31287,31045,31933,26833,4936,-4369,53,-1145,-104,-181,190,138,564,-190,1,0,17,54,800,1,53298,1
2,31291,30932,31938,26834,4949,-4364,54,-1114,-104,-182,113,141,567,-187,1,0,17,54,840,1,53298,1
2,31251,30868,31899,26835,4962,-4376,54,-1096,-89,-133,63,134,562,-186,1,0,17,54,880,1,53298,1
2,31273,30641,31922,26836,4974,-4371,64,-1090,-70,-62,15,144,568,-186,1,0,17,54,920,1,53298,1
2,31285,30610,31922,26837,4974,-4369,73,-1086,-28,-15,-36,134,564,-184,1,0,17,54,960,1,53298,1
1,31261,31064,31920,26838,4203,-4362,42,-1103,-28,3,-56,135,565,-191,1,0,17,55,0,1,53298,1
2,31236,32958,31900,26839,4216,-4363,62,-1125,-59,8,-27,138,562,-190,1,0,17,55,40,1,53298,1
2,31246,33259,31901,26840,4229,-4392,64,-1090,-36,-77,112,138,566,-192,1,0,17,55,80,1,53298,1
2,31231,32657,31884,26841,4242,-4368,55,-1085,-54,-224,346,135,565,-181,1,0,17,55,120,1,53298,1
2,31173,32140,31826,26842,4255,-4396,136,-1157,-333,-325,547,146,576,-184,1,0,17,55,160,1,53298,1
2,31195,31250,31842,26843,4268,-4285,136,-1286,-447,-395,772,136,564,-184,1,0,17,55,200,1,53298,1
2,31178,32007,31835,26844,4282,-4339,138,-1112,-307,-199,672,144,562,-188,1,0,17,55,240,1,53298,1
2,31175,32778,31832,26845,4295,-4306,50,-1008,-390,-192,568,130,556,-188,1,0,17,55,280,1,53298,1
2,31177,33085,31842,26846,4308,-4399,7,-1012,-564,-160,302,127,569,-187,1,0,17,55,320,1,53298,1
2,31178,32044,31840,26847,4321,-4387,184,-1016,-62,-161,120,134,570,-186,1,0,17,55,360,1,53298,1
2,31219,30706,31873,26848,4334,-4383,162,-976,408,-119,6,129,563,-181,1,0,17,55,400,1,53298,1
2,31243,30185,31890,26849,4347,-4374,135,-1015,150,84,-109,133,561,-177,1,0,17,55,440,1,53298,1
2,31261,30039,31908,26850,4360,-4379,174,-1119,-138,176,-77,129,567,-189,1,0,17,55,480,1,53298,1
2,31226,30240,31885,26851,4374,-4334,135,-1203,-194,151,53,138,566,-186,1,0,17,55,520,1,53298,1
2,31221,30368,31873,26852,4388,-4343,104,-1117,-47,54,229,135,567,-193,1,0,17,55,560,1,53298,1
2,31241,30207,31880,26853,4402,-4323,236,-1119,-207,-81,386,122,560,-188,1,0,17,55,600,1,53298,1
2,31227,30372,31875,26854,4416,-4475,552,-1217,-126,-123,932,130,560,-186,1,0,17,55,640,1,53298,1
2,31235,30031,31837,26855,4430,-4182,1213,-1257,176,-289,2284,116,562,-194,1,0,17,55,680,1,53298,1
2,31200,32478,31843,26856,4444,-3979,1660,-836,-434,-684,4820,96,554,-188,1,0,17,55,720,1,53298,1
2,31304,30821,31960,26857,4458,-3967,1811,-1608,-2840,65,7139,86,550,-186,1,0,17,55,760,1,53298,1
2,31205,32671,31948,26858,4472,-4139,1299,-1438,-2823,1048,9290,70,528,-190,1,0,17,55,800,1,53298,1
2,31267,30066,31940,26859,4487,-3993,1248,-1570,-2446,2574,9925,41,525,-199,1,0,17,55,840,1,53298,1
2,31267,30070,31944,26860,4501,-3582,1438,-1573,-1085,4097,10314,13,503,-217,1,0,17,55,880,1,53298,1
2,31200,30015,31896,26861,4515,-3578,1978,-1460,1308,5236,11656,-17,475,-231,1,0,17,55,920,1,53298,1
2,31071,31068,31795,26862,4515,-3700,3014,-1399,1966,5708,13841,-34,444,-250,1,0,17,55,960,1,53298,1
1,31048,31368,31781,26863,3732,-4160,3068,-1337,-658,5606,16159,-56,424,-248,1,0,17,56,0,1,53298,1
2,31054,31055,31814,26864,3743,-4535,2513,-1380,-5399,4865,17066,-71,379,-249,1,0,17,56,40,1,53298,1
2,31081,31205,31807,26865,3755,-4281,2335,-1853,-10142,4166,15837,-73,361,-243,1,0,17,56,80,1,53298,1
2,31118,32416,31802,26866,3768,-3338,2353,-2045,-9203,4147,14422,-77,323,-231,1,0,17,56,120,1,53298,1
2,31044,31147,31765,26867,3779,-3518,1801,-1651,-2720,3966,14398,-75,305,-247,1,0,17,56,160,1,53298,1
2,31022,30144,31760,26868,3791,-2994,1902,-1472,4037,3527,13255,-67,287,-245,1,0,17,56,200,1,53298,1
2,31040,31145,31748,26869,3803,-2580,1931,-1316,5662,3308,11278,-63,277,-265,1,0,17,56,240,1,53298,1
2,31065,30275,31812,26870,3815,-2099,2045,-919,4214,3155,8738,-63,275,-265,1,0,17,56,280,1,53298,1
2,30990,30473,31705,26871,3827,-1812,1982,-996,172,2700,6444,-53,259,-265,1,0,17,56,320,1,53298,1
2,31060,30034,31728,26872,3840,-1491,1842,-1356,-2062,2334,4764,-62,250,-256,1,0,17,56,360,1,53298,1
2,30972,30100,31721,26873,3852,-1239,2485,-1410,-419,1940,3537,-58,254,-258,1,0,17,56,400,1,53298,1
2,31051,29939,31768,26874,3865,-1115,2854,-1502,1597,1397,2820,-63,257,-267,1,0,17,56,440,1,53298,1
2,31065,30083,31779,26875,3878,-1159,2980,-1614,1894,1228,2414,-62,256,-264,1,0,17,56,480,1,53298,1
2,31070,30004,31771,26876,3890,-1142,3058,-1627,547,1294,1954,-55,251,-275,1,0,17,56,520,1,53298,1
2,30979,33278,31697,26877,3903,-1125,2958,-1672,-923,1204,1506,-63,243,-263,1,0,17,56,560,1,53298,1
2,30955,31486,31669,26878,3915,-1186,2592,-1443,-617,990,1336,-59,245,-267,1,0,17,56,600,1,53298,1
2,30998,30575,31700,26879,3928,-1149,2728,-1470,-58,376,692,-61,251,-263,1,0,17,56,640,1,53298,1
2,30964,31322,31689,26880,3941,-1087,2691,-1343,115,-156,117,-56,236,-260,1,0,17,56,680,1,53298,1
2,31034,30020,31729,26881,3954,-1028,2871,-1469,-933,-215,-392,-57,259,-259,1,0,17,56,720,1,53298,1
2,31024,29994,31730,26882,3966,-990,2925,-1588,-1441,-346,-736,-67,249,-263,1,0,17,56,760,1,53298,1
2,31009,30067,31719,26883,3978,-977,3040,-1684,-548,-514,-751,-51,253,-259,1,0,17,56,800,1,53298,1
2,30986,30365,31691,26884,3991,-989,3157,-1620,127,-517,-693,-63,249,-257,1,0,17,56,840,1,53298,1
2,30995,30291,31695,26885,4004,-1031,3264,-1720,-368,-331,-584,-51,255,-257,1,0,17,56,880,1,53298,1
2,30975,30321,31688,26886,4016,-1074,3131,-1680,-647,-109,-325,-64,262,-258,1,0,17,56,920,1,53298,1
2,30964,31319,31669,26887,4016,-1091,3133,-1643,-509,99,-54,-52,252,-266,1,0,17,56,960,1,53298,1
1,30955,32414,31669,26888,3260,-1095,3087,-1550,-256,54,80,-56,250,-270,1,0,17,57,0,0,53298,1
2,30949,33270,31667,26889,3274,-1135,2901,-1483,-237,31,80,-56,242,-266,1,0,17,57,40,0,53298,1
2,30938,32550,31653,26890,3286,-1107,2940,-1474,-181,-113,-138,-60,244,-258,1,0,17,57,80,0,53298,1
2,30998,30070,31705,26891,3300,-1117,2902,-1452,-142,-325,-367,-52,256,-258,1,0,17,57,120,0,53298,1
2,31014,29924,31723,26892,3312,-1170,2821,-1407,-264,-381,-581,-63,259,-249,1,0,17,57,160,0,53298,1
2,30969,30681,31673,26893,3324,-1156,2885,-1392,-403,-656,-1014,-69,263,-253,1,0,17,57,200,0,53298,1
2,30985,30676,31691,26894,3336,-1269,2747,-1342,-678,-935,-1512,-65,263,-253,1,0,17,57,240,0,53298,1
2,30959,31036,31662,26895,3348,-1359,2645,-1237,-1074,-1321,-2265,-61,261,-253,1,0,17,57,280,0,53298,1
2,30956,32056,31673,26896,3360,-1594,2361,-1035,-1638,-1996,-3524,-66,270,-248,1,0,17,57,320,0,53298,1
2,30985,30810,31691,26897,3372,-1597,2672,-1113,-2358,-2723,-5055,-71,271,-235,1,0,17,57,360,0,53298,1
2,30993,30741,31697,26898,3384,-1599,2728,-1148,-2627,-2681,-5238,-61,283,-243,1,0,17,57,400,0,53298,1
2,31008,31128,31703,26899,3397,-1820,2845,-1305,-2761,-2432,-5349,-60,286,-236,1,0,17,57,440,0,53298,1
2,30965,31688,31678,26900,3409,-1644,3525,-1540,-1933,-2328,-5410,-62,284,-232,1,0,17,57,480,0,53298,1
2,30965,31965,31681,26901,3422,-1835,3643,-1485,-432,-2013,-4409,-77,289,-229,1,0,17,57,520,0,53298,1
2,31008,32206,31708,26902,3434,-1883,3588,-1608,-363,-1386,-3430,-64,302,-228,1,0,17,57,560,0,53298,1
2,31021,32314,31716,26903,3447,-1967,3404,-1431,-303,-816,-2461,-74,298,-230,1,0,17,57,600,0,53298,1
2,31041,32108,31735,26904,3459,-2044,3230,-1277,-22,-467,-1635,-75,303,-229,1,0,17,57,640,0,53298,1
2,31053,31778,31746,26905,3472,-2065,3067,-1242,-100,-272,-1109,-74,302,-226,1,0,17,57,680,0,53298,1
2,31073,31024,31759,26906,3484,-2097,2863,-1096,-140,-17,-667,-70,304,-236,1,0,17,57,720,0,53298,1
2,31079,30591,31778,26907,3496,-2136,2863,-1087,110,63,-553,-76,302,-228,1,0,17,57,760,0,53298,1
2,31095,30547,31785,26908,3508,-2079,2928,-1012,673,-63,-494,-77,305,-229,1,0,17,57,800,0,53298,1
2,31107,30612,31795,26909,3520,-2172,2764,-1055,275,-87,-437,-76,296,-226,1,0,17,57,840,0,53298,1
2,31139,30684,31817,26910,3534,-2172,2793,-1113,-108,-114,-771,-79,307,-225,1,0,17,57,880,0,53298,1
2,31164,30829,31847,26911,3546,-2257,2546,-1056,-7,-255,-1030,-65,311,-243,1,0,17,57,920,0,53298,1
2,31203,30761,31898,26912,3546,-2192,2725,-1161,209,-330,-1277,-76,310,-230,1,0,17,57,960,0,53298,1
1,31216,30784,31892,26913,2790,-2282,2728,-1086,550,-411,-1747,-71,315,-231,1,0,17,58,0,1,53298,1
2,31215,30675,31898,26914,2801,-2297,2843,-1140,453,-411,-1726,-76,310,-234,1,0,17,58,40,1,53298,1
2,31216,30633,31895,26915,2813,-2292,2788,-1092,249,-502,-1696,-72,320,-244,1,0,17,58,80,1,53298,1
2,31205,30580,31890,26916,2825,-2358,2696,-1156,-348,-416,-1737,-78,322,-230,1,0,17,58,120,1,53298,1
2,31210,30475,31891,26917,2836,-2287,2910,-1203,-159,-380,-1296,-73,327,-231,1,0,17,58,160,1,53298,1
2,31225,30417,31900,26918,2848,-2371,2841,-1116,530,-391,-1169,-68,326,-234,1,0,17,58,200,1,53298,1
2,31216,30557,31888,26919,2859,-2454,2764,-1179,77,-279,-1270,-65,333,-235,1,0,17,58,240,1,53298,1
2,31250,30291,31914,26920,2870,-2483,2669,-1128,278,-328,-1308,-76,334,-230,1,0,17,58,280,1,53298,1
2,31244,30399,31909,26921,2881,-2462,2679,-1049,370,-376,-1363,-69,331,-233,1,0,17,58,320,1,53298,1
2,31287,30154,31954,26922,2893,-2572,2526,-1016,281,-429,-1738,-75,335,-229,1,0,17,58,360,1,53298,1
2,31301,30037,31982,26923,2905,-2603,2484,-1027,459,-629,-2191,-79,347,-233,1,0,17,58,400,1,53298,1
2,31417,30026,32109,26924,2917,-2698,2302,-979,515,-784,-2909,-73,345,-223,1,0,17,58,440,1,53298,1
2,31422,29993,32101,26925,2930,-2686,2480,-1120,201,-892,-3268,-65,347,-229,1,0,17,58,480,1,53298,1
2,31432,29990,32114,26926,2942,-2830,2073,-1110,493,-937,-4053,-72,366,-226,1,0,17,58,520,1,53298,1
2,31430,29990,32117,26927,2954,-2824,2421,-1230,907,-969,-4061,-66,374,-232,1,0,17,58,560,1,53298,1
2,31433,29980,32118,26928,2966,-2838,2493,-1164,1779,-1032,-4043,-70,372,-228,1,0,17,58,600,1,53298,1
2,31447,29984,32129,26929,2978,-3119,2191,-1158,1682,-1084,-4619,-62,392,-238,1,0,17,58,640,1,53298,1
2,31451,29982,32138,26930,2991,-3187,2312,-1227,1314,-1175,-4624,-64,392,-218,1,0,17,58,680,1,53298,1
2,31452,29987,32136,26931,3002,-2924,2459,-1187,1136,-1470,-3932,-57,401,-213,1,0,17,58,720,1,53298,1
2,31446,29999,32137,26932,3014,-3170,2232,-1227,1145,-1179,-3510,-52,406,-220,1,0,17,58,760,1,53298,1
2,31450,29994,32146,26933,3026,-3212,2535,-1259,2342,-1011,-3526,-58,408,-226,1,0,17,58,800,1,53298,1
2,31456,30000,32152,26934,3039,-3120,2688,-1169,2209,-1151,-2676,-56,416,-226,1,0,17,58,840,1,53298,1
2,31453,29986,32150,26935,3050,-3333,2297,-1300,259,-596,-1838,-56,426,-224,1,0,17,58,880,1,53298,1
2,31451,29993,32153,26936,3061,-3320,2322,-1354,295,-298,-1614,-48,420,-228,1,0,17,58,920,1,53298,1
2,31444,29987,32149,26937,3061,-3333,2091,-1262,1019,-258,-1153,-45,425,-217,1,0,17,58,960,1,53298,1
1,31432,29990,32146,26938,2320,-3508,1579,-1240,1760,-362,-1747,-40,426,-228,1,0,17,59,0,0,53298,1
2,31408,29972,32129,26939,2332,-3567,1365,-1188,2016,-470,-2562,-39,423,-235,1,0,17,59,40,0,53298,1
2,31355,30679,32081,26940,2344,-3592,1295,-1141,2723,-821,-3163,-38,442,-226,1,0,17,59,80,0,53298,1
2,31358,30609,32095,26941,2356,-3630,1489,-1234,3818,-1072,-3822,-34,448,-236,1,0,17,59,120,0,53298,1
2,31342,33848,32076,26942,2368,-3685,1491,-1199,3413,-1087,-4837,-29,465,-233,1,0,17,59,160,0,53298,1
2,31409,34510,32165,26943,2382,-3961,1191,-1479,1779,-742,-5703,-18,466,-238,1,0,17,59,200,0,53298,1
2,31432,34637,32179,26944,2395,-4010,1067,-1718,2050,-1127,-6443,-15,479,-229,1,0,17,59,240,0,53298,1
2,31231,34496,31987,26945,2409,-4421,882,-1674,4513,-1490,-8208,-3,499,-227,1,0,17,59,280,0,53298,1
2,31189,34378,31921,26946,2422,-4390,718,-1611,3834,-1452,-9724,1,523,-225,1,0,17,59,320,0,53298,1
2,31154,34138,31874,26947,2437,-4457,361,-1398,3694,-1863,-11442,37,541,-239,1,0,17,59,360,0,53298,1
2,31181,34142,31894,26948,2451,-4257,366,-1457,2540,-1677,-11938,71,559,-235,1,0,17,59,400,0,53298,1
2,31171,33791,31855,26949,2465,-4079,772,-1019,1390,-2195,-11269,89,579,-235,1,0,17,59,440,0,53298,1
2,31193,33623,31867,26950,2479,-3979,914,-769,1521,-2806,-10090,122,586,-242,1,0,17,59,480,0,53298,1
2,31222,32306,31879,26951,2494,-4130,740,-824,-506,-3192,-8871,153,599,-223,1,0,17,59,520,0,53298,1
2,31225,32970,31907,26952,2507,-4171,567,-869,-1803,-3653,-7143,177,591,-217,1,0,17,59,560,0,53298,1
2,31227,33121,31932,26953,2521,-4156,860,-808,-1446,-3591,-4938,191,599,-199,1,0,17,59,600,0,53298,1
2,31216,32619,31929,26954,2536,-4183,1287,-1421,-3175,-1150,-1393,201,595,-197,1,0,17,59,640,0,53298,1
2,31212,32768,31926,26955,2550,-4235,1390,-3453,-2997,992,755,191,603,-209,1,0,17,59,680,0,53298,1
2,31187,32266,31899,26956,2565,-4403,-287,-1115,3121,944,1526,178,598,-188,1,0,17,59,720,0,53298,1
2,31172,32421,31905,26957,2579,-4442,-612,-192,4978,706,910,182,602,-202,1,0,17,59,760,0,53298,1
2,31161,32348,31897,26958,2594,-4544,-669,-1054,4458,-445,-158,179,593,-199,1,0,17,59,800,0,53298,1
2,31156,30994,31896,26959,2608,-4447,297,-1444,1120,397,-401,182,602,-202,1,0,17,59,840,0,53298,1
2,31156,32227,31941,26960,2621,-4725,-557,-829,401,636,-177,183,603,-193,1,0,17,59,880,0,53298,1
2,31189,30072,31899,26961,2634,-4425,-590,-915,123,210,-148,187,589,-189,1,0,17,59,920,0,53298,1
2,31163,30507,31917,26962,2634,-4321,-551,-1369,-70,-126,-171,173,595,-203,1,0,17,59,960,0,53298,1
1,31160,30058,31907,26963,1850,-4377,-391,-1263,534,173,-135,182,596,-200,1,0,18,0,0,1,53298,1
2,31129,34155,31927,26964,1863,-4484,-381,-1049,434,64,4,178,592,-196,1,0,18,0,40,1,53298,1
2,31111,33550,31906,26965,1876,-4447,-375,-1067,47,-20,9,175,599,-201,1,0,18,0,80,1,53298,1
2,31116,34019,31872,26966,1889,-4418,-400,-1172,87,-28,34,182,598,-200,1,0,18,0,120,1,53298,1
2,31121,34180,31930,26967,1902,-4423,-379,-1123,198,2,64,187,593,-205,1,0,18,0,160,1,53298,1
2,31184,30138,31923,26968,1915,-4455,-380,-1069,172,52,151,174,602,-200,1,0,18,0,200,1,53298,1
2,31166,32505,31865,26969,1927,-4427,-339,-1104,-273,139,345,173,595,-207,1,0,18,0,240,1,53298,1
2,31147,30430,31879,26970,1941,-4359,-473,-1135,-546,312,103,187,601,-201,1,0,18,0,280,1,53298,1
2,31163,30245,31902,26971,1955,-4295,-782,-1096,107,48,188,181,599,-213,1,0,18,0,320,1,53298,1
2,31210,30215,31925,26972,1970,-4593,-177,-1131,305,-413,284,180,596,-210,1,0,18,0,360,1,53298,1
2,31105,32970,31842,26973,1987,-4778,-479,-809,2749,-2505,879,172,596,-212,1,0,18,0,400,1,53298,1
2,31443,31866,32271,26974,2005,-4846,-588,-783,2558,-2842,956,170,600,-198,1,0,18,0,440,1,53298,1
2,33295,35877,33939,26975,2024,-4241,-317,-1483,2901,-1650,1773,169,595,-197,1,0,18,0,480,1,53298,1
2,32597,36314,33374,26976,2044,-4130,355,-924,2314,-541,1073,168,606,-192,1,0,18,0,520,1,53298,1
2,32766,36364,33268,26977,2065,-4328,-418,-759,336,-100,412,156,594,-194,1,0,18,0,560,1,53298,1
2,32732,36396,33342,26978,2085,-4493,-238,-833,380,24,11,168,592,-198,1,0,18,0,600,1,53298,1
2,32629,36370,33244,26979,2105,-4472,-485,-931,-1338,-151,74,161,599,-181,1,0,18,0,640,1,53298,1
2,32605,36398,33203,26980,2124,-4361,145,-426,-440,1464,-361,167,589,-185,1,0,18,0,680,1,53298,1
2,32632,36396,33204,26981,2143,-4422,-244,-1398,-3697,1473,-833,163,591,-191,1,0,18,0,720,1,53298,1
2,32332,35683,32800,26982,2161,-4319,-347,-1134,-4127,176,-702,173,593,-185,1,0,18,0,760,1,53298,1
2,31849,34880,32436,26983,2179,-4052,138,-1000,-1546,493,-451,173,589,-189,1,0,18,0,800,1,53298,1
2,31790,34778,32375,26984,2195,-4827,-273,-1127,-1165,49,-425,177,587,-189,1,0,18,0,840,1,53298,1
2,31872,34812,32429,26985,2211,-4370,-176,-1051,-1165,-23,-168,180,596,-184,1,0,18,0,880,1,53298,1
2,32490,35349,32903,26986,2229,-4554,-522,-983,-856,-682,653,168,592,-180,1,0,18,0,920,1,53298,1
2,32523,35823,33000,26987,2229,-4445,-429,-803,437,-826,731,172,588,-190,1,0,18,0,960,1,53298,1
1,32259,35314,32706,26988,1381,-4360,-185,-955,-147,-497,721,171,589,-183,1,0,18,1,0,1,53298,1
2,32249,35870,32659,26989,1398,-4395,-260,-1224,396,50,721,173,593,-181,1,0,18,1,40,1,53298,1
2,32323,35911,32737,26990,1416,-4411,-325,-1278,1333,204,614,173,587,-187,1,0,18,1,80,1,53298,1
2,32344,35957,32745,26991,1434,-4229,-84,-336,-23,-135,402,167,593,-181,1,0,18,1,120,1,53298,1
2,32207,33526,32670,26992,1452,-4408,-163,-1016,-2842,333,-176,170,592,-188,1,0,18,1,160,1,53298,1
2,32160,34900,32576,26993,1471,-4376,-158,-944,-2510,520,-411,168,596,-182,1,0,18,1,200,1,53298,1
2,32136,35082,32600,26994,1490,-4416,-315,-1130,-226,532,-563,174,588,-194,1,0,18,1,240,1,53298,1
2,32110,35100,32601,26995,1508,-4356,54,-962,-1112,253,-934,171,583,-181,1,0,18,1,280,1,53298,1
2,31963,34466,32339,26996,1526,-4621,-717,-1197,-1239,341,-965,177,581,-193,1,0,18,1,320,1,53298,1
2,32252,31506,32797,26997,1542,-4369,99,-1201,478,261,-1113,187,595,-177,1,0,18,1,360,1,53298,1
2,32368,30942,33247,26998,1557,-3949,-105,-1172,562,657,22,179,579,-181,1,0,18,1,400,1,53298,1
2,32682,31755,33190,26999,1571,-5458,-425,-525,-597,-135,-353,172,592,-186,1,0,18,1,440,1,53298,1
2,32623,32037,33171,27000,1584,-4418,-297,-1387,-121,89,-270,179,583,-185,1,0,18,1,480,1,53298,1
2,32361,32708,32881,27001,1598,-4176,-791,-1192,1167,28,160,175,591,-177,1,0,18,1,520,1,53298,1
2,32282,32979,32827,27002,1612,-4413,-275,-527,599,-25,61,180,590,-188,1,0,18,1,560,1,53298,1
2,32265,34535,32814,27003,1626,-4473,-273,-1060,361,-5,17,173,597,-179,1,0,18,1,600,1,53298,1
2,32253,33380,32809,27004,1641,-4376,-261,-1051,44,126,-41,170,588,-186,1,0,18,1,640,1,53298,1
2,32234,31760,32807,27005,1656,-4366,-211,-1051,231,399,-99,181,597,-193,1,0,18,1,680,1,53298,1
2,32360,35402,32805,27006,1670,-4235,81,-1407,396,1012,-163,178,586,-192,1,0,18,1,720,1,53298,1
2,32248,30852,32876,27007,1684,-4351,-244,-1198,653,743,19,177,597,-181,1,0,18,1,760,1,53298,1
2,32621,31157,33136,27008,1697,-4756,-731,-622,-36,-94,-51,181,597,-191,1,0,18,1,800,1,53298,1
2,32670,35771,33329,27009,1710,-4587,-506,-770,-408,-224,-32,177,587,-193,1,0,18,1,840,1,53298,1
2,32711,31768,33328,27010,1722,-4317,-345,-1216,-166,82,-13,182,594,-192,1,0,18,1,880,1,53298,1
2,32629,30931,33276,27011,1735,-4387,-436,-1165,87,268,-7,178,590,-192,1,0,18,1,920,1,53298,1
2,32554,32985,33182,27012,1735,-4479,-325,-1067,172,285,153,178,596,-198,1,0,18,1,960,1,53298,1
1,32559,35938,33193,27013,910,-4454,-426,-1112,221,202,362,176,594,-200,1,0,18,2,0,1,53298,1
2,32619,36001,33265,27014,924,-4371,-264,-1153,-119,303,235,174,596,-190,1,0,18,2,40,1,53298,1
2,32607,35973,33261,27015,937,-4482,-355,-1188,-588,318,261,172,606,-194,1,0,18,2,80,1,53298,1
2,32571,36049,33213,27016,952,-4578,-265,-1077,-424,52,465,174,602,-196,1,0,18,2,120,1,53298,1
2,32576,35996,33191,27017,967,-4288,386,-1273,-820,253,1049,176,598,-204,1,0,18,2,160,1,53298,1
2,32486,35857,33144,27018,982,-4169,429,-1533,-1390,853,2330,167,595,-193,1,0,18,2,200,1,53298,1
2,32453,35703,33094,27019,996,-4129,901,-1680,-2452,1951,4281,158,600,-206,1,0,18,2,240,1,53298,1
2,32432,35777,33034,27020,1011,-4061,1056,-1738,-3423,3168,6553,143,599,-207,1,0,18,2,280,1,53298,1
2,32455,35882,33105,27021,1025,-4208,1092,-1578,-2700,3622,8910,121,589,-207,1,0,18,2,320,1,53298,1
2,32361,30911,33016,27022,1039,-4200,1121,-1504,-2215,3970,10932,86,580,-228,1,0,18,2,360,1,53298,1
2,32385,33056,32998,27023,1054,-4190,847,-1439,-1913,4280,12136,56,568,-244,1,0,18,2,400,1,53298,1
2,32487,30942,33115,27024,1070,-4347,576,-1377,-2108,4545,12257,23,553,-253,1,0,18,2,440,1,53298,1
2,32683,36032,33360,27025,1086,-4567,658,-1395,-1761,4112,11502,9,535,-253,1,0,18,2,480,1,53298,1
2,32389,35293,33043,27026,1103,-4403,972,-1515,-2173,3614,10270,-25,521,-253,1,0,18,2,520,1,53298,1
2,32096,34475,32713,27027,1120,-3932,1277,-1635,-1866,3340,9927,-33,497,-275,1,0,18,2,560,1,53298,1
2,32045,34536,32625,27028,1137,-3521,1661,-1582,-1710,3428,10312,-48,478,-276,1,0,18,2,600,1,53298,1
2,31995,33764,32584,27029,1153,-3592,1972,-1522,-1913,3258,10649,-52,450,-276,1,0,18,2,640,1,53298,1
2,31994,35062,32591,27030,1169,-3446,2548,-1657,-3996,3158,10943,-63,437,-281,1,0,18,2,680,1,53298,1
2,31959,32370,32553,27031,1185,-3465,2036,-1792,-4866,2889,10314,-75,403,-283,1,0,18,2,720,1,53298,1
2,31945,32347,32548,27032,1201,-3431,1921,-1671,-2887,2357,9245,-78,380,-270,1,0,18,2,760,1,53298,1
2,31930,31790,32525,27033,1217,-2842,2354,-1700,-2100,2510,9507,-84,364,-280,1,0,18,2,800,1,53298,1
2,31881,32907,32492,27034,1232,-2462,2680,-1562,-1743,2930,10031,-79,345,-271,1,0,18,2,840,1,53298,1
2,31827,34850,32439,27035,1248,-2934,2508,-1469,-1467,2563,8999,-83,325,-271,1,0,18,2,880,1,53298,1
2,31630,34416,32209,27036,1263,-2334,3031,-1600,-2507,2533,8990,-73,303,-273,1,0,18,2,920,1,53298,1
2,31467,33593,32074,27037,1263,-2446,2676,-1466,-2152,2166,7446,-78,296,-260,1,0,18,2,960,1,53298,1
1,31421,33897,32024,27038,440,-1846,2649,-1130,-1595,1562,6127,-76,288,-262,1,0,18,3,0,1,53298,1
2,31491,31257,32094,27039,453,-1587,2454,-1327,-2917,1472,6029,-57,281,-259,1,0,18,3,40,1,53298,1
2,31455,31485,32054,27040,467,-1624,2411,-1622,-5255,2041,5257,-72,266,-240,1,0,18,3,80,1,53298,1
2,31439,32708,32041,27041,480,-1625,2792,-1559,-2392,1491,4492,-59,259,-253,1,0,18,3,120,1,53298,1
2,31420,31597,32030,27042,494,-1330,2815,-1563,271,1864,4835,-66,260,-258,1,0,18,3,160,1,53298,1
2,31373,32621,31963,27043,508,-1428,2913,-1612,1089,1465,3864,-57,259,-243,1,0,18,3,200,1,53298,1
2,31364,33240,31951,27044,522,-1083,2927,-1340,1032,1667,3201,-55,251,-247,1,0,18,3,240,1,53298,1
2,31368,33736,31953,27045,535,-1152,2661,-1121,752,1240,2398,-54,246,-256,1,0,18,3,280,1,53298,1
2,31345,33835,31922,27046,549,-1147,2624,-1157,-632,590,1035,-50,250,-254,1,0,18,3,320,1,53298,1
2,31300,32904,31885,27047,562,-1242,2849,-1166,-1506,429,389,-49,251,-247,1,0,18,3,360,1,53298,1
2,31294,33715,31872,27048,575,-1016,2900,-1083,-920,81,161,-57,249,-245,1,0,18,3,400,1,53298,1
2,31267,31970,31840,27049,589,-821,3203,-1201,-924,-615,-651,-57,249,-243,1,0,18,3,440,1,53298,1
2,31254,32824,31819,27050,602,-864,3355,-1285,-892,-507,-366,-58,248,-242,1,0,18,3,480,1,53298,1
2,31250,32565,31802,27051,615,-922,3078,-1282,-1677,-434,-458,-48,248,-246,1,0,18,3,520,1,53298,1
2,31254,31869,31805,27052,628,-911,3175,-1297,-1842,-419,-822,-57,245,-237,1,0,18,3,560,1,53298,1
2,31247,31009,31803,27053,641,-949,3196,-1376,-558,-553,-463,-52,254,-236,1,0,18,3,600,1,53298,1
2,31233,33334,31777,27054,654,-1023,3083,-1251,613,-501,-161,-56,246,-242,1,0,18,3,640,1,53298,1
2,31260,33539,31806,27055,666,-979,3136,-1234,-449,-497,-622,-56,252,-236,1,0,18,3,680,1,53298,1
2,31258,31902,31775,27056,678,-971,3117,-1285,-1201,-267,-751,-57,263,-233,1,0,18,3,720,1,53298,1
2,31244,31441,31760,27057,691,-1011,3214,-1285,-171,-393,-672,-56,252,-240,1,0,18,3,760,1,53298,1
2,31255,30389,31782,27058,704,-1011,3268,-1205,670,-595,-529,-49,251,-233,1,0,18,3,800,1,53298,1
2,31267,34084,31786,27059,716,-1019,3403,-1101,-502,-641,-682,-53,251,-239,1,0,18,3,840,1,53298,1
2,31343,34360,31912,27060,728,-1033,3274,-1219,-3245,34,-770,-53,257,-231,1,0,18,3,880,1,53298,1
2,31402,34598,31907,27061,742,-1069,3119,-1168,-3375,356,-542,-55,255,-229,1,0,18,3,920,1,53298,1
2,31375,34118,31900,27062,742,-1105,3046,-1094,-1251,51,-381,-50,248,-224,1,0,18,3,960,1,53298,1
1,31453,34645,31984,27063,0,-1098,3180,-1029,1037,-310,-147,-53,251,-225,1,0,18,4,0,0,53298,1
2,31418,30801,31945,27064,39983,-1137,3168,-943,1184,-204,25,-46,254,-234,1,0,18,4,40,0,53298,1
2,31441,34684,32077,27065,39996,-1138,3179,-932,-98,-205,-279,-45,247,-233,1,0,18,4,80,0,53298,1
1,31483,32836,32023,27066,7,-1120,3240,-1058,-786,-433,-549,-60,256,-222,1,0,18,4,120,0,53298,1
1,31490,34759,32008,27067,21,-1142,3096,-1093,-565,-403,-362,-50,258,-234,1,0,18,4,160,0,53298,1
1,31597,34267,32091,27068,34,-1153,3192,-1033,-12,-400,-371,-53,257,-229,1,0,18,4,200,0,53298,1
1,31619,33836,32137,27069,48,-1155,3247,-1060,-87,-548,-527,-57,253,-221,1,0,18,4,240,0,53298,1
1,31725,34920,32259,27070,62,-1144,3098,-1038,-595,-438,-597,-58,258,-224,1,0,18,4,280,0,53298,1
1,31811,35004,32376,27071,75,-1187,3110,-1061,-719,-259,-636,-59,259,-219,1,0,18,4,320,0,53298,1
1,31948,35137,32505,27072,87,-1212,3150,-991,-134,-345,-674,-49,257,-229,1,0,18,4,360,0,53298,1
1,31838,34858,32375,27073,100,-1177,3235,-1030,-53,-416,-706,-45,261,-229,1,0,18,4,400,0,53298,1
1,31915,35090,32469,27074,111,-1237,3208,-1020,-93,-258,-535,-55,255,-219,1,0,18,4,440,0,53298,1
1,31791,34988,32285,27075,123,-1229,3305,-1017,-67,-244,-551,-55,267,-219,1,0,18,4,480,0,53298,1
1,31779,34951,32322,27076,135,-1216,3317,-1039,6,-285,-399,-56,266,-224,1,0,18,4,520,0,53298,1
1,31688,34238,32206,27077,147,-1272,3216,-998,97,-236,-201,-56,264,-222,1,0,18,4,560,0,53298,1
1,31675,31691,32184,27078,160,-1262,3209,-1001,-184,-201,-271,-59,255,-227,1,0,18,4,600,0,53298,1
1,31711,32895,32237,27079,173,-1281,3138,-985,-479,-153,-266,-53,263,-221,1,0,18,4,640,0,53298,1
1,31729,31366,32243,27080,185,-1305,3038,-953,-122,-163,-255,-54,268,-220,1,0,18,4,680,0,53298,1
1,31714,32836,32233,27081,199,-1291,3200,-945,275,-282,-386,-61,259,-221,1,0,18,4,720,0,53298,1
1,31695,31355,32224,27082,212,-1280,3214,-960,-26,-311,-404,-56,262,-220,1,0,18,4,760,0,53298,1
1,31744,34804,32281,27083,226,-1304,3186,-984,-394,-201,-361,-53,269,-221,1,0,18,4,800,0,53298,1
1,31625,31010,32157,27084,239,-1315,3213,-990,-282,-178,-324,-64,262,-214,1,0,18,4,840,0,53298,1
3,31722,30679,32250,27085,253,-1286,3295,-1051,-95,-216,-231,-56,260,-226,1,0,18,4,880,0,53298,1
3,31659,30490,32182,27086,267,-1305,3255,-1014,163,-78,56,-55,261,-217,1,0,18,4,920,0,53298,1
0,31627,32722,32130,27087,65535,-1305,3255,-1014,163,-78,56,-50,260,-224,1,0,18,4,960,0,53298,1
1,31654,34465,32183,27088,0,-1304,3199,-1009,-189,65,76,-58,266,-222,1,0,18,5,0,0,53298,1
2,31565,34569,32086,27089,39514,-1333,3137,-932,127,43,221,-48,272,-230,1,0,18,5,40,0,53298,1
2,31474,34538,31900,27090,39527,-1349,3041,-925,-112,73,75,-54,260,-220,1,0,18,5,80,0,53298,1
2,31284,30286,31788,27091,39540,-1328,3165,-885,149,-99,-209,-56,260,-218,1,0,18,5,120,0,53298,1
2,31238,30274,31713,27092,39553,-1362,3025,-908,-134,-235,-312,-54,268,-220,1,0,18,5,160,0,53298,1
2,31177,30333,31656,27093,39567,-1414,2995,-906,-154,-263,-613,-54,252,-210,1,0,18,5,200,0,53298,1
2,31136,30738,31618,27094,39580,-1419,3002,-850,-221,-489,-1031,-51,271,-225,1,0,18,5,240,0,53298,1
2,31137,34023,31643,27095,39595,-1372,3108,-911,-320,-648,-1283,-53,279,-233,1,0,18,5,280,0,53298,1
2,31152,34291,31634,27096,39609,-1488,2951,-830,-315,-667,-1428,-56,268,-218,1,0,18,5,320,0,53298,1
2,31134,34276,31614,27097,39622,-1512,3078,-876,-527,-758,-1938,-62,274,-212,1,0,18,5,360,0,53298,1
2,31120,34100,31580,27098,39636,-1558,3007,-800,-409,-1036,-2217,-53,277,-219,1,0,18,5,400,0,53298,1
2,31089,32675,31549,27099,39649,-1693,2838,-868,-620,-1107,-2657,-61,265,-205,1,0,18,5,440,0,53298,1
2,31056,31368,31531,27100,39661,-1616,3132,-872,-130,-1226,-3042,-59,277,-213,1,0,18,5,480,0,53298,1
2,31057,30876,31534,27101,39674,-1823,2857,-770,-44,-1276,-2957,-71,283,-213,1,0,18,5,520,0,53298,1
2,31045,30993,31526,27102,39687,-1778,3321,-969,-259,-1237,-3475,-63,289,-213,1,0,18,5,560,0,53298,1
2,31054,30521,31534,27103,39700,-1780,3180,-864,475,-1220,-2954,-60,290,-210,1,0,18,5,600,0,53298,1
2,31055,30625,31528,27104,39713,-1974,3105,-941,-459,-942,-2741,-62,292,-208,1,0,18,5,640,0,53298,1
2,31046,31110,31526,27105,39727,-1852,3509,-998,66,-749,-2682,-67,297,-217,1,0,18,5,680,0,53298,1
2,31046,31517,31522,27106,39740,-2054,2969,-816,309,-767,-1908,-60,286,-216,1,0,18,5,720,0,53298,1
2,31046,31281,31531,27107,39754,-2142,2905,-952,-117,-477,-1998,-76,296,-208,1,0,18,5,760,0,53298,1
2,31046,30961,31532,27108,39766,-2052,3035,-800,988,-674,-2186,-71,299,-213,1,0,18,5,800,0,53298,1
2,31050,31084,31530,27109,39779,-2212,2681,-732,601,-677,-1960,-77,299,-207,1,0,18,5,840,0,53298,1
2,31060,30691,31541,27110,39792,-2187,2850,-955,-306,-472,-2305,-66,320,-208,1,0,18,5,880,0,53298,1
2,31054,30927,31540,27111,39804,-2298,2886,-825,819,-500,-2428,-59,303,-203,1,0,18,5,920,0,53298,1
2,31068,29969,31559,27112,39816,-2377,2638,-770,-161,-741,-2676,-53,323,-209,1,0,18,5,960,0,53298,1
1,31079,33795,31544,27113,0,-2444,2814,-1035,-1673,-56,-3003,-57,321,-213,1,0,18,6,0,0,53298,1
2,31077,32574,31562,27114,39044,-2597,2397,-1040,-1890,464,-3357,-69,329,-205,1,0,18,6,40,0,53298,1
2,31087,30535,31568,27115,39057,-2777,2463,-1038,303,306,-4353,-61,339,-207,1,0,18,6,80,0,53298,1
2,31087,31830,31587,27116,39070,-2692,2276,-818,2578,-224,-4904,-60,346,-214,1,0,18,6,120,0,53298,1
2,31100,32983,31575,27117,39083,-2875,2134,-1077,4677,-167,-5115,-64,354,-216,1,0,18,6,160,0,53298,1
2,31110,29940,31584,27118,39097,-3348,1836,-1115,6168,-115,-6079,-66,380,-218,1,0,18,6,200,0,53298,1
2,31105,30253,31602,27119,39110,-3442,1933,-1058,7535,-675,-7724,-62,388,-236,1,0,18,6,240,0,53298,1
2,31095,33598,31616,27120,39124,-3434,2045,-1152,7293,-1243,-8849,-62,408,-238,1,0,18,6,280,0,53298,1
2,31115,30603,31636,27121,39137,-3757,1707,-1067,6441,-1888,-9672,-49,433,-245,1,0,18,6,320,0,53298,1
2,31142,34299,31638,27122,39151,-3888,1889,-1116,4586,-2657,-11026,-41,451,-247,1,0,18,6,360,0,53298,1
2,31182,34163,31688,27123,39165,-3976,1716,-1045,1894,-2803,-12074,-20,474,-244,1,0,18,6,400,0,53298,1
2,31169,33319,31657,27124,39179,-4106,1663,-1125,-221,-2868,-12791,-10,496,-236,1,0,18,6,440,0,53298,1
2,31192,33782,31669,27125,39191,-4153,1637,-1130,-563,-3070,-12907,17,519,-229,1,0,18,6,480,0,53298,1
2,31197,33538,31658,27126,39205,-4271,1307,-959,-111,-3072,-12325,53,541,-219,1,0,18,6,520,0,53298,1
2,31215,33410,31662,27127,39218,-4502,1199,-981,-29,-3430,-11745,70,560,-212,1,0,18,6,560,0,53298,1
2,31222,33262,31666,27128,39231,-4458,988,-855,-265,-3684,-11142,105,563,-193,1,0,18,6,600,0,53298,1
2,31227,32940,31673,27129,39245,-4264,1138,-1027,-404,-3478,-10186,125,577,-187,1,0,18,6,640,0,53298,1
2,31223,33001,31678,27130,39258,-4122,1045,-1099,-464,-2906,-8619,154,570,-182,1,0,18,6,680,0,53298,1
2,31223,33208,31690,27131,39272,-4025,1476,-1100,519,-2082,-6304,174,574,-174,1,0,18,6,720,0,53298,1
2,31247,34085,31726,27132,39286,-4081,1401,-1360,758,-1198,-3227,180,570,-180,1,0,18,6,760,0,53298,1
2,31261,34478,31735,27133,39299,-4003,1035,-1262,1428,-392,-425,177,575,-175,1,0,18,6,800,0,53298,1
2,31233,34504,31730,27134,39314,-4226,65,-1067,693,624,1134,165,557,-175,1,0,18,6,840,0,53298,1
2,31237,34119,31732,27135,39328,-4352,-352,-853,1287,822,1644,168,570,-170,1,0,18,6,880,0,53298,1
2,31246,29965,31731,27136,39341,-4572,-507,-789,2445,713,1337,169,571,-179,1,0,18,6,920,0,53298,1
2,31256,30109,31726,27137,39355,-4935,-322,-743,2182,475,183,168,576,-178,1,0,18,6,960,0,53298,1
1,31239,30345,31730,27138,0,-4660,344,-784,771,225,-248,157,561,-167,1,0,18,7,0,1,53298,1
2,31226,30039,31732,27139,38576,-4459,0,-709,1028,-101,72,158,566,-178,1,0,18,7,40,1,53298,1
2,31230,31409,31736,27140,38589,-4354,-86,-779,456,157,-61,161,569,-175,1,0,18,7,80,1,53298,1
2,31228,33277,31710,27141,38603,-4458,-7,-870,288,400,-63,159,567,-175,1,0,18,7,120,1,53298,1
2,31229,32882,31716,27142,38616,-4505,7,-888,518,480,-115,158,566,-176,1,0,18,7,160,1,53298,1
2,31231,31674,31708,27143,38628,-4467,-30,-937,768,519,-203,158,570,-172,1,0,18,7,200,1,53298,1
2,31250,33642,31721,27144,38641,-4412,-79,-935,779,521,-261,162,570,-176,1,0,18,7,240,1,53298,1
2,31238,34410,31715,27145,38654,-4381,-53,-962,542,638,-421,170,568,-170,1,0,18,7,280,1,53298,1
2,31266,34527,31738,27146,38668,-4429,-116,-989,487,667,-433,160,574,-184,1,0,18,7,320,1,53298,1
2,31267,34554,31739,27147,38681,-4423,-94,-958,436,615,-420,166,574,-188,1,0,18,7,360,1,53298,1
2,31235,34472,31712,27148,38694,-4415,-100,-1000,421,624,-511,166,570,-178,1,0,18,7,400,1,53298,1
2,31233,33220,31717,27149,38708,-4489,-96,-985,597,691,-508,171,571,-177,1,0,18,7,440,1,53298,1
2,31246,33777,31729,27150,38721,-4469,-109,-934,616,672,-412,160,580,-176,1,0,18,7,480,1,53298,1
2,31245,33654,31720,27151,38734,-4411,-133,-1010,471,615,-349,165,571,-181,1,0,18,7,520,1,53298,1
2,31240,33650,31715,27152,38747,-4392,-163,-1087,335,595,-309,168,570,-184,1,0,18,7,560,1,53298,1
2,31247,33773,31720,27153,38761,-4419,-161,-1084,317,497,-249,167,573,-177,1,0,18,7,600,1,53298,1
2,31252,33813,31720,27154,38772,-4437,-160,-1092,296,299,-150,170,572,-194,1,0,18,7,640,1,53298,1
2,31237,33294,31710,27155,38786,-4406,-164,-1090,168,92,-49,171,563,-187,1,0,18,7,680,1,53298,1
2,31233,33044,31709,27156,38798,-4402,-176,-1089,16,-50,11,162,570,-184,1,0,18,7,720,1,53298,1
2,31236,33426,31714,27157,38811,-4421,-163,-1074,-44,-130,50,170,570,-192,1,0,18,7,760,1,53298,1
2,31244,33611,31718,27158,38824,-4432,-154,-1035,7,-126,63,169,565,-197,1,0,18,7,800,1,53298,1
2,31264,34501,31746,27159,38836,-4422,-147,-1035,37,-90,44,166,570,-190,1,0,18,7,840,1,53298,1
2,31263,34547,31746,27160,38849,-4409,-143,-1034,25,-8,17,170,578,-184,1,0,18,7,880,1,53298,1
2,31264,34557,31743,27161,38862,-4424,-146,-1054,17,73,-17,170,568,-184,1,0,18,7,920,1,53298,1
2,31264,34558,31748,27162,38876,-4419,-156,-1054,49,95,-16,166,566,-192,1,0,18,7,960,1,53298,1
1,31265,34562,31748,27163,0,-4419,-152,-1062,54,80,-14,166,574,-194,1,0,18,8,0,1,53298,1
2,31268,34565,31746,27164,38107,-4417,-160,-1077,13,48,12,162,572,-190,1,0,18,8,40,1,53298,1
2,31268,34562,31748,27165,38121,-4419,-150,-1080,17,1,13,163,569,-185,1,0,18,8,80,1,53298,1
2,31266,34557,31745,27166,38135,-4423,-153,-1056,32,-40,13,158,570,-182,1,0,18,8,120,1,53298,1
2,31266,34565,31747,27167,38149,-4406,-162,-1049,19,-44,25,170,576,-186,1,0,18,8,160,1,53298,1
2,31266,34560,31748,27168,38162,-4432,-152,-1052,-15,-5,31,168,576,-188,1,0,18,8,200,1,53298,1
2,31271,34569,31748,27169,38174,-4417,-142,-1060,7,4,33,172,572,-184,1,0,18,8,240,1,53298,1
2,31268,34567,31749,27170,38187,-4416,-161,-1067,36,13,29,167,571,-191,1,0,18,8,280,1,53298,1
2,31268,34565,31748,27171,38200,-4423,-149,-1066,45,14,6,166,564,-188,1,0,18,8,320,1,53298,1
2,31267,34568,31745,27172,38213,-4422,-161,-1054,16,20,-9,160,576,-184,1,0,18,8,360,1,53298,1
2,31267,34555,31748,27173,38226,-4413,-162,-1062,11,5,0,164,572,-192,1,0,18,8,400,1,53298,1
2,31270,34560,31746,27174,38240,-4415,-168,-1064,23,5,18,161,573,-185,1,0,18,8,440,1,53298,1
2,31267,34562,31752,27175,38253,-4418,-158,-1064,31,13,24,163,573,-187,1,0,18,8,480,1,53298,1
2,31267,34566,31747,27176,38267,-4418,-164,-1055,17,11,28,166,580,-190,1,0,18,8,520,1,53298,1
2,31266,34564,31748,27177,38279,-4413,-159,-1064,16,6,33,166,576,-174,1,0,18,8,560,1,53298,1
2,31267,34563,31750,27178,38292,-4411,-154,-1071,9,3,21,164,570,-186,1,0,18,8,600,1,53298,1
2,31268,34562,31750,27179,38306,-4424,-164,-1061,20,5,31,163,573,-183,1,0,18,8,640,1,53298,1
2,31265,34564,31747,27180,38319,-4413,-160,-1062,10,2,18,167,573,-195,1,0,18,8,680,1,53298,1
2,31263,34560,31749,27181,38333,-4412,-158,-1078,3,6,13,160,574,-184,1,0,18,8,720,1,53298,1
2,31264,34562,31748,27182,38347,-4411,-160,-1063,11,10,1,163,569,-197,1,0,18,8,760,1,53298,1
2,31266,34563,31752,27183,38362,-4420,-156,-1064,29,17,15,168,572,-190,1,0,18,8,800,1,53298,1
2,31263,34564,31750,27184,38376,-4414,-163,-1075,27,11,9,172,582,-182,1,0,18,8,840,1,53298,1
2,31262,34568,31748,27185,38390,-4422,-163,-1072,25,9,19,166,572,-188,1,0,18,8,880,1,53298,1
2,31265,34569,31753,27186,38405,-4417,-166,-1069,20,-1,35,169,569,-191,1,0,18,8,920,1,53298,1
2,31265,34566,31749,27187,38419,-4432,-167,-1061,24,4,35,157,567,-193,1,0,18,8,960,1,53298,1
1,31262,34561,31748,27188,0,-4418,-167,-1078,15,4,32,165,575,-191,1,0,18,9,0,1,53298,1
2,31265,34565,31752,27189,37639,-4422,-159,-1073,14,-4,11,165,571,-185,1,0,18,9,40,1,53298,1
2,31266,34567,31751,27190,37653,-4419,-164,-1065,8,-4,8,159,571,-187,1,0,18,9,80,1,53298,1
2,31266,34569,31751,27191,37668,-4430,-168,-1060,18,-4,5,165,567,-193,1,0,18,9,120,1,53298,1
2,31265,34569,31750,27192,37682,-4422,-163,-1059,18,3,11,158,574,-190,1,0,18,9,160,1,53298,1
2,31265,34571,31750,27193,37695,-4425,-161,-1059,21,14,23,166,574,-186,1,0,18,9,200,1,53298,1
2,31266,34566,31750,27194,37708,-4418,-165,-1074,19,6,24,173,571,-185,1,0,18,9,240,1,53298,1
2,31263,34570,31752,27195,37722,-4415,-158,-1057,16,1,20,171,575,-197,1,0,18,9,280,1,53298,1
2,31265,34565,31749,27196,37735,-4423,-166,-1066,6,-4,18,164,574,-198,1,0,18,9,320,1,53298,1
2,31263,34561,31752,27197,37750,-4408,-161,-1059,15,-14,19,168,572,-186,1,0,18,9,360,1,53298,1
2,31265,34566,31752,27198,37763,-4436,-186,-1067,6,-1,22,160,570,-186,1,0,18,9,400,1,53298,1
2,31265,34568,31753,27199,37776,-4426,-165,-1066,8,4,23,161,571,-183,1,0,18,9,440,1,53298,1
2,31266,34563,31747,27200,37789,-4414,-162,-1082,-5,-7,12,159,583,-179,1,0,18,9,480,1,53298,1
2,31264,34567,31748,27201,37802,-4418,-161,-1070,17,-5,11,165,579,-179,1,0,18,9,520,1,53298,1
2,31267,34564,31746,27202,37817,-4418,-157,-1059,5,-12,14,163,581,-187,1,0,18,9,560,1,53298,1
2,31265,34566,31751,27203,37831,-4421,-158,-1055,0,-11,30,167,565,-193,1,0,18,9,600,1,53298,1
2,31265,34567,31751,27204,37844,-4427,-161,-1068,8,-6,30,170,572,-184,1,0,18,9,640,1,53298,1
2,31264,34568,31748,27205,37858,-4408,-154,-1078,7,-5,34,166,574,-190,1,0,18,9,680,1,53298,1
2,31266,34569,31749,27206,37872,-4420,-157,-1079,-7,-6,19,161,579,-185,1,0,18,9,720,1,53298,1
2,31266,34567,31752,27207,37887,-4415,-163,-1076,3,-10,18,162,572,-188,1,0,18,9,760,1,53298,1
2,31268,34567,31751,27208,37902,-4424,-161,-1065,1,-13,14,171,575,-189,1,0,18,9,800,1,53298,1
2,31265,34566,31754,27209,37915,-4425,-157,-1061,-1,-17,17,163,575,-195,1,0,18,9,840,1,53298,1
2,31265,34573,31751,27210,37930,-4411,-159,-1069,6,-13,25,164,570,-192,1,0,18,9,880,1,53298,1
2,31267,34571,31754,27211,37943,-4434,-172,-1056,12,-5,24,159,567,-179,1,0,18,9,920,1,53298,1
2,31265,34573,31755,27212,37956,-4406,-157,-1056,4,-11,34,170,570,-186,1,0,18,9,960,1,53298,1
1,31266,34568,31752,27213,0,-4418,-159,-1065,18,-3,20,171,571,-189,1,0,18,10,0,0,53298,1
2,31265,34565,31750,27214,37169,-4423,-166,-1063,-1,2,9,163,575,-193,1,0,18,10,40,0,53298,1
2,31268,34572,31749,27215,37181,-4429,-158,-1047,0,-1,20,167,577,-193,1,0,18,10,80,0,53298,1
2,31265,34568,31751,27216,37195,-4423,-176,-1071,11,1,23,166,566,-194,1,0,18,10,120,0,53298,1
2,31266,34569,31752,27217,37209,-4426,-156,-1063,19,5,21,171,573,-193,1,0,18,10,160,0,53298,1
2,31265,34567,31748,27218,37223,-4423,-153,-1064,20,-8,16,162,568,-192,1,0,18,10,200,0,53298,1
2,31265,34568,31748,27219,37236,-4426,-170,-1065,8,-12,13,168,572,-196,1,0,18,10,240,0,53298,1
2,31266,34568,31749,27220,37249,-4424,-161,-1067,12,-14,13,170,570,-188,1,0,18,10,280,0,53298,1
2,31265,34567,31750,27221,37264,-4422,-162,-1064,6,-7,28,162,572,-188,1,0,18,10,320,0,53298,1
2,31263,34566,31750,27222,37278,-4422,-157,-1073,4,-9,30,169,573,-189,1,0,18,10,360,0,53298,1
2,31264,34566,31750,27223,37292,-4416,-160,-1057,6,-7,28,167,571,-197,1,0,18,10,400,0,53298,1
2,31264,34566,31751,27224,37305,-4405,-154,-1063,-2,-5,30,165,573,-193,1,0,18,10,440,0,53298,1
2,31263,34564,31753,27225,37318,-4427,-160,-1064,8,-7,17,167,571,-191,1,0,18,10,480,0,53298,1
2,31267,34567,31750,27226,37331,-4422,-160,-1074,6,-13,13,163,571,-169,1,0,18,10,520,0,53298,1
2,31266,34566,31756,27227,37345,-4415,-161,-1068,-1,-13,13,165,573,-189,1,0,18,10,560,0,53298,1
2,31265,34565,31752,27228,37358,-4422,-161,-1067,11,-12,27,169,567,-193,1,0,18,10,600,0,53298,1
2,31265,34568,31751,27229,37373,-4419,-149,-1071,-31,-13,39,166,568,-190,1,0,18,10,640,0,53298,1
2,31267,34568,31754,27230,37387,-4409,-161,-1067,0,-29,35,175,573,-183,1,0,18,10,680,0,53298,1
2,31262,34569,31752,27231,37401,-4418,-156,-1077,-25,-6,25,162,566,-188,1,0,18,10,720,0,53298,1
2,31264,34559,31752,27232,37415,-4421,-162,-1059,-9,-4,23,164,582,-200,1,0,18,10,760,0,53298,1
2,31260,34562,31750,27233,37429,-4413,-172,-1073,18,-7,29,164,574,-184,1,0,18,10,800,0,53298,1
2,31263,34562,31749,27234,37442,-4426,-170,-1090,-3,3,19,170,572,-182,1,0,18,10,840,0,53298,1
2,31263,34563,31755,27235,37456,-4404,-146,-1076,9,-1,26,166,576,-186,1,0,18,10,880,0,53298,1
2,31263,34563,31752,27236,37469,-4414,-160,-1072,14,-6,14,158,572,-184,1,0,18,10,920,0,53298,1
2,31262,34568,31752,27237,37482,-4419,-160,-1058,-2,1,7,162,576,-188,1,0,18,10,960,0,53298,1
1,31261,34562,31746,27238,0,-4428,-167,-1054,1,-1,15,169,569,-189,1,0,18,11,0,1,53298,1
2,31261,34560,31750,27239,36700,-4425,-171,-1069,12,-5,25,167,571,-189,1,0,18,11,40,1,53298,1
2,31261,34559,31751,27240,36714,-4415,-163,-1071,10,-7,27,176,574,-196,1,0,18,11,80,1,53298,1
2,31261,34560,31750,27241,36727,-4421,-168,-1069,17,-2,37,157,569,-181,1,0,18,11,120,1,53298,1
2,31261,34563,31751,27242,36740,-4410,-151,-1079,6,-4,27,162,576,-184,1,0,18,11,160,1,53298,1
2,31264,34562,31750,27243,36753,-4419,-160,-1067,15,2,20,171,575,-185,1,0,18,11,200,1,53298,1
2,31262,34564,31756,27244,36766,-4428,-167,-1069,20,-5,10,167,577,-187,1,0,18,11,240,1,53298,1
2,31261,34563,31750,27245,36779,-4416,-161,-1068,12,-5,12,166,574,-190,1,0,18,11,280,1,53298,1
2,31259,34564,31750,27246,36793,-4401,-157,-1078,-4,-4,17,176,572,-196,1,0,18,11,320,1,53298,1
2,31263,34560,31749,27247,36807,-4418,-163,-1059,11,-2,27,169,577,-187,1,0,18,11,360,1,53298,1
2,31262,34564,31753,27248,36820,-4420,-162,-1064,2,-4,25,171,567,-195,1,0,18,11,400,1,53298,1
2,31258,34561,31751,27249,36833,-4421,-161,-1070,-13,-3,17,169,571,-183,1,0,18,11,440,1,53298,1
2,31260,34557,31751,27250,36847,-4411,-150,-1062,4,5,20,168,570,-174,1,0,18,11,480,1,53298,1
2,31260,34564,31754,27251,36860,-4418,-156,-1059,13,-5,10,161,571,-187,1,0,18,11,520,1,53298,1
2,31260,34562,31748,27252,36874,-4417,-166,-1070,14,0,20,164,580,-186,1,0,18,11,560,1,53298,1
2,31259,34562,31748,27253,36888,-4426,-167,-1059,8,-6,27,165,573,-195,1,0,18,11,600,1,53298,1
2,31261,34559,31752,27254,36902,-4415,-161,-1069,20,-9,24,163,573,-199,1,0,18,11,640,1,53298,1
2,31262,34560,31751,27255,36915,-4421,-157,-1082,10,-4,26,163,579,-199,1,0,18,11,680,1,53298,1
2,31260,34560,31753,27256,36929,-4403,-157,-1082,9,0,24,166,566,-188,1,0,18,11,720,1,53298,1
2,31261,34559,31753,27257,36943,-4422,-163,-1074,26,10,28,168,572,-190,1,0,18,11,760,1,53298,1
2,31259,34561,31750,27258,36957,-4425,-166,-1070,40,6,17,158,572,-178,1,0,18,11,800,1,53298,1
2,31259,34560,31749,27259,36970,-4412,-150,-1048,17,-15,18,165,571,-191,1,0,18,11,840,1,53298,1
2,31257,34555,31755,27260,36984,-4414,-162,-1072,-27,-20,16,167,569,-193,1,0,18,11,880,1,53298,1
2,31259,34560,31751,27261,36999,-4418,-165,-1070,-44,-34,17,168,572,-200,1,0,18,11,920,1,53298,1
2,31257,34558,31753,27262,37012,-4428,-161,-1070,-35,-21,24,161,577,-193,1,0,18,11,960,1,53298,1
1,31257,34561,31752,27263,0,-4425,-159,-1045,-33,-4,12,166,576,-192,1,0,18,12,0,1,53298,1
2,31256,34555,31752,27264,36233,-4432,-169,-1066,-7,-1,13,164,576,-188,1,0,18,12,40,1,53298,1
2,31252,34556,31745,27265,36247,-4434,-154,-1055,-23,-22,41,164,562,-194,1,0,18,12,80,1,53298,1
2,31250,34558,31751,27266,36261,-4422,-143,-1054,-38,-66,74,166,570,-188,1,0,18,12,120,1,53298,1
2,31250,34555,31750,27267,36275,-4386,-184,-1079,-100,-118,139,170,570,-184,1,0,18,12,160,1,53298,1
2,31247,34553,31751,27268,36290,-4357,-202,-1112,-253,-60,135,172,570,-184,1,0,18,12,200,1,53298,1
2,31250,34551,31752,27269,36304,-4424,-138,-1052,-52,13,141,167,569,-183,1,0,18,12,240,1,53298,1
2,31246,34551,31750,27270,36319,-4453,-124,-1004,106,-11,176,163,571,-185,1,0,18,12,280,1,53298,1
2,31246,34558,31752,27271,36334,-4426,-116,-1035,-27,2,154,166,574,-188,1,0,18,12,320,1,53298,1
2,31244,34555,31751,27272,36349,-4426,-113,-1081,-240,66,174,168,562,-194,1,0,18,12,360,1,53298,1
2,31242,34549,31751,27273,36363,-4499,-44,-1148,-568,137,292,168,566,-186,1,0,18,12,400,1,53298,1
2,31223,31736,31745,27274,36378,-4587,-221,-1099,-1261,-149,801,167,575,-177,1,0,18,12,440,1,53298,1
2,31226,31851,31722,27275,36394,-4573,25,-1079,-87,-350,671,160,574,-192,1,0,18,12,480,1,53298,1
2,31220,32099,31727,27276,36409,-4218,874,-1668,1091,-266,1267,156,566,-190,1,0,18,12,520,1,53298,1
2,31223,30034,31746,27277,36424,-3694,1711,-1605,1993,123,3856,149,577,-195,1,0,18,12,560,1,53298,1
2,31232,34203,31726,27278,36439,-3746,1620,-1622,1388,1774,7181,130,568,-200,1,0,18,12,600,1,53298,1
2,31204,32914,31718,27279,36455,-3836,1401,-1641,338,3405,9670,106,564,-202,1,0,18,12,640,1,53298,1
2,31197,33567,31721,27280,36471,-3981,1200,-1588,156,4692,11418,78,552,-220,1,0,18,12,680,1,53298,1
2,31188,32217,31713,27281,36486,-4064,1258,-1464,814,5467,12633,48,534,-222,1,0,18,12,720,1,53298,1
2,31157,31657,31709,27282,36502,-4161,1352,-1343,777,5646,13366,6,518,-246,1,0,18,12,760,1,53298,1
2,31147,30835,31706,27283,36518,-4314,1346,-1384,-624,5405,13739,-13,505,-253,1,0,18,12,800,1,53298,1
2,31129,30364,31705,27284,36533,-4371,1658,-1213,-1762,4691,13498,-23,477,-259,1,0,18,12,840,1,53298,1
2,31111,30238,31695,27285,36547,-3930,2169,-1175,-4339,3547,12421,-53,443,-263,1,0,18,12,880,1,53298,1
2,31095,30358,31680,27286,36561,-3766,1841,-1453,-7542,2736,11611,-60,424,-262,1,0,18,12,920,1,53298,1
2,31083,30356,31666,27287,36575,-4006,1687,-1468,-7689,2203,10817,-69,403,-261,1,0,18,12,960,1,53298,1
1,31075,30450,31651,27288,0,-3390,2094,-1297,-5159,1305,9528,-78,372,-248,1,0,18,13,0,0,53298,1
2,31065,30450,31636,27289,35764,-3158,1930,-1682,-3795,739,9116,-73,349,-251,1,0,18,13,40,0,53298,1
2,31057,30499,31634,27290,35779,-2987,2285,-1794,-2448,1038,8393,-74,338,-236,1,0,18,13,80,0,53298,1
2,31048,30495,31624,27291,35793,-2580,2624,-1664,-508,1157,7998,-81,323,-251,1,0,18,13,120,0,53298,1
2,31045,30501,31619,27292,35808,-2481,2336,-1778,-93,1422,7892,-74,310,-254,1,0,18,13,160,0,53298,1
2,31035,30520,31614,27293,35821,-2177,2626,-1605,358,1556,6560,-75,295,-249,1,0,18,13,200,0,53298,1
2,31033,30470,31608,27294,35835,-1888,2549,-1569,-703,1982,6087,-69,295,-237,1,0,18,13,240,0,53298,1
2,31028,30483,31604,27295,35849,-1986,2387,-1472,-641,2265,5853,-70,276,-238,1,0,18,13,280,0,53298,1
2,31024,30452,31599,27296,35863,-1789,2609,-1375,390,2149,5047,-65,275,-249,1,0,18,13,320,0,53298,1
2,31020,30490,31590,27297,35876,-1780,2600,-1302,375,2225,4463,-67,277,-257,1,0,18,13,360,0,53298,1
2,31018,30487,31589,27298,35890,-1625,2857,-1247,291,1979,3707,-58,270,-256,1,0,18,13,400,0,53298,1
2,31011,30550,31585,27299,35903,-1550,2747,-1300,-514,1965,3233,-71,261,-247,1,0,18,13,440,0,53298,1
2,31024,30565,31586,27300,35916,-1489,2883,-1230,-473,1632,2543,-71,261,-247,1,0,18,13,480,0,53298,1
2,31055,30645,31609,27301,35930,-1431,2790,-1289,-593,1295,2074,-66,248,-242,1,0,18,13,520,0,53298,1
2,31103,30731,31672,27302,35944,-1352,3009,-1318,-203,895,1634,-66,254,-254,1,0,18,13,560,0,53298,1
2,31169,30774,31731,27303,35958,-1274,3050,-1379,-398,760,1523,-62,254,-246,1,0,18,13,600,0,53298,1
2,31150,30737,31695,27304,35973,-1259,3018,-1323,-838,679,1343,-60,252,-248,1,0,18,13,640,0,53298,1
2,31128,30778,31690,27305,35986,-1189,2952,-1380,-1441,475,896,-60,252,-240,1,0,18,13,680,0,53298,1
2,31135,30735,31690,27306,36000,-1197,2786,-1435,-1050,442,940,-65,251,-243,1,0,18,13,720,0,53298,1
2,31154,30708,31700,27307,36015,-1207,2904,-1310,-138,229,585,-75,251,-243,1,0,18,13,760,0,53298,1
2,31163,30712,31719,27308,36029,-1128,3014,-1458,124,46,303,-65,249,-235,1,0,18,13,800,0,53298,1
2,31169,30701,31718,27309,36044,-1131,3036,-1402,251,226,407,-63,253,-251,1,0,18,13,840,0,53298,1
2,31164,30667,31726,27310,36057,-1185,3030,-1364,-180,214,36,-59,261,-245,1,0,18,13,880,0,53298,1
2,31169,30668,31735,27311,36072,-1029,3275,-1517,-250,95,-105,-63,245,-239,1,0,18,13,920,0,53298,1
2,31165,30703,31719,27312,36085,-1174,3022,-1380,-20,508,470,-61,259,-251,1,0,18,13,960,0,53298,1
1,31181,30650,31736,27313,0,-1138,3048,-1307,-56,147,-75,-65,245,-241,1,0,18,14,0,0,53298,1
2,31170,30657,31727,27314,35296,-1137,3029,-1359,-91,56,-99,-71,245,-253,1,0,18,14,40,0,53298,1
2,31155,30552,31710,27315,35309,-1298,2691,-1113,-52,100,-109,-66,260,-256,1,0,18,14,80,0,53298,1
2,31106,30547,31657,27316,35323,-1222,2886,-1151,-23,-688,-1114,-58,256,-248,1,0,18,14,120,0,53298,1
2,31109,30531,31652,27317,35336,-1179,2969,-1301,-318,-746,-1190,-67,249,-245,1,0,18,14,160,0,53298,1
2,31109,30520,31667,27318,35349,-1229,3053,-1244,-338,-589,-1110,-67,251,-249,1,0,18,14,200,0,53298,1
2,31080,30475,31632,27319,35363,-1074,3468,-1528,-571,-739,-1219,-68,246,-242,1,0,18,14,240,0,53298,1
2,31084,30430,31633,27320,35376,-1144,3476,-1591,-640,-230,-535,-67,253,-235,1,0,18,14,280,0,53298,1
2,31086,30404,31641,27321,35389,-1198,3356,-1546,-511,62,-63,-63,267,-239,1,0,18,14,320,0,53298,1
2,31089,30456,31644,27322,35402,-1283,3224,-1475,94,144,288,-62,256,-242,1,0,18,14,360,0,53298,1
2,31103,30542,31659,27323,35414,-1270,3099,-1378,84,269,517,-62,256,-244,1,0,18,14,400,0,53298,1
2,31090,30915,31640,27324,35426,-1330,2833,-1226,-226,380,479,-60,248,-248,1,0,18,14,440,0,53298,1
2,31088,31397,31628,27325,35438,-1285,2834,-1186,-151,59,16,-65,259,-235,1,0,18,14,480,0,53298,1
2,31097,32513,31651,27326,35450,-1218,2916,-1232,-20,-92,-188,-60,252,-236,1,0,18,14,520,0,53298,1
2,31102,32706,31654,27327,35462,-1282,2941,-1179,163,-93,-292,-63,257,-249,1,0,18,14,560,0,53298,1
2,31100,32828,31650,27328,35474,-1240,3096,-1292,233,-407,-680,-62,250,-242,1,0,18,14,600,0,53298,1
2,31091,32801,31643,27329,35487,-1227,3199,-1372,-33,-316,-598,-66,258,-244,1,0,18,14,640,0,53298,1
2,31117,32793,31658,27330,35499,-1305,3145,-1330,-71,-155,-389,-62,266,-250,1,0,18,14,680,0,53298,1
2,31134,32570,31693,27331,35512,-1287,3191,-1358,3,-343,-503,-70,266,-234,1,0,18,14,720,0,53298,1
2,31153,32395,31704,27332,35525,-1313,3075,-1319,-185,-265,-426,-72,256,-230,1,0,18,14,760,0,53298,1
2,31307,34520,31873,27333,35537,-1407,2897,-1217,-252,-261,-467,-66,252,-242,1,0,18,14,800,0,53298,1
2,31303,34523,31864,27334,35550,-1408,2872,-1180,-232,-558,-933,-63,255,-249,1,0,18,14,840,0,53298,1
2,31352,34568,31915,27335,35563,-1374,2931,-1199,-514,-664,-1203,-64,254,-244,1,0,18,14,880,0,53298,1
2,31360,34575,31937,27336,35576,-1512,2693,-1126,-657,-696,-1445,-64,264,-234,1,0,18,14,920,0,53298,1
2,31384,34574,31940,27337,35589,-1622,2699,-1000,-741,-1271,-2631,-64,264,-242,1,0,18,14,960,0,53298,1
1,31391,34599,31949,27338,0,-1476,2990,-1196,-1642,-1554,-3272,-69,267,-235,1,0,18,15,0,0,53298,1
2,31383,34598,31958,27339,34827,-1649,2895,-1252,-1849,-985,-2765,-80,268,-220,1,0,18,15,40,0,53298,1
2,31387,34601,31964,27340,34840,-1732,3144,-1145,-1181,-1138,-3284,-72,280,-226,1,0,18,15,80,0,53298,1
2,31389,34604,31956,27341,34853,-1601,3314,-1259,-895,-1298,-3339,-70,270,-224,1,0,18,15,120,0,53298,1
2,31375,34586,31952,27342,34866,-1854,3040,-1227,-812,-839,-2656,-72,276,-226,1,0,18,15,160,0,53298,1
2,31385,34587,31941,27343,34879,-1879,3130,-1078,-411,-862,-2677,-72,290,-224,1,0,18,15,200,0,53298,1
2,31382,34595,31958,27344,34892,-1919,3076,-1099,-339,-900,-2519,-78,290,-224,1,0,18,15,240,0,53298,1
2,31389,34609,31965,27345,34904,-2180,2744,-1021,-326,-811,-2538,-76,294,-216,1,0,18,15,280,0,53298,1
2,31391,34602,31960,27346,34917,-2139,2705,-895,-321,-1021,-3151,-67,295,-225,1,0,18,15,320,0,53298,1
2,31406,34634,31977,27347,34930,-2342,2346,-902,-233,-1116,-3733,-71,303,-217,1,0,18,15,360,0,53298,1
2,31412,34630,31981,27348,34943,-2166,2863,-976,232,-1457,-4637,-72,312,-218,1,0,18,15,400,0,53298,1
2,31362,34606,31957,27349,34955,-2261,2577,-989,173,-1176,-4180,-77,315,-219,1,0,18,15,440,0,53298,1
2,31334,34553,31902,27350,34968,-2565,2741,-1089,268,-1037,-4669,-71,327,-221,1,0,18,15,480,0,53298,1
2,31316,34539,31893,27351,34982,-2433,2981,-1011,932,-1354,-4987,-71,327,-219,1,0,18,15,520,0,53298,1
2,31274,34492,31840,27352,34995,-2802,2485,-1056,211,-995,-4809,-63,341,-217,1,0,18,15,560,0,53298,1
2,31136,31732,31696,27353,35009,-2763,2913,-927,793,-1290,-5245,-70,344,-206,1,0,18,15,600,0,53298,1
2,31266,34483,31836,27354,35022,-2811,2491,-885,315,-1385,-4687,-64,360,-208,1,0,18,15,640,0,53298,1
2,31260,34475,31704,27355,35035,-3289,2072,-996,41,-1213,-5068,-67,361,-213,1,0,18,15,680,0,53298,1
2,31134,31684,31691,27356,35047,-3083,2242,-889,1797,-1813,-5931,-67,381,-211,1,0,18,15,720,0,53298,1
2,31160,30206,31733,27357,35060,-3324,1882,-978,2328,-1708,-6070,-60,394,-196,1,0,18,15,760,0,53298,1
2,31146,31298,31707,27358,35072,-3357,2108,-1050,4044,-1890,-6455,-51,395,-219,1,0,18,15,800,0,53298,1
2,31140,32590,31710,27359,35085,-3315,2335,-1069,4624,-2085,-6456,-51,425,-199,1,0,18,15,840,0,53298,1
2,31142,31920,31721,27360,35098,-3615,2078,-1120,3827,-1664,-6012,-43,425,-211,1,0,18,15,880,0,53298,1
2,31137,31187,31730,27361,35110,-3805,2055,-1221,3234,-1822,-6212,-39,441,-215,1,0,18,15,920,0,53298,1
2,31192,30039,31776,27362,35123,-3807,2129,-1377,3106,-1884,-6202,-16,450,-206,1,0,18,15,960,0,53298,1
1,31194,30069,31795,27363,0,-3471,2598,-1676,1997,-1197,-5455,-15,461,-195,1,0,18,16,0,1,53298,1
2,31184,30155,31798,27364,34359,-3691,2261,-1461,3522,-362,-3060,-17,459,-201,1,0,18,16,40,1,53298,1
2,31138,32116,31735,27365,34372,-4166,1201,-1243,3257,-513,-2543,-11,465,-209,1,0,18,16,80,1,53298,1
2,31275,34593,31867,27366,34387,-3962,1498,-2031,1353,142,-2870,2,480,-212,1,0,18,16,120,1,53298,1
2,31299,34301,31898,27367,34402,-3726,1003,-1465,4379,42,-3266,2,482,-222,1,0,18,16,160,1,53298,1
2,31253,34292,31827,27368,34418,-3866,981,-1213,4303,351,-3815,7,505,-223,1,0,18,16,200,1,53298,1
2,31270,34134,31860,27369,34435,-4051,550,-1212,2795,318,-4529,7,509,-223,1,0,18,16,240,1,53298,1
2,31325,34430,31920,27370,34452,-4016,831,-1154,2169,376,-5202,15,519,-225,1,0,18,16,280,1,53298,1
2,31345,33874,31831,27371,34469,-4112,681,-1018,1244,162,-6290,28,538,-230,1,0,18,16,320,1,53298,1
2,31385,30544,31857,27372,34486,-4068,647,-894,-211,-232,-7448,42,552,-226,1,0,18,16,360,1,53298,1
2,31431,33991,31895,27373,34502,-4026,621,-883,-1223,-933,-8147,70,560,-238,1,0,18,16,400,1,53298,1
2,31455,33272,31904,27374,34519,-4050,678,-878,-1853,-1480,-8185,92,578,-222,1,0,18,16,440,1,53298,1
2,31452,33008,31899,27375,34535,-4146,795,-935,-2066,-2036,-7798,105,577,-221,1,0,18,16,480,1,53298,1
2,31449,32911,31911,27376,34550,-4132,953,-955,-1983,-2545,-7039,129,585,-211,1,0,18,16,520,1,53298,1
2,31522,32436,32153,27377,34565,-4075,881,-989,-2166,-3001,-6221,139,579,-199,1,0,18,16,560,1,53298,1
2,31365,30477,31804,27378,34579,-3950,717,-1005,-2124,-3203,-4917,163,575,-189,1,0,18,16,600,1,53298,1
2,31354,30303,31797,27379,34592,-3936,2677,-2562,-4293,-1549,-2490,164,580,-176,1,0,18,16,640,1,53298,1
2,31339,32475,31801,27380,34605,-5189,-368,-1639,816,1332,924,164,582,-180,1,0,18,16,680,1,53298,1
2,31336,31594,31819,27381,34619,-4378,-181,-511,3330,607,464,153,577,-181,1,0,18,16,720,1,53298,1
2,31345,30060,31817,27382,34633,-4256,-357,-540,2156,94,408,156,572,-190,1,0,18,16,760,1,53298,1
2,31391,30078,31848,27383,34647,-4308,-72,-1271,315,-161,89,154,574,-184,1,0,18,16,800,1,53298,1
2,31348,31244,31815,27384,34661,-4632,189,-1373,-258,251,25,151,579,-187,1,0,18,16,840,1,53298,1
2,31383,30457,31862,27385,34674,-4459,-45,-836,497,26,-22,151,575,-189,1,0,18,16,880,1,53298,1
2,31320,32865,31785,27386,34689,-4312,-107,-1009,177,-50,-35,150,574,-182,1,0,18,16,920,1,53298,1
2,31342,29955,31819,27387,34702,-4378,-17,-1205,448,71,-4,153,577,-191,1,0,18,16,960,1,53298,1
1,31341,29922,31804,27388,0,-4423,18,-993,679,179,-99,149,579,-193,1,0,18,17,0,0,53298,1
2,31330,29945,31799,27389,33891,-4420,-19,-955,318,249,-237,151,575,-201,1,0,18,17,40,0,53298,1
2,31342,29997,31800,27390,33905,-4410,-77,-1078,114,280,-244,155,577,-193,1,0,18,17,80,0,53298,1
2,31333,30000,31801,27391,33918,-4381,-73,-1122,160,302,-190,144,572,-186,1,0,18,17,120,0,53298,1
2,31340,30189,31803,27392,33931,-4388,-81,-1098,315,326,-159,150,568,-178,1,0,18,17,160,0,53298,1
2,31339,30320,31800,27393,33945,-4398,-61,-1094,410,344,-139,150,582,-198,1,0,18,17,200,0,53298,1
2,31338,30382,31800,27394,33959,-4389,-64,-1125,377,328,-143,152,580,-194,1,0,18,17,240,0,53298,1
2,31338,30389,31802,27395,33972,-4381,-86,-1127,290,287,-130,157,579,-195,1,0,18,17,280,0,53298,1
2,31336,30420,31795,27396,33985,-4392,-97,-1154,202,251,-114,162,576,-200,1,0,18,17,320,0,53298,1
2,31336,30390,31795,27397,33999,-4386,-104,-1143,168,165,-89,155,579,-203,1,0,18,17,360,0,53298,1
2,31334,30419,31795,27398,34012,-4400,-106,-1155,188,66,-61,149,575,-195,1,0,18,17,400,0,53298,1
2,31334,30337,31791,27399,34025,-4387,-98,-1150,141,26,-36,150,578,-190,1,0,18,17,440,0,53298,1
2,31332,30449,31793,27400,34038,-4401,-83,-1121,138,11,-22,150,576,-194,1,0,18,17,480,0,53298,1
2,31334,30466,31793,27401,34052,-4390,-88,-1120,105,15,-30,144,574,-190,1,0,18,17,520,0,53298,1
2,31335,30475,31790,27402,34065,-4391,-90,-1130,75,49,-34,158,576,-190,1,0,18,17,560,0,53298,1
2,31333,30469,31793,27403,34079,-4386,-102,-1133,97,80,-29,160,578,-198,1,0,18,17,600,0,53298,1
2,31329,30447,31794,27404,34092,-4399,-103,-1142,92,75,-20,156,572,-194,1,0,18,17,640,0,53298,1
2,31330,30427,31790,27405,34106,-4396,-100,-1148,61,62,-13,153,575,-191,1,0,18,17,680,0,53298,1
2,31333,30413,31787,27406,34119,-4389,-108,-1142,29,32,11,160,576,-198,1,0,18,17,720,0,53298,1
2,31328,30343,31791,27407,34134,-4383,-105,-1152,28,8,14,162,576,-202,1,0,18,17,760,0,53298,1
2,31326,30344,31787,27408,34148,-4393,-96,-1146,32,6,22,156,568,-198,1,0,18,17,800,0,53298,1
2,31325,30277,31782,27409,34162,-4415,-119,-1141,27,-4,15,156,582,-190,1,0,18,17,840,0,53298,1
2,31323,30177,31779,27410,34177,-4390,-104,-1157,-11,-2,9,150,580,-186,1,0,18,17,880,0,53298,1
2,31324,30129,31783,27411,34190,-4405,-101,-1139,-1,-18,17,165,573,-189,1,0,18,17,920,0,53298,1
2,31321,30186,31780,27412,34204,-4389,-98,-1139,-1,-16,24,149,577,-185,1,0,18,17,960,0,53298,1
1,31327,30346,31784,27413,0,-4393,-96,-1144,9,-23,22,163,589,-193,1,0,18,18,0,0,53298,1
2,31325,30246,31783,27414,33424,-4399,-109,-1144,6,-21,19,156,570,-196,1,0,18,18,40,0,53298,1
2,31325,30281,31785,27415,33438,-4390,-90,-1149,-5,-11,24,158,576,-202,1,0,18,18,80,0,53298,1
2,31324,30251,31786,27416,33451,-4388,-110,-1155,18,0,22,159,579,-201,1,0,18,18,120,0,53298,1
2,31322,30208,31785,27417,33466,-4391,-99,-1126,25,10,26,156,586,-188,1,0,18,18,160,0,53298,1
2,31323,30173,31778,27418,33479,-4399,-106,-1136,8,9,17,150,570,-190,1,0,18,18,200,0,53298,1
2,31324,30174,31785,27419,33493,-4389,-106,-1141,3,6,8,150,568,-194,1,0,18,18,240,0,53298,1
2,31325,30217,31786,27420,33507,-4392,-106,-1139,8,-4,7,150,572,-188,1,0,18,18,280,0,53298,1
2,31320,30212,31780,27421,33521,-4397,-109,-1137,11,-11,20,159,567,-193,1,0,18,18,320,0,53298,1
2,31317,30156,31770,27422,33535,-4392,-103,-1150,2,-19,27,153,585,-199,1,0,18,18,360,0,53298,1
2,31322,30141,31781,27423,33549,-4381,-96,-1137,-4,-19,30,155,583,-187,1,0,18,18,400,0,53298,1
2,31319,30153,31780,27424,33562,-4402,-103,-1143,2,-16,28,155,577,-193,1,0,18,18,440,0,53298,1
2,31319,30126,31782,27425,33575,-4391,-108,-1153,0,-11,16,150,574,-198,1,0,18,18,480,0,53298,1
2,31318,30165,31781,27426,33588,-4393,-104,-1142,7,-8,22,166,572,-208,1,0,18,18,520,0,53298,1
2,31320,30162,31782,27427,33601,-4403,-109,-1131,4,-3,12,152,578,-192,1,0,18,18,560,0,53298,1
2,31321,30188,31780,27428,33615,-4398,-105,-1140,1,0,18,153,577,-203,1,0,18,18,600,0,53298,1
2,31324,30203,31780,27429,33629,-4400,-105,-1143,9,-5,29,151,577,-185,1,0,18,18,640,0,53298,1
2,31322,30214,31778,27430,33643,-4391,-92,-1128,8,-15,37,146,578,-198,1,0,18,18,680,0,53298,1
2,31321,30196,31776,27431,33657,-4388,-95,-1136,-30,-38,59,148,576,-204,1,0,18,18,720,0,53298,1
2,31321,30252,31783,27432,33670,-4391,-99,-1145,-60,-45,66,151,575,-197,1,0,18,18,760,0,53298,1
2,31324,30265,31779,27433,33684,-4383,-91,-1139,-63,-61,75,142,574,-194,1,0,18,18,800,0,53298,1
2,31321,30235,31785,27434,33698,-4389,-105,-1129,-33,-75,103,157,579,-185,1,0,18,18,840,0,53298,1
2,31321,30243,31781,27435,33713,-4388,-88,-1126,-41,-69,92,160,574,-188,1,0,18,18,880,0,53298,1
2,31322,30210,31780,27436,33726,-4381,-79,-1143,-42,-72,77,152,576,-188,1,0,18,18,920,0,53298,1
2,31325,30218,31779,27437,33740,-4394,-89,-1126,-23,-49,31,158,576,-198,1,0,18,18,960,0,53298,1
1,31319,30208,31781,27438,0,-4400,-89,-1121,21,-21,7,161,575,-193,1,0,18,19,0,0,53298,1
2,31320,30188,31778,27439,32957,-4390,-97,-1129,18,8,-9,154,578,-184,1,0,18,19,40,0,53298,1
2,31315,30103,31775,27440,32972,-4401,-105,-1141,-8,21,1,158,578,-204,1,0,18,19,80,0,53298,1
2,31315,30055,31768,27441,32986,-4380,-96,-1135,24,13,15,158,576,-192,1,0,18,19,120,0,53298,1
2,31318,30155,31776,27442,33001,-4387,-82,-1143,57,0,-2,153,579,-201,1,0,18,19,160,0,53298,1
2,31321,30165,31768,27443,33015,-4395,-90,-1131,45,9,-16,154,578,-190,1,0,18,19,200,0,53298,1
2,31317,30166,31770,27444,33028,-4382,-94,-1131,19,16,-17,154,582,-194,1,0,18,19,240,0,53298,1
2,31316,30103,31767,27445,33041,-4382,-93,-1138,30,25,-21,154,578,-196,1,0,18,19,280,0,53298,1
2,31311,30027,31766,27446,33055,-4408,-108,-1138,42,34,-8,160,576,-196,1,0,18,19,320,0,53298,1
2,31313,30058,31769,27447,33069,-4406,-110,-1129,44,22,1,162,568,-200,1,0,18,19,360,0,53298,1
2,31320,30055,31772,27448,33082,-4396,-83,-1136,26,17,18,146,574,-190,1,0,18,19,400,0,53298,1
2,31318,30083,31773,27449,33097,-4391,-106,-1138,25,7,14,150,576,-192,1,0,18,19,440,0,53298,1
2,31315,30067,31777,27450,33111,-4384,-92,-1142,15,0,14,156,584,-196,1,0,18,19,480,0,53298,1
2,31315,30029,31772,27451,33126,-4392,-101,-1116,27,-17,22,163,573,-187,1,0,18,19,520,0,53298,1
2,31317,30015,31776,27452,33141,-4401,-108,-1145,2,-10,15,149,575,-197,1,0,18,19,560,0,53298,1
2,31314,30047,31771,27453,33156,-4393,-98,-1139,15,-2,13,143,577,-193,1,0,18,19,600,0,53298,1
2,31319,30108,31776,27454,33170,-4384,-102,-1132,24,-4,10,149,575,-187,1,0,18,19,640,0,53298,1
2,31317,30093,31779,27455,33183,-4397,-103,-1136,17,8,12,160,574,-192,1,0,18,19,680,0,53298,1
2,31317,30040,31776,27456,33197,-4404,-106,-1128,11,1,18,146,578,-198,1,0,18,19,720,0,53298,1
2,31317,30075,31771,27457,33211,-4410,-85,-1140,-30,-23,40,156,584,-194,1,0,18,19,760,0,53298,1
2,31315,30059,31771,27458,33225,-4406,-76,-1122,-202,-89,119,145,579,-187,1,0,18,19,800,0,53298,1
2,31311,30036,31767,27459,33239,-4377,-75,-1127,-434,-230,345,155,577,-183,1,0,18,19,840,0,53298,1
2,31308,30063,31768,27460,33253,-4574,-21,-905,-1131,-347,758,147,571,-193,1,0,18,19,880,0,53298,1
2,31301,29943,31743,27461,33268,-4566,46,-1429,-3083,-427,545,155,583,-191,1,0,18,19,920,0,53298,1
2,31308,30616,31773,27462,33284,-4462,-132,-1198,-2190,-561,328,158,574,-200,1,0,18,19,960,0,53298,1
1,31315,33252,31746,27463,0,-4153,788,-1169,-2572,-218,321,150,568,-196,1,0,18,20,0,0,53298,1
2,31314,33162,31758,27464,32490,-4016,780,-1664,-2198,555,1694,150,570,-186,1,0,18,20,40,0,53298,1
2,31355,30070,31798,27465,32506,-4027,944,-1685,32,1817,3757,140,574,-192,1,0,18,20,80,0,53298,1
2,31349,31361,31786,27466,32523,-4106,1168,-1376,1734,2813,5848,116,572,-198,1,0,18,20,120,0,53298,1
2,31360,32446,31761,27467,32540,-4161,1020,-1356,311,3513,7287,102,572,-226,1,0,18,20,160,0,53298,1
2,31333,29996,31798,27468,32557,-4147,676,-1311,-1273,3689,8173,89,561,-233,1,0,18,20,200,0,53298,1
2,31344,34059,31766,27469,32574,-4089,558,-1415,-2553,3400,8923,60,560,-238,1,0,18,20,240,0,53298,1
2,31333,30643,31756,27470,32591,-3905,398,-1571,-3341,2854,9229,38,550,-246,1,0,18,20,280,0,53298,1
2,31305,30155,31722,27471,32609,-3965,404,-1683,-2608,2480,8784,23,541,-247,1,0,18,20,320,0,53298,1
2,31295,33940,31743,27472,32627,-3912,978,-1725,-1151,2665,7871,1,527,-251,1,0,18,20,360,0,53298,1
2,31286,33260,31735,27473,32645,-3574,2105,-1701,349,3298,7258,-22,530,-254,1,0,18,20,400,0,53298,1
2,31289,34424,31728,27474,32663,-3590,2536,-1568,1025,4116,7896,-27,517,-285,1,0,18,20,440,0,53298,1
2,31260,34333,31719,27475,32681,-3761,2716,-1253,1335,4301,9073,-50,498,-282,1,0,18,20,480,0,53298,1
2,31230,34226,31709,27476,32697,-3782,2562,-1156,-507,3965,9784,-61,479,-297,1,0,18,20,520,0,53298,1
2,31201,33912,31684,27477,32713,-3514,2470,-1215,-3184,3234,10216,-78,450,-292,1,0,18,20,560,0,53298,1
2,31209,34250,31690,27478,32729,-3417,2153,-1366,-5153,2515,10441,-76,424,-294,1,0,18,20,600,0,53298,1
2,31198,34362,31686,27479,32746,-3096,2170,-1406,-5124,2001,10343,-87,389,-283,1,0,18,20,640,0,53298,1
2,31186,34393,31675,27480,32762,-3106,2140,-1439,-3928,1515,10350,-79,373,-281,1,0,18,20,680,0,53298,1
2,31173,34318,31669,27481,32777,-2763,2549,-1527,-2808,1103,9919,-90,348,-270,1,0,18,20,720,0,53298,1
2,31164,34297,31660,27482,32794,-2449,2759,-1585,-2807,1093,9627,-82,332,-264,1,0,18,20,760,0,53298,1
2,31156,34307,31652,27483,32810,-2356,2532,-1894,-2589,1175,9157,-78,312,-266,1,0,18,20,800,0,53298,1
2,31147,34271,31644,27484,32827,-2128,2491,-1942,-648,1284,8245,-78,294,-264,1,0,18,20,840,0,53298,1
2,31143,34254,31637,27485,32843,-1973,2209,-2031,1296,1273,7476,-73,287,-263,1,0,18,20,880,0,53298,1
2,31136,34215,31633,27486,32858,-1823,2431,-1761,3741,1464,6788,-66,276,-264,1,0,18,20,920,0,53298,1
2,31118,34080,31620,27487,32872,-1781,2243,-1585,2774,1490,5667,-65,277,-275,1,0,18,20,960,0,53298,1
1,31105,33825,31607,27488,0,-1343,2735,-1668,-354,2057,4567,-71,265,-273,1,0,18,21,0,0,53298,1
2,31091,33080,31585,27489,32023,-1295,2689,-1393,-2474,2496,4062,-66,260,-262,1,0,18,21,40,0,53298,1
2,31118,34347,31619,27490,32038,-1154,2615,-1524,-3650,2338,3117,-53,251,-265,1,0,18,21,80,0,53298,1
2,31085,33530,31579,27491,32053,-1005,3033,-1204,-3157,2279,2491,-61,259,-251,1,0,18,21,120,0,53298,1
2,31079,31972,31568,27492,32068,-1163,2776,-1333,-2915,1963,2372,-54,250,-256,1,0,18,21,160,0,53298,1
2,31115,34337,31608,27493,32084,-1122,2768,-1110,-2058,1407,1529,-61,249,-253,1,0,18,21,200,0,53298,1
2,31073,32444,31565,27494,32100,-1130,2726,-1116,-1013,705,1123,-67,253,-255,1,0,18,21,240,0,53298,1
2,31089,33669,31563,27495,32116,-1271,2799,-1221,-215,-52,563,-63,243,-257,1,0,18,21,280,0,53298,1
2,31086,33335,31569,27496,32131,-929,3147,-1327,-97,-565,-41,-54,254,-262,1,0,18,21,320,0,53298,1
2,31088,33188,31569,27497,32146,-1013,3002,-1356,-391,-369,132,-61,251,-241,1,0,18,21,360,0,53298,1
2,31123,33889,31605,27498,32161,-875,3132,-1456,-746,-657,-408,-56,242,-246,1,0,18,21,400,0,53298,1
2,31115,33798,31604,27499,32176,-873,3112,-1518,-382,-549,-306,-66,250,-250,1,0,18,21,440,0,53298,1
2,31084,32290,31565,27500,32190,-975,2999,-1345,116,-373,-190,-58,256,-244,1,0,18,21,480,0,53298,1
2,31080,31869,31570,27501,32206,-976,2957,-1375,-219,-502,-583,-64,248,-240,1,0,18,21,520,0,53298,1
2,31142,34345,31631,27502,32221,-1033,2951,-1298,-457,-359,-761,-55,259,-251,1,0,18,21,560,0,53298,1
2,31135,34254,31627,27503,32236,-1056,3039,-1205,-681,-343,-989,-58,248,-240,1,0,18,21,600,0,53298,1
2,31128,34343,31614,27504,32250,-1120,3036,-1145,-864,-489,-1299,-59,255,-235,1,0,18,21,640,0,53298,1
2,31131,34332,31608,27505,32265,-1090,3125,-1150,-1017,-701,-1548,-65,251,-239,1,0,18,21,680,0,53298,1
2,31107,33703,31580,27506,32280,-1132,3172,-1164,-806,-798,-1446,-62,254,-244,1,0,18,21,720,0,53298,1
2,31098,33053,31563,27507,32296,-1166,3254,-1235,-656,-929,-1426,-62,264,-240,1,0,18,21,760,0,53298,1
2,31092,33450,31567,27508,32311,-1100,3380,-1358,-575,-896,-1228,-65,253,-235,1,0,18,21,800,0,53298,1
2,31085,32819,31561,27509,32326,-1196,3277,-1427,-404,-547,-721,-73,251,-225,1,0,18,21,840,0,53298,1
2,31092,33075,31565,27510,32341,-1173,3275,-1382,-39,-463,-605,-66,256,-240,1,0,18,21,880,0,53298,1
2,31084,32904,31563,27511,32357,-1208,3209,-1356,60,-282,-379,-68,260,-232,1,0,18,21,920,0,53298,1
2,31088,32654,31566,27512,32372,-1246,3149,-1257,0,-9,-65,-67,259,-237,1,0,18,21,960,0,53298,1
1,31096,33015,31571,27513,0,-1284,3067,-1155,-60,28,-56,-62,264,-228,1,0,18,22,0,1,53298,1
2,31110,33748,31585,27514,31555,-1242,3109,-1181,-224,-150,-268,-57,261,-239,1,0,18,22,40,1,53298,1
2,31128,34313,31608,27515,31570,-1246,3052,-1176,-302,-36,-133,-60,266,-238,1,0,18,22,80,1,53298,1
2,31108,34048,31579,27516,31585,-1297,3040,-1101,-120,-135,-294,-73,257,-239,1,0,18,22,120,1,53298,1
2,31129,34283,31607,27517,31599,-1251,3146,-1191,-192,-316,-505,-62,258,-240,1,0,18,22,160,1,53298,1
2,31122,34317,31605,27518,31613,-1223,3211,-1188,-217,-85,-269,-64,266,-234,1,0,18,22,200,1,53298,1
2,31123,34319,31599,27519,31628,-1263,3213,-1142,44,-84,-139,-72,256,-234,1,0,18,22,240,1,53298,1
2,31125,34323,31607,27520,31643,-1230,3319,-1210,66,-150,-107,-68,262,-226,1,0,18,22,280,1,53298,1
2,31123,34316,31596,27521,31657,-1245,3242,-1221,-34,27,267,-61,261,-235,1,0,18,22,320,1,53298,1
2,31122,32781,31607,27522,31671,-1325,3075,-1186,-16,65,316,-62,262,-234,1,0,18,22,360,1,53298,1
2,31091,33402,31572,27523,31685,-1259,3083,-1214,18,-110,94,-56,264,-232,1,0,18,22,400,1,53298,1
2,31090,33340,31566,27524,31699,-1327,2901,-1144,-76,-11,94,-65,267,-239,1,0,18,22,440,1,53298,1
2,31116,33732,31583,27525,31713,-1330,2903,-1086,-79,-250,-408,-75,257,-229,1,0,18,22,480,1,53298,1
2,31110,33780,31586,27526,31727,-1291,2978,-1148,-142,-410,-772,-59,263,-231,1,0,18,22,520,1,53298,1
2,31113,33723,31587,27527,31741,-1350,2957,-1088,-197,-371,-906,-68,254,-242,1,0,18,22,560,1,53298,1
2,31095,33242,31572,27528,31755,-1419,2899,-1075,-48,-650,-1309,-68,266,-232,1,0,18,22,600,1,53298,1
2,31104,33224,31573,27529,31768,-1545,2774,-962,-19,-979,-1937,-71,257,-231,1,0,18,22,640,1,53298,1
2,31089,32284,31564,27530,31782,-1650,2774,-818,-483,-1447,-3019,-64,270,-232,1,0,18,22,680,1,53298,1
2,31101,33302,31578,27531,31795,-1620,2862,-828,-1296,-1823,-3725,-71,277,-223,1,0,18,22,720,1,53298,1
2,31125,33820,31599,27532,31808,-1903,2880,-749,-1582,-1970,-4169,-69,273,-235,1,0,18,22,760,1,53298,1
2,31129,33879,31607,27533,31822,-1789,3102,-897,-2030,-2535,-4899,-70,276,-220,1,0,18,22,800,1,53298,1
2,31141,33990,31621,27534,31835,-1870,2890,-1073,-2513,-2191,-4645,-73,285,-213,1,0,18,22,840,1,53298,1
2,31145,34049,31623,27535,31848,-1972,3207,-1156,-1434,-2033,-4609,-75,299,-219,1,0,18,22,880,1,53298,1
2,31150,34024,31626,27536,31862,-1992,2939,-1144,42,-1845,-4136,-77,303,-211,1,0,18,22,920,1,53298,1
2,31150,33944,31630,27537,31876,-2370,3006,-1121,1334,-1618,-4272,-70,304,-210,1,0,18,22,960,1,53298,1
1,31148,33888,31627,27538,0,-2075,3279,-1145,1302,-1594,-4519,-68,310,-210,1,0,18,23,0,1,53298,1
2,31150,33754,31622,27539,31086,-2469,2490,-1112,828,-718,-3594,-78,318,-212,1,0,18,23,40,1,53298,1
2,31145,33573,31618,27540,31101,-3045,2205,-987,2411,-915,-4793,-71,329,-219,1,0,18,23,80,1,53298,1
2,31141,33636,31623,27541,31114,-2560,2370,-862,3963,-1640,-6210,-76,338,-208,1,0,18,23,120,1,53298,1
2,31139,33137,31619,27542,31128,-2747,2020,-1076,3483,-1366,-6248,-67,359,-221,1,0,18,23,160,1,53298,1
2,31146,32894,31622,27543,31142,-3011,2094,-1199,4060,-1223,-6875,-69,365,-231,1,0,18,23,200,1,53298,1
2,31148,32416,31635,27544,31156,-3170,2192,-1277,4693,-1314,-7661,-70,376,-238,1,0,18,23,240,1,53298,1
2,31160,32445,31647,27545,31171,-3226,2263,-1456,4269,-1325,-8091,-69,401,-225,1,0,18,23,280,1,53298,1
2,31167,32516,31651,27546,31185,-3404,2307,-1631,4147,-964,-8000,-67,419,-225,1,0,18,23,320,1,53298,1
2,31172,32710,31662,27547,31200,-3560,2454,-1574,4233,-1082,-8124,-55,435,-227,1,0,18,23,360,1,53298,1
2,31192,33088,31675,27548,31215,-3959,1744,-1865,3678,-584,-8248,-45,453,-245,1,0,18,23,400,1,53298,1
2,31211,33879,31693,27549,31230,-4212,1813,-1754,5533,-642,-8828,-39,471,-243,1,0,18,23,440,1,53298,1
2,31251,34209,31725,27550,31247,-4019,1611,-1457,4944,-813,-9581,-23,493,-245,1,0,18,23,480,1,53298,1
2,31272,34140,31737,27551,31264,-3673,1536,-1456,3980,-77,-8521,4,504,-248,1,0,18,23,520,1,53298,1
2,31258,33215,31713,27552,31280,-3898,1228,-1287,4092,-526,-7838,6,526,-264,1,0,18,23,560,1,53298,1
2,31287,33697,31723,27553,31297,-3737,1381,-1069,3778,-1218,-7579,27,547,-261,1,0,18,23,600,1,53298,1
2,31322,34091,31743,27554,31314,-4163,677,-683,1971,-1764,-7602,40,568,-262,1,0,18,23,640,1,53298,1
2,31339,34065,31750,27555,31331,-4198,726,-841,-1329,-2581,-8507,68,562,-264,1,0,18,23,680,1,53298,1
2,31362,34087,31749,27556,31348,-3972,804,-957,-2922,-3053,-8746,77,581,-249,1,0,18,23,720,1,53298,1
2,31365,33989,31745,27557,31364,-3862,959,-985,-2282,-3484,-8107,118,592,-230,1,0,18,23,760,1,53298,1
2,31315,31811,31702,27558,31380,-4058,998,-1051,-1288,-4057,-7081,136,586,-220,1,0,18,23,800,1,53298,1
2,31293,32347,31715,27559,31395,-4098,803,-800,-1137,-4644,-5514,139,585,-203,1,0,18,23,840,1,53298,1
2,31314,31086,31732,27560,31409,-3960,2456,-1795,-6923,-3496,-3783,165,583,-195,1,0,18,23,880,1,53298,1
2,31309,34012,31701,27561,31423,-4654,454,-3208,-4883,328,321,149,585,-185,1,0,18,23,920,1,53298,1
2,31284,31695,31704,27562,31437,-4473,-464,-995,1947,1088,285,148,582,-192,1,0,18,23,960,1,53298,1
1,31288,33613,31703,27563,0,-4453,-335,-283,4835,880,89,144,582,-192,1,0,18,24,0,0,53298,1
2,31315,33993,31735,27564,30619,-4355,162,-922,2746,506,-397,150,578,-192,1,0,18,24,40,0,53298,1
2,31294,33272,31708,27565,30633,-4533,168,-1501,779,700,-305,154,582,-188,1,0,18,24,80,0,53298,1
2,31298,33703,31722,27566,30648,-4361,18,-1075,701,481,-326,142,586,-186,1,0,18,24,120,0,53298,1
2,31293,32719,31695,27567,30662,-4352,-125,-1011,-128,553,-311,154,582,-196,1,0,18,24,160,0,53298,1
2,31288,31054,31706,27568,30675,-4354,-35,-1278,266,432,-63,146,584,-194,1,0,18,24,200,0,53298,1
2,31287,31906,31699,27569,30689,-4388,32,-1237,1070,211,44,144,572,-198,1,0,18,24,240,0,53298,1
2,31282,32477,31697,27570,30702,-4390,39,-1068,696,120,-79,143,577,-199,1,0,18,24,280,0,53298,1
2,31287,33150,31698,27571,30716,-4376,-26,-1125,-205,152,-188,147,589,-197,1,0,18,24,320,0,53298,1
2,31284,32488,31699,27572,30729,-4360,-63,-1220,-287,98,-142,147,577,-197,1,0,18,24,360,0,53298,1
2,31286,30946,31700,27573,30743,-4367,-40,-1157,67,39,-24,145,579,-191,1,0,18,24,400,0,53298,1
2,31283,30972,31701,27574,30756,-4389,-29,-1131,175,30,71,151,577,-201,1,0,18,24,440,0,53298,1
2,31286,31156,31700,27575,30770,-4374,-31,-1162,86,32,99,148,580,-200,1,0,18,24,480,0,53298,1
2,31283,30883,31699,27576,30785,-4398,-33,-1140,115,58,94,147,581,-205,1,0,18,24,520,0,53298,1
2,31287,31228,31695,27577,30799,-4385,-18,-1153,149,87,74,147,583,-193,1,0,18,24,560,0,53298,1
2,31282,31796,31697,27578,30812,-4373,-21,-1179,108,85,48,142,584,-190,1,0,18,24,600,0,53298,1
2,31280,32630,31695,27579,30825,-4368,-45,-1187,29,67,0,152,578,-198,1,0,18,24,640,0,53298,1
2,31282,33065,31695,27580,30839,-4357,-27,-1183,3,34,-22,161,569,-199,1,0,18,24,680,0,53298,1
2,31290,33794,31705,27581,30853,-4371,-19,-1189,1,-31,-19,139,579,-201,1,0,18,24,720,0,53298,1
2,31290,33635,31703,27582,30866,-4375,-30,-1165,-9,-74,6,150,584,-200,1,0,18,24,760,0,53298,1
2,31287,33687,31705,27583,30879,-4379,-33,-1146,-46,-65,31,143,585,-187,1,0,18,24,800,0,53298,1
2,31294,33737,31709,27584,30893,-4374,-16,-1166,4,-55,43,148,584,-202,1,0,18,24,840,0,53298,1
2,31290,33669,31704,27585,30906,-4354,-62,-1241,86,-61,-11,148,580,-194,1,0,18,24,880,0,53298,1
2,31288,33523,31705,27586,30919,-4363,-4,-1149,218,25,-20,151,585,-193,1,0,18,24,920,0,53298,1
2,31284,33495,31702,27587,30932,-4377,-29,-1211,274,-4,-58,149,579,-203,1,0,18,24,960,0,53298,1
