sensorStatus,cap1,cap2,cap3,counter,microseconds_since_last_tick,accX,accY,accZ,gyroX,gyroY,gyroZ,magnetX,magnetY,magnetZ,day,hour,min,sec,msec,sync,battery_fuel,crc_good
2,31895,30120,32577,24164,15096,-4357,-204,-1265,6,-7,19,145,573,-205,1,0,16,8,40,0,53298,1
2,31907,30060,32589,24165,15108,-4336,-176,-1252,17,-12,16,152,586,-204,1,0,16,8,80,0,53298,1
2,31908,30059,32587,24166,15120,-4336,-182,-1260,-3,-8,25,146,572,-194,1,0,16,8,120,0,53298,1
2,31897,30061,32580,24167,15133,-4346,-177,-1253,2,-20,33,148,588,-204,1,0,16,8,160,0,53298,1
2,31892,30165,32577,24168,15145,-4340,-171,-1259,4,-7,27,146,576,-196,1,0,16,8,200,0,53298,1
2,31892,30178,32576,24169,15157,-4354,-189,-1277,-1,-7,26,157,567,-209,1,0,16,8,240,0,53298,1
2,31892,30166,32578,24170,15169,-4342,-175,-1270,7,-5,21,139,583,-191,1,0,16,8,280,0,53298,1
2,31890,30134,32576,24171,15180,-4349,-179,-1253,10,-12,13,157,583,-197,1,0,16,8,320,0,53298,1
2,31890,30079,32575,24172,15192,-4341,-180,-1251,3,-13,23,148,572,-210,1,0,16,8,360,0,53298,1
2,31903,30056,32584,24173,15204,-4358,-194,-1273,15,-11,27,157,579,-205,1,0,16,8,400,0,53298,1
2,31895,30100,32575,24174,15216,-4341,-184,-1257,14,2,27,150,574,-200,1,0,16,8,440,0,53298,1
2,31887,30125,32569,24175,15228,-4348,-181,-1268,11,-3,21,153,575,-207,1,0,16,8,480,0,53298,1
2,31883,30132,32567,24176,15240,-4344,-187,-1256,-3,-8,21,152,578,-218,1,0,16,8,520,0,53298,1
2,31882,30072,32566,24177,15251,-4345,-187,-1269,4,0,23,161,579,-193,1,0,16,8,560,0,53298,1
2,31898,30068,32571,24178,15262,-4339,-186,-1270,10,-5,24,149,577,-203,1,0,16,8,600,0,53298,1
2,31911,30081,32596,24179,15275,-4336,-184,-1270,-5,-7,16,146,572,-202,1,0,16,8,640,0,53298,1
2,31902,30087,32584,24180,15287,-4343,-182,-1265,9,-16,27,153,579,-201,1,0,16,8,680,0,53298,1
2,31902,30094,32582,24181,15298,-4346,-186,-1262,3,-19,11,157,577,-197,1,0,16,8,720,0,53298,1
2,31904,30070,32587,24182,15310,-4352,-192,-1245,5,-7,19,149,577,-207,1,0,16,8,760,0,53298,1
2,31907,30090,32588,24183,15321,-4337,-174,-1248,16,-2,19,148,580,-204,1,0,16,8,800,0,53298,1
2,31903,30104,32587,24184,15332,-4336,-183,-1257,17,-1,11,148,574,-202,1,0,16,8,840,0,53298,1
2,31905,30083,32591,24185,15344,-4348,-177,-1265,23,1,23,150,588,-202,1,0,16,8,880,0,53298,1
2,31900,30088,32584,24186,15356,-4338,-177,-1265,10,-11,30,154,570,-212,1,0,16,8,920,0,53298,1
2,31896,30083,32588,24187,15368,-4350,-187,-1257,-10,-15,32,148,580,-194,1,0,16,8,960,0,53298,1
1,31906,30086,32589,24188,0,-4347,-180,-1264,8,-9,20,150,580,-200,1,0,16,9,0,1,53298,1
2,31900,30145,32590,24189,14612,-4347,-190,-1262,10,-8,18,159,575,-203,1,0,16,9,40,1,53298,1
2,31896,30105,32589,24190,14624,-4334,-180,-1269,-5,-7,18,145,585,-205,1,0,16,9,80,1,53298,1
2,31902,30091,32587,24191,14635,-4339,-182,-1265,11,-7,19,151,577,-209,1,0,16,9,120,1,53298,1
2,31900,30081,32585,24192,14647,-4337,-182,-1253,5,-7,18,145,573,-195,1,0,16,9,160,1,53298,1
2,31905,30104,32591,24193,14658,-4340,-179,-1265,5,-2,14,156,584,-206,1,0,16,9,200,1,53298,1
2,31901,30082,32586,24194,14670,-4337,-170,-1263,11,-15,-1,147,583,-205,1,0,16,9,240,1,53298,1
2,31902,30070,32576,24195,14681,-4346,-187,-1258,1,-16,-7,147,579,-199,1,0,16,9,280,1,53298,1
2,31891,30091,32574,24196,14694,-4345,-177,-1265,29,-26,-26,152,570,-202,1,0,16,9,320,1,53298,1
2,31890,30089,32575,24197,14705,-4336,-176,-1254,31,-26,-30,151,573,-203,1,0,16,9,360,1,53298,1
2,31889,30115,32576,24198,14716,-4348,-185,-1271,-6,-25,-6,150,570,-192,1,0,16,9,400,1,53298,1
2,31892,30085,32580,24199,14728,-4343,-199,-1263,-12,-18,52,152,568,-206,1,0,16,9,440,1,53298,1
2,31888,30097,32565,24200,14740,-4359,-204,-1254,24,-13,93,150,572,-202,1,0,16,9,480,1,53298,1
2,31888,30119,32566,24201,14751,-4362,-191,-1256,24,-7,79,153,579,-205,1,0,16,9,520,1,53298,1
2,31891,30067,32575,24202,14763,-4347,-191,-1255,0,-8,61,145,577,-203,1,0,16,9,560,1,53298,1
2,31890,30039,32576,24203,14775,-4346,-179,-1253,16,3,34,142,576,-196,1,0,16,9,600,1,53298,1
2,31888,30031,32573,24204,14786,-4340,-174,-1243,21,8,13,156,576,-196,1,0,16,9,640,1,53298,1
2,31890,30033,32572,24205,14798,-4345,-182,-1271,-4,25,-10,155,573,-201,1,0,16,9,680,1,53298,1
2,31894,30042,32570,24206,14809,-4353,-197,-1269,-14,29,-16,149,577,-205,1,0,16,9,720,1,53298,1
2,31884,30044,32569,24207,14820,-4365,-202,-1272,-3,10,11,148,578,-196,1,0,16,9,760,1,53298,1
2,31881,30052,32563,24208,14832,-4356,-187,-1269,-17,-43,36,153,577,-201,1,0,16,9,800,1,53298,1
2,31883,30033,32564,24209,14844,-4349,-180,-1266,-41,-76,38,148,578,-198,1,0,16,9,840,1,53298,1
2,31883,30047,32567,24210,14855,-4345,-189,-1244,-42,-72,45,153,575,-203,1,0,16,9,880,1,53298,1
2,31889,30064,32574,24211,14868,-4344,-174,-1251,-17,-45,53,154,580,-190,1,0,16,9,920,1,53298,1
2,31892,30060,32568,24212,14880,-4357,-188,-1256,-31,-18,60,148,568,-198,1,0,16,9,960,1,53298,1
1,31889,30066,32570,24213,0,-4338,-179,-1262,-23,12,59,149,573,-205,1,0,16,10,0,0,53298,1
2,31891,30067,32572,24214,14128,-4340,-171,-1262,-2,-1,67,152,580,-200,1,0,16,10,40,0,53298,1
2,31892,30080,32576,24215,14141,-4332,-171,-1263,-20,-27,77,153,577,-205,1,0,16,10,80,0,53298,1
2,31891,30049,32570,24216,14152,-4339,-175,-1269,-31,-44,69,157,581,-205,1,0,16,10,120,0,53298,1
2,31892,30048,32573,24217,14164,-4346,-173,-1265,-3,-54,52,154,580,-208,1,0,16,10,160,0,53298,1
2,31894,30062,32574,24218,14175,-4358,-181,-1257,0,-53,10,152,582,-202,1,0,16,10,200,0,53298,1
2,31887,30067,32563,24219,14186,-4332,-171,-1266,2,-25,-21,145,575,-205,1,0,16,10,240,0,53298,1
2,31891,30055,32571,24220,14198,-4346,-185,-1244,33,3,-25,145,579,-197,1,0,16,10,280,0,53298,1
2,31881,30060,32565,24221,14211,-4348,-192,-1273,-3,10,13,158,580,-204,1,0,16,10,320,0,53298,1
2,31884,30072,32562,24222,14223,-4355,-191,-1256,-15,-2,55,152,578,-210,1,0,16,10,360,0,53298,1
2,31886,30059,32563,24223,14236,-4392,-186,-1234,-122,-47,107,154,576,-192,1,0,16,10,400,0,53298,1
2,31897,30087,32564,24224,14248,-4329,-125,-1300,-394,-270,281,149,577,-201,1,0,16,10,440,0,53298,1
2,31893,30088,32547,24225,14259,-4251,-217,-1378,-481,-612,524,145,577,-197,1,0,16,10,480,0,53298,1
2,31914,30074,32553,24226,14272,-4399,-168,-1303,-497,-962,879,143,577,-197,1,0,16,10,520,0,53298,1
2,31937,30086,32535,24227,14284,-4146,-178,-1597,-845,-1453,1277,139,583,-195,1,0,16,10,560,0,53298,1
2,32001,30022,32541,24228,14296,-4260,-8,-1152,-901,-1453,1024,138,588,-190,1,0,16,10,600,0,53298,1
2,32054,30026,32552,24229,14309,-4464,-16,-795,-959,-1205,932,132,576,-178,1,0,16,10,640,0,53298,1
2,32065,30035,32551,24230,14322,-4530,116,-713,-1056,-1244,765,141,587,-183,1,0,16,10,680,0,53298,1
2,32042,30043,32541,24231,14334,-4372,55,-950,-993,-870,554,146,584,-184,1,0,16,10,720,0,53298,1
2,32008,30036,32535,24232,14346,-4285,-61,-977,-371,-76,278,124,578,-180,1,0,16,10,760,0,53298,1
2,31967,30022,32527,24233,14358,-4375,-13,-1055,338,557,43,147,575,-189,1,0,16,10,800,0,53298,1
2,31925,30039,32524,24234,14370,-4461,4,-1193,196,758,30,140,580,-184,1,0,16,10,840,0,53298,1
2,31906,30032,32509,24235,14382,-4351,-12,-1165,197,466,111,141,571,-191,1,0,16,10,880,0,53298,1
2,31902,30022,32506,24236,14394,-4325,-77,-1235,76,184,107,140,580,-194,1,0,16,10,920,0,53298,1
2,31893,30015,32513,24237,14405,-4291,-56,-1187,107,-50,59,132,576,-190,1,0,16,10,960,0,53298,1
1,31912,30019,32515,24238,0,-4344,3,-1091,291,-123,-23,136,576,-192,1,0,16,11,0,1,53298,1
2,31927,30014,32516,24239,13643,-4368,11,-1080,215,-122,-94,139,573,-195,1,0,16,11,40,1,53298,1
2,31931,30024,32520,24240,13654,-4405,7,-1118,-22,-52,-109,137,579,-185,1,0,16,11,80,1,53298,1
2,31937,30015,32518,24241,13665,-4373,-20,-1087,-90,-29,-48,138,572,-182,1,0,16,11,120,1,53298,1
2,31939,30039,32518,24242,13676,-4384,-25,-1151,-290,-109,72,142,580,-194,1,0,16,11,160,1,53298,1
2,31943,30032,32518,24243,13688,-4369,-40,-1174,-342,-134,251,138,590,-194,1,0,16,11,200,1,53298,1
2,31959,30039,32526,24244,13700,-4397,36,-1107,-139,-114,379,137,573,-195,1,0,16,11,240,1,53298,1
2,31964,30086,32520,24245,13711,-4359,44,-1038,86,-18,398,132,586,-192,1,0,16,11,280,1,53298,1
2,31966,30018,32517,24246,13724,-4385,35,-1020,97,97,325,135,579,-189,1,0,16,11,320,1,53298,1
2,31963,30042,32512,24247,13736,-4366,41,-1122,-256,180,176,136,578,-190,1,0,16,11,360,1,53298,1
2,31976,30046,32525,24248,13747,-4347,-1,-1149,-344,238,141,134,574,-196,1,0,16,11,400,1,53298,1
2,31957,31435,32447,24249,13759,-4509,-352,-1077,-761,133,366,126,584,-186,1,0,16,11,440,1,53298,1
2,31904,32052,32421,24250,13772,-4235,403,-1093,-279,-164,182,136,580,-182,1,0,16,11,480,1,53298,1
2,31924,34368,32445,24251,13785,-4267,527,-1361,-1458,-85,264,133,585,-193,1,0,16,11,520,1,53298,1
2,31932,34784,32470,24252,13798,-4121,687,-1833,-3443,984,1076,129,581,-193,1,0,16,11,560,1,53298,1
2,31911,34347,32446,24253,13812,-3974,926,-1865,-2288,2384,2354,119,577,-207,1,0,16,11,600,1,53298,1
2,31918,33923,32450,24254,13825,-4030,991,-1656,418,3413,4111,104,582,-222,1,0,16,11,640,1,53298,1
2,31932,34911,32464,24255,13838,-4041,969,-1437,1723,4011,5753,88,582,-226,1,0,16,11,680,1,53298,1
2,31905,34694,32437,24256,13850,-3957,1107,-1339,1606,4497,7085,63,579,-229,1,0,16,11,720,1,53298,1
2,31878,34930,32419,24257,13862,-3896,1104,-1360,1049,4952,8019,34,566,-248,1,0,16,11,760,1,53298,1
2,31841,35000,32407,24258,13875,-3999,1022,-1255,820,5189,8977,23,551,-269,1,0,16,11,800,1,53298,1
2,31792,35029,32403,24259,13887,-4118,1086,-1348,769,4876,9389,2,538,-274,1,0,16,11,840,1,53298,1
2,31765,35098,32402,24260,13900,-4259,1001,-1502,-37,4034,9650,-23,515,-281,1,0,16,11,880,1,53298,1
2,31742,35113,32417,24261,13913,-4293,1183,-1858,-611,3488,9587,-40,486,-288,1,0,16,11,920,1,53298,1
2,31727,35130,32441,24262,13926,-4225,1197,-1764,1411,2481,9109,-44,466,-298,1,0,16,11,960,1,53298,1
1,31699,35110,32440,24263,0,-3893,1411,-1918,1161,1987,8058,-55,453,-303,1,0,16,12,0,0,53298,1
2,31676,31325,32393,24264,13160,-3718,1361,-1971,-888,2212,6970,-50,440,-302,1,0,16,12,40,0,53298,1
2,31670,34250,32441,24265,13173,-3548,1649,-2032,-2285,2531,6351,-57,417,-317,1,0,16,12,80,0,53298,1
2,31781,31065,32502,24266,13186,-3302,1517,-1793,-1883,1971,6307,-55,411,-315,1,0,16,12,120,0,53298,1
2,31777,30180,32511,24267,13200,-2873,2151,-2353,-1846,1870,7036,-61,395,-307,1,0,16,12,160,0,53298,1
2,31708,30407,32437,24268,13215,-2842,2054,-2386,-1148,2408,7200,-72,368,-304,1,0,16,12,200,0,53298,1
2,31642,30257,32388,24269,13230,-2615,2253,-2198,-781,3030,6683,-67,371,-317,1,0,16,12,240,0,53298,1
2,31609,30114,32366,24270,13245,-2279,2635,-2366,-1163,3386,6839,-71,353,-317,1,0,16,12,280,0,53298,1
2,31703,30134,32441,24271,13258,-2432,2590,-2474,-176,3452,7504,-70,340,-316,1,0,16,12,320,0,53298,1
2,31294,29945,31978,24272,13271,-2509,3086,-2154,842,3376,6137,-72,322,-308,1,0,16,12,360,0,53298,1
2,31355,32023,32028,24273,13283,-2288,1901,-1899,-18,1869,4632,-43,323,-313,1,0,16,12,400,0,53298,1
2,31388,33110,32025,24274,13294,-2082,1344,-1724,-1336,1323,5500,-57,305,-303,1,0,16,12,440,0,53298,1
2,31286,33029,31942,24275,13306,-2043,1349,-2227,-2223,1719,5013,-54,306,-308,1,0,16,12,480,0,53298,1
2,31244,32995,31883,24276,13319,-1980,1513,-2012,3356,1809,4535,-46,292,-318,1,0,16,12,520,0,53298,1
2,31256,34154,31899,24277,13331,-2003,2290,-2033,4437,2432,3924,-51,285,-321,1,0,16,12,560,0,53298,1
2,31220,33778,31870,24278,13343,-1844,2427,-1933,3342,1827,3210,-48,284,-320,1,0,16,12,600,0,53298,1
2,31202,33460,31846,24279,13355,-1587,2796,-1913,659,1564,2586,-54,278,-324,1,0,16,12,640,0,53298,1
2,31214,33537,31826,24280,13368,-1543,2683,-2135,-1455,1255,2712,-43,275,-325,1,0,16,12,680,0,53298,1
2,31211,33683,31823,24281,13380,-1406,2668,-2402,-2021,1082,2526,-44,274,-314,1,0,16,12,720,0,53298,1
2,31204,33424,31825,24282,13392,-1460,2423,-2416,91,1175,2689,-46,276,-316,1,0,16,12,760,0,53298,1
2,31192,33593,31825,24283,13405,-1201,2732,-2537,2250,1062,2652,-45,265,-313,1,0,16,12,800,0,53298,1
2,31174,33641,31806,24284,13418,-1153,2491,-2306,1786,1315,2875,-34,266,-316,1,0,16,12,840,0,53298,1
2,31173,33945,31808,24285,13431,-1167,2247,-2407,261,1821,3109,-39,261,-327,1,0,16,12,880,0,53298,1
2,31170,34013,31805,24286,13444,-1137,1990,-2194,-206,1711,2541,-40,256,-322,1,0,16,12,920,0,53298,1
2,31168,34010,31800,24287,13457,-1166,2060,-2114,281,1166,1669,-29,251,-315,1,0,16,12,960,0,53298,1
1,31161,34063,31803,24288,0,-1099,2395,-2089,-591,697,751,-44,262,-324,1,0,16,13,0,0,53298,1
2,31150,33884,31786,24289,12676,-1224,2298,-2187,-1224,368,357,-43,267,-307,1,0,16,13,40,0,53298,1
2,31140,33775,31776,24290,12688,-1237,2476,-2220,-1131,-89,-416,-40,256,-318,1,0,16,13,80,0,53298,1
2,31139,33606,31772,24291,12699,-1171,2747,-2278,-1097,-618,-1175,-42,260,-314,1,0,16,13,120,0,53298,1
2,31134,33549,31761,24292,12712,-1184,2746,-2411,-1448,-567,-1059,-41,261,-319,1,0,16,13,160,0,53298,1
2,31125,33385,31751,24293,12725,-1235,2601,-2285,-1119,-426,-930,-44,268,-308,1,0,16,13,200,0,53298,1
2,31110,33246,31738,24294,12738,-1135,2878,-2310,-620,-757,-1252,-46,258,-306,1,0,16,13,240,0,53298,1
2,31103,33167,31735,24295,12749,-1132,2724,-2185,-845,-796,-1170,-47,263,-307,1,0,16,13,280,0,53298,1
2,31095,33017,31725,24296,12761,-1255,2452,-2171,-835,-558,-836,-45,267,-303,1,0,16,13,320,0,53298,1
2,31078,32838,31717,24297,12773,-1270,2456,-2125,-946,-850,-1308,-56,258,-312,1,0,16,13,360,0,53298,1
2,31076,32812,31706,24298,12785,-1262,2553,-2018,-844,-1271,-1878,-54,264,-302,1,0,16,13,400,0,53298,1
2,31068,32738,31702,24299,12796,-1401,2397,-2071,-1326,-1241,-1880,-46,270,-308,1,0,16,13,440,0,53298,1
2,31065,32760,31698,24300,12807,-1485,2455,-2000,-1289,-1301,-2240,-55,269,-295,1,0,16,13,480,0,53298,1
2,31059,32810,31702,24301,12818,-1600,2432,-2007,-1603,-1707,-2941,-50,274,-298,1,0,16,13,520,0,53298,1
2,31059,32670,31701,24302,12828,-1647,2565,-2058,-1711,-1952,-3684,-58,288,-304,1,0,16,13,560,0,53298,1
2,31047,32636,31692,24303,12839,-1753,2592,-2009,-2423,-1875,-4113,-61,289,-289,1,0,16,13,600,0,53298,1
2,31043,32618,31686,24304,12850,-1829,2578,-2067,-2383,-1809,-4341,-55,305,-295,1,0,16,13,640,0,53298,1
2,31041,32585,31689,24305,12860,-1926,2764,-2055,-1922,-1801,-4489,-69,299,-287,1,0,16,13,680,0,53298,1
2,31034,32571,31680,24306,12871,-1887,2872,-2020,-2049,-1577,-4373,-66,308,-278,1,0,16,13,720,0,53298,1
2,31040,32602,31685,24307,12881,-2051,2682,-1925,-1793,-1259,-4060,-63,309,-293,1,0,16,13,760,0,53298,1
2,31041,32624,31684,24308,12892,-2176,2397,-1836,-930,-1175,-4059,-65,321,-287,1,0,16,13,800,0,53298,1
2,31032,32651,31684,24309,12903,-2271,2495,-1712,170,-1212,-4384,-64,336,-288,1,0,16,13,840,0,53298,1
2,31022,32670,31680,24310,12913,-2374,2430,-1613,747,-1398,-4539,-68,340,-284,1,0,16,13,880,0,53298,1
2,31019,32634,31684,24311,12924,-2597,2170,-1599,1,-1352,-4754,-68,348,-282,1,0,16,13,920,0,53298,1
2,31000,32654,31685,24312,12935,-2716,2137,-1614,-596,-1355,-5363,-63,351,-287,1,0,16,13,960,0,53298,1
1,30998,32630,31695,24313,0,-2773,2158,-1597,320,-1701,-5980,-64,368,-286,1,0,16,14,0,1,53298,1
2,31000,32688,31719,24314,12191,-3140,1926,-1419,506,-1919,-6338,-62,386,-284,1,0,16,14,40,1,53298,1
2,31030,33646,31743,24315,12202,-3282,2125,-1714,-643,-2127,-6875,-48,400,-284,1,0,16,14,80,1,53298,1
2,31036,33900,31764,24316,12214,-3282,2299,-1813,946,-2238,-7171,-46,410,-278,1,0,16,14,120,1,53298,1
2,31037,33679,31758,24317,12225,-3315,2239,-1593,1694,-3069,-7526,-50,422,-282,1,0,16,14,160,1,53298,1
2,31055,33632,31761,24318,12236,-3485,2144,-1750,-595,-2663,-7562,-38,436,-270,1,0,16,14,200,1,53298,1
2,31061,33670,31763,24319,12247,-3497,2095,-1826,-812,-2362,-7322,-33,459,-267,1,0,16,14,240,1,53298,1
2,31071,33678,31765,24320,12258,-3546,1782,-1646,417,-2234,-6883,-19,471,-255,1,0,16,14,280,1,53298,1
2,31075,33691,31775,24321,12269,-3673,1699,-1491,700,-2117,-6609,-11,477,-263,1,0,16,14,320,1,53298,1
2,31089,33706,31784,24322,12280,-3842,1567,-1472,745,-2131,-6358,0,496,-254,1,0,16,14,360,1,53298,1
2,31096,33675,31781,24323,12292,-3788,1638,-1499,252,-1901,-6148,16,506,-248,1,0,16,14,400,1,53298,1
2,31097,33675,31781,24324,12304,-3939,1332,-1244,558,-1828,-5785,17,507,-239,1,0,16,14,440,1,53298,1
2,31107,33724,31780,24325,12315,-3916,1165,-1122,-360,-2121,-5904,32,528,-236,1,0,16,14,480,1,53298,1
2,31107,33671,31786,24326,12327,-3868,895,-1095,-1443,-2383,-6023,48,532,-228,1,0,16,14,520,1,53298,1
2,31121,33686,31795,24327,12340,-3942,908,-1221,-2242,-2390,-6092,71,539,-235,1,0,16,14,560,1,53298,1
2,31119,33703,31800,24328,12352,-3930,774,-1168,-1395,-2514,-5972,84,542,-222,1,0,16,14,600,1,53298,1
2,31122,33466,31813,24329,12365,-4063,823,-1186,-584,-2536,-5689,90,538,-214,1,0,16,14,640,1,53298,1
2,31114,33505,31821,24330,12378,-4066,898,-1187,447,-2347,-5049,106,548,-208,1,0,16,14,680,1,53298,1
2,31126,32095,31825,24331,12390,-4035,969,-1121,1463,-2129,-4290,108,554,-190,1,0,16,14,720,1,53298,1
2,31125,33889,31830,24332,12403,-4015,966,-1126,1394,-1719,-3450,121,559,-199,1,0,16,14,760,1,53298,1
2,31160,32859,31891,24333,12415,-3885,906,-1054,1170,-1309,-2543,128,554,-190,1,0,16,14,800,1,53298,1
2,31181,32380,31896,24334,12427,-3840,794,-869,1681,-1029,-1432,118,556,-188,1,0,16,14,840,1,53298,1
2,31151,30515,31836,24335,12439,-4196,1768,-977,657,-989,-815,106,552,-178,1,0,16,14,880,1,53298,1
2,31185,33432,31855,24336,12450,-4788,536,-881,-1422,116,42,122,540,-178,1,0,16,14,920,1,53298,1
2,31186,34049,31857,24337,12461,-5271,-251,-1891,-2113,725,-320,124,554,-170,1,0,16,14,960,1,53298,1
1,31193,34062,31865,24338,0,-4519,679,-1266,528,726,-835,126,546,-172,1,0,16,15,0,0,53298,1
2,31204,34173,31866,24339,11708,-4095,156,-830,2301,-148,-435,119,541,-177,1,0,16,15,40,0,53298,1
2,31239,34123,31898,24340,11719,-4078,-24,-1039,1882,-49,25,119,549,-183,1,0,16,15,80,0,53298,1
2,31297,34287,31964,24341,11732,-4376,240,-1269,1463,336,248,121,555,-179,1,0,16,15,120,0,53298,1
2,31322,34299,31979,24342,11744,-4509,508,-943,1406,295,309,117,553,-185,1,0,16,15,160,0,53298,1
2,31322,34250,31967,24343,11756,-4410,335,-797,928,-2,290,121,551,-181,1,0,16,15,200,0,53298,1
2,31307,34200,31962,24344,11767,-4258,234,-1043,328,41,216,118,548,-182,1,0,16,15,240,0,53298,1
2,31299,34066,31945,24345,11778,-4282,287,-1109,279,310,81,113,543,-179,1,0,16,15,280,0,53298,1
2,31294,33954,31943,24346,11790,-4361,300,-1023,441,454,-82,124,552,-182,1,0,16,15,320,0,53298,1
2,31295,33946,31936,24347,11801,-4329,250,-1040,435,368,-156,111,549,-181,1,0,16,15,360,0,53298,1
2,31298,33899,31940,24348,11812,-4270,234,-1136,272,280,-163,120,550,-192,1,0,16,15,400,0,53298,1
2,31293,33913,31937,24349,11823,-4299,237,-1148,255,276,-187,129,545,-187,1,0,16,15,440,0,53298,1
2,31308,34012,31953,24350,11834,-4333,246,-1070,319,202,-158,118,546,-186,1,0,16,15,480,0,53298,1
2,31304,33907,31942,24351,11846,-4327,265,-1074,224,87,-64,110,542,-182,1,0,16,15,520,0,53298,1
2,31292,33925,31940,24352,11857,-4299,235,-1123,56,22,18,117,549,-179,1,0,16,15,560,0,53298,1
2,31309,33907,31945,24353,11868,-4315,226,-1102,62,5,80,123,545,-189,1,0,16,15,600,0,53298,1
2,31321,33875,31961,24354,11880,-4309,264,-1091,127,-15,114,129,551,-181,1,0,16,15,640,0,53298,1
2,31321,33891,31957,24355,11891,-4317,251,-1078,127,5,95,119,549,-185,1,0,16,15,680,0,53298,1
2,31336,33880,31968,24356,11903,-4323,253,-1085,81,38,42,128,552,-184,1,0,16,15,720,0,53298,1
2,31345,33836,31978,24357,11915,-4310,250,-1102,86,72,11,112,552,-178,1,0,16,15,760,0,53298,1
2,31350,33832,31977,24358,11926,-4310,243,-1104,124,87,-16,116,546,-186,1,0,16,15,800,0,53298,1
2,31341,33787,31971,24359,11938,-4313,242,-1092,147,91,-24,118,552,-192,1,0,16,15,840,0,53298,1
2,31351,33769,31969,24360,11949,-4294,251,-1098,88,67,1,120,544,-176,1,0,16,15,880,0,53298,1
2,31330,33732,31965,24361,11960,-4314,229,-1124,56,53,31,114,548,-172,1,0,16,15,920,0,53298,1
2,31331,33740,31967,24362,11972,-4310,235,-1111,80,42,45,116,534,-178,1,0,16,15,960,0,53298,1
1,31334,33735,31966,24363,0,-4323,245,-1087,83,16,61,118,548,-180,1,0,16,16,0,1,53298,1
2,31329,33633,31962,24364,11225,-4319,237,-1106,96,22,49,120,546,-176,1,0,16,16,40,1,53298,1
2,31336,33674,31969,24365,11237,-4298,242,-1124,52,29,27,122,544,-192,1,0,16,16,80,1,53298,1
2,31345,33711,31974,24366,11248,-4312,226,-1109,53,26,13,119,547,-191,1,0,16,16,120,1,53298,1
2,31346,33731,31976,24367,11260,-4302,232,-1129,40,22,-1,121,551,-187,1,0,16,16,160,1,53298,1
2,31358,33744,31987,24368,11272,-4313,232,-1112,48,16,4,116,552,-186,1,0,16,16,200,1,53298,1
2,31356,33817,31985,24369,11284,-4326,233,-1112,51,2,22,120,544,-182,1,0,16,16,240,1,53298,1
2,31361,33782,31993,24370,11296,-4310,253,-1125,42,-5,30,122,544,-186,1,0,16,16,280,1,53298,1
2,31371,33792,31995,24371,11308,-4322,225,-1106,45,5,38,119,553,-191,1,0,16,16,320,1,53298,1
2,31379,33807,32006,24372,11319,-4303,242,-1129,48,7,40,121,555,-185,1,0,16,16,360,1,53298,1
2,31397,33864,32010,24373,11331,-4317,238,-1117,54,14,26,110,550,-180,1,0,16,16,400,1,53298,1
2,31402,33845,32022,24374,11343,-4318,229,-1106,38,14,8,122,554,-190,1,0,16,16,440,1,53298,1
2,31404,33852,32025,24375,11354,-4308,249,-1107,51,20,4,117,551,-187,1,0,16,16,480,1,53298,1
2,31418,33820,32042,24376,11366,-4316,224,-1109,55,18,4,122,540,-192,1,0,16,16,520,1,53298,1
2,31445,33880,32060,24377,11377,-4322,230,-1100,36,21,22,119,547,-189,1,0,16,16,560,1,53298,1
2,31452,33908,32065,24378,11388,-4317,234,-1116,66,23,50,124,554,-182,1,0,16,16,600,1,53298,1
2,31483,33972,32090,24379,11400,-4323,246,-1120,86,26,54,110,546,-182,1,0,16,16,640,1,53298,1
2,31463,33883,32073,24380,11411,-4312,236,-1133,50,16,34,118,546,-186,1,0,16,16,680,1,53298,1
2,31463,33888,32074,24381,11422,-4315,228,-1123,-26,-4,-6,120,542,-186,1,0,16,16,720,1,53298,1
2,31460,33887,32073,24382,11434,-4307,240,-1130,-33,-28,-8,118,550,-200,1,0,16,16,760,1,53298,1
2,31461,33877,32074,24383,11446,-4305,228,-1127,4,-46,-4,111,559,-177,1,0,16,16,800,1,53298,1
2,31455,33855,32073,24384,11458,-4307,240,-1119,25,-18,8,121,547,-183,1,0,16,16,840,1,53298,1
2,31435,33816,32051,24385,11469,-4319,224,-1117,26,11,25,121,547,-183,1,0,16,16,880,1,53298,1
2,31422,33762,32041,24386,11479,-4306,232,-1125,8,14,28,110,548,-192,1,0,16,16,920,1,53298,1
2,31414,33732,32038,24387,11490,-4309,231,-1131,7,5,43,120,562,-182,1,0,16,16,960,1,53298,1
1,31409,33666,32022,24388,0,-4291,247,-1128,8,-17,43,113,543,-183,1,0,16,17,0,0,53298,1
2,31393,33665,32011,24389,10742,-4316,234,-1125,0,-27,34,119,547,-185,1,0,16,17,40,0,53298,1
2,31382,33674,32002,24390,10754,-4305,243,-1108,-7,-29,30,106,548,-180,1,0,16,17,80,0,53298,1
2,31363,33654,31994,24391,10765,-4312,235,-1124,-5,-22,20,123,549,-181,1,0,16,17,120,0,53298,1
2,31355,33599,31975,24392,10777,-4301,243,-1120,6,0,15,121,551,-185,1,0,16,17,160,0,53298,1
2,31342,33571,31972,24393,10788,-4337,217,-1112,17,8,1,119,549,-185,1,0,16,17,200,0,53298,1
2,31337,33522,31969,24394,10799,-4318,239,-1138,3,5,8,126,542,-188,1,0,16,17,240,0,53298,1
2,31330,33529,31959,24395,10810,-4305,244,-1135,22,-9,20,123,541,-193,1,0,16,17,280,0,53298,1
2,31329,33518,31959,24396,10821,-4306,232,-1127,13,7,24,112,546,-182,1,0,16,17,320,0,53298,1
2,31316,33499,31950,24397,10832,-4312,239,-1119,24,7,28,123,547,-185,1,0,16,17,360,0,53298,1
2,31310,33449,31942,24398,10844,-4312,233,-1125,5,-9,27,115,549,-181,1,0,16,17,400,0,53298,1
2,31305,33407,31936,24399,10856,-4312,230,-1127,2,-8,15,127,545,-193,1,0,16,17,440,0,53298,1
2,31302,33461,31938,24400,10867,-4303,236,-1111,28,-15,7,118,542,-194,1,0,16,17,480,0,53298,1
2,31304,33442,31941,24401,10879,-4312,229,-1111,25,1,9,120,556,-186,1,0,16,17,520,0,53298,1
2,31305,33456,31935,24402,10890,-4306,236,-1132,2,3,12,119,551,-189,1,0,16,17,560,0,53298,1
2,31305,33403,31940,24403,10901,-4306,239,-1125,17,18,16,119,557,-187,1,0,16,17,600,0,53298,1
2,31294,33401,31930,24404,10913,-4302,238,-1132,46,12,28,116,550,-194,1,0,16,17,640,0,53298,1
2,31300,33439,31934,24405,10923,-4323,226,-1132,11,11,24,116,554,-184,1,0,16,17,680,0,53298,1
2,31286,33464,31931,24406,10934,-4307,243,-1148,10,4,24,120,548,-184,1,0,16,17,720,0,53298,1
2,31284,33491,31926,24407,10945,-4315,239,-1128,11,-12,21,115,551,-185,1,0,16,17,760,0,53298,1
2,31282,33421,31923,24408,10955,-4322,236,-1130,10,-14,24,123,545,-189,1,0,16,17,800,0,53298,1
2,31280,33415,31920,24409,10966,-4308,232,-1132,-2,-11,25,118,546,-188,1,0,16,17,840,0,53298,1
2,31278,33399,31918,24410,10977,-4327,216,-1114,24,-14,22,112,552,-184,1,0,16,17,880,0,53298,1
2,31276,33401,31924,24411,10987,-4312,225,-1120,7,-3,26,119,545,-185,1,0,16,17,920,0,53298,1
2,31276,33350,31918,24412,10997,-4307,238,-1119,15,5,30,120,544,-184,1,0,16,17,960,0,53298,1
1,31269,33394,31916,24413,0,-4311,231,-1127,32,-2,30,121,553,-195,1,0,16,18,0,1,53298,1
2,31269,33341,31914,24414,10260,-4291,245,-1106,37,14,25,117,549,-187,1,0,16,18,40,1,53298,1
2,31270,33374,31909,24415,10270,-4307,235,-1133,20,26,23,118,548,-184,1,0,16,18,80,1,53298,1
2,31269,33368,31914,24416,10281,-4318,235,-1133,49,35,-5,121,549,-195,1,0,16,18,120,1,53298,1
2,31266,33389,31907,24417,10291,-4309,240,-1120,67,24,-27,120,548,-196,1,0,16,18,160,1,53298,1
2,31258,33319,31904,24418,10301,-4319,233,-1143,26,21,-28,119,543,-193,1,0,16,18,200,1,53298,1
2,31251,33227,31898,24419,10312,-4296,223,-1141,9,-3,-9,117,543,-189,1,0,16,18,240,1,53298,1
2,31234,33233,31888,24420,10323,-4310,222,-1118,15,-18,28,116,550,-182,1,0,16,18,280,1,53298,1
2,31222,33196,31868,24421,10334,-4313,222,-1136,25,-20,67,126,548,-190,1,0,16,18,320,1,53298,1
2,31203,33228,31859,24422,10346,-4311,238,-1138,3,-15,77,119,547,-179,1,0,16,18,360,1,53298,1
2,31197,33134,31853,24423,10357,-4310,241,-1127,-17,-21,63,118,552,-194,1,0,16,18,400,1,53298,1
2,31189,33083,31841,24424,10369,-4308,237,-1128,-8,-12,39,115,549,-191,1,0,16,18,440,1,53298,1
2,31180,33056,31840,24425,10380,-4310,234,-1128,26,-6,34,108,544,-172,1,0,16,18,480,1,53298,1
2,31171,33086,31833,24426,10391,-4302,246,-1127,14,4,22,110,552,-188,1,0,16,18,520,1,53298,1
2,31166,33060,31828,24427,10403,-4308,228,-1128,1,18,20,117,551,-187,1,0,16,18,560,1,53298,1
2,31161,33082,31825,24428,10414,-4325,221,-1146,5,10,22,105,547,-189,1,0,16,18,600,1,53298,1
2,31161,33033,31822,24429,10425,-4310,223,-1142,18,-7,23,125,549,-183,1,0,16,18,640,1,53298,1
2,31158,32964,31821,24430,10437,-4321,237,-1130,-1,-33,24,118,546,-186,1,0,16,18,680,1,53298,1
2,31159,33022,31819,24431,10447,-4307,236,-1111,11,-28,21,119,543,-183,1,0,16,18,720,1,53298,1
2,31151,33049,31813,24432,10458,-4316,230,-1130,10,-18,13,114,544,-188,1,0,16,18,760,1,53298,1
2,31152,32977,31816,24433,10468,-4304,246,-1130,30,5,9,119,545,-193,1,0,16,18,800,1,53298,1
2,31148,32984,31810,24434,10479,-4311,225,-1135,22,18,2,113,551,-185,1,0,16,18,840,1,53298,1
2,31154,32985,31813,24435,10491,-4304,238,-1134,15,22,15,112,546,-180,1,0,16,18,880,1,53298,1
2,31148,32984,31809,24436,10503,-4319,233,-1152,27,1,26,123,545,-185,1,0,16,18,920,1,53298,1
2,31145,32994,31813,24437,10515,-4309,228,-1124,42,-1,43,114,550,-176,1,0,16,18,960,1,53298,1
1,31149,33000,31806,24438,0,-4301,247,-1129,43,-15,43,112,548,-186,1,0,16,19,0,1,53298,1
2,31144,32982,31807,24439,9778,-4300,240,-1130,12,-14,43,117,549,-185,1,0,16,19,40,1,53298,1
2,31143,32925,31804,24440,9790,-4313,242,-1124,-15,-21,40,112,554,-188,1,0,16,19,80,1,53298,1
2,31145,32936,31806,24441,9802,-4301,244,-1144,-21,-32,40,113,549,-177,1,0,16,19,120,1,53298,1
2,31129,32965,31793,24442,9813,-4307,237,-1139,-28,-35,36,120,540,-188,1,0,16,19,160,1,53298,1
2,31133,33005,31804,24443,9824,-4324,230,-1137,-24,-9,4,117,547,-179,1,0,16,19,200,1,53298,1
2,31140,32941,31800,24444,9835,-4311,241,-1129,7,-2,-16,124,546,-184,1,0,16,19,240,1,53298,1
2,31138,32973,31799,24445,9845,-4308,244,-1124,17,3,-30,118,544,-194,1,0,16,19,280,1,53298,1
2,31139,33032,31807,24446,9855,-4319,224,-1136,20,8,-7,110,548,-184,1,0,16,19,320,1,53298,1
2,31140,33026,31802,24447,9866,-4304,234,-1128,25,1,19,125,553,-183,1,0,16,19,360,1,53298,1
2,31136,33036,31800,24448,9876,-4309,242,-1125,10,-2,41,125,551,-191,1,0,16,19,400,1,53298,1
2,31141,33043,31805,24449,9886,-4310,234,-1113,-21,8,31,120,558,-190,1,0,16,19,440,1,53298,1
2,31137,33092,31800,24450,9896,-4310,233,-1147,0,-1,21,123,545,-189,1,0,16,19,480,1,53298,1
2,31136,33097,31801,24451,9906,-4316,231,-1149,-9,-4,10,113,557,-189,1,0,16,19,520,1,53298,1
2,31137,33149,31805,24452,9915,-4311,229,-1119,-25,-15,-9,122,552,-190,1,0,16,19,560,1,53298,1
2,31135,33145,31801,24453,9926,-4310,223,-1128,-26,-30,0,109,539,-177,1,0,16,19,600,1,53298,1
2,31132,33090,31800,24454,9937,-4311,233,-1120,-1,-21,19,119,547,-197,1,0,16,19,640,1,53298,1
2,31138,33050,31798,24455,9948,-4323,221,-1126,27,-2,27,119,553,-187,1,0,16,19,680,1,53298,1
2,31137,33012,31800,24456,9958,-4314,238,-1125,33,7,23,117,553,-179,1,0,16,19,720,1,53298,1
2,31132,32988,31806,24457,9968,-4321,231,-1125,36,-7,19,113,551,-183,1,0,16,19,760,1,53298,1
2,31138,32912,31811,24458,9978,-4301,232,-1138,-6,-30,-1,118,550,-182,1,0,16,19,800,1,53298,1
2,31132,32977,31796,24459,9989,-4333,247,-1170,-30,-57,0,117,559,-189,1,0,16,19,840,1,53298,1
2,31130,32980,31799,24460,10000,-4288,200,-1210,-342,-95,53,120,550,-184,1,0,16,19,880,1,53298,1
2,31129,33012,31797,24461,10011,-4290,201,-1143,-296,-280,158,104,544,-192,1,0,16,19,920,1,53298,1
2,31128,33091,31810,24462,10022,-4346,227,-1151,-504,-412,255,120,556,-188,1,0,16,19,960,1,53298,1
1,31124,33076,31800,24463,0,-4334,245,-1106,-365,-639,382,112,550,-184,1,0,16,20,0,0,53298,1
2,31123,33028,31802,24464,9296,-4318,274,-1039,-205,-723,434,115,543,-187,1,0,16,20,40,0,53298,1
2,31127,33050,31800,24465,9307,-4334,319,-973,-199,-598,380,102,556,-174,1,0,16,20,80,0,53298,1
2,31128,33110,31800,24466,9316,-4328,330,-998,-248,-433,275,110,546,-180,1,0,16,20,120,0,53298,1
2,31129,33083,31803,24467,9327,-4289,296,-1029,-324,-258,142,117,547,-179,1,0,16,20,160,0,53298,1
2,31125,33080,31802,24468,9338,-4301,289,-1050,-240,-76,10,108,554,-180,1,0,16,20,200,0,53298,1
2,31125,33015,31811,24469,9348,-4326,276,-1041,-11,-10,-44,120,554,-178,1,0,16,20,240,0,53298,1
2,31129,33032,31801,24470,9360,-4317,271,-1004,104,35,1,115,541,-185,1,0,16,20,280,0,53298,1
2,31134,33038,31800,24471,9371,-4322,291,-1013,118,127,128,117,547,-173,1,0,16,20,320,0,53298,1
2,31130,32991,31799,24472,9381,-4341,301,-1041,332,183,251,113,545,-181,1,0,16,20,360,0,53298,1
2,31135,32983,31795,24473,9391,-4343,298,-1047,484,209,306,107,543,-181,1,0,16,20,400,0,53298,1
2,31133,32954,31794,24474,9401,-4311,273,-1106,330,176,286,117,555,-187,1,0,16,20,440,0,53298,1
2,31132,32939,31791,24475,9410,-4280,294,-1161,4,84,162,121,545,-181,1,0,16,20,480,0,53298,1
2,31129,32937,31794,24476,9421,-4290,250,-1184,-385,-82,85,111,537,-175,1,0,16,20,520,0,53298,1
2,31135,32984,31795,24477,9431,-4280,290,-1165,-583,-201,15,109,557,-181,1,0,16,20,560,0,53298,1
2,31166,34354,31843,24478,9442,-4309,245,-1237,-382,-197,-77,112,556,-184,1,0,16,20,600,0,53298,1
2,31164,34385,31842,24479,9452,-4396,312,-995,-455,24,-144,116,556,-186,1,0,16,20,640,0,53298,1
2,31166,34420,31857,24480,9463,-4309,468,-787,-503,13,107,113,553,-181,1,0,16,20,680,0,53298,1
2,31133,33970,31834,24481,9474,-4382,363,-955,-435,-183,285,112,550,-180,1,0,16,20,720,0,53298,1
2,31132,31066,31820,24482,9485,-4218,376,-1124,-422,-162,333,112,554,-184,1,0,16,20,760,0,53298,1
2,31120,32539,31819,24483,9497,-4247,406,-1140,-173,174,343,107,553,-177,1,0,16,20,800,0,53298,1
2,31117,32920,31815,24484,9510,-4271,428,-1062,242,393,464,106,550,-182,1,0,16,20,840,0,53298,1
2,31134,32714,31857,24485,9521,-4217,571,-1109,421,383,761,102,554,-176,1,0,16,20,880,0,53298,1
2,31116,33785,31827,24486,9532,-4068,810,-1337,641,444,1294,100,552,-184,1,0,16,20,920,0,53298,1
2,31097,33623,31816,24487,9544,-3948,982,-1395,809,822,2282,85,541,-193,1,0,16,20,960,0,53298,1
1,31104,32853,31814,24488,0,-3971,1071,-1440,531,1379,3453,77,555,-183,1,0,16,21,0,0,53298,1
2,31163,34114,31898,24489,8815,-4168,879,-1414,-545,2130,4350,68,554,-190,1,0,16,21,40,0,53298,1
2,31585,34923,32155,24490,8827,-4010,1240,-1632,-1502,2824,5134,53,541,-205,1,0,16,21,80,0,53298,1
2,31562,33594,32260,24491,8840,-4006,1137,-1442,-239,3149,6415,32,542,-220,1,0,16,21,120,0,53298,1
2,31635,32394,32362,24492,8854,-4111,1368,-1354,800,3576,7883,14,534,-232,1,0,16,21,160,0,53298,1
2,31590,31859,32321,24493,8867,-4123,1532,-1495,1356,3782,8795,-4,518,-238,1,0,16,21,200,0,53298,1
2,31661,30115,32394,24494,8881,-4103,1492,-1384,1335,3748,8703,-22,508,-240,1,0,16,21,240,0,53298,1
2,31428,30412,32150,24495,8894,-3999,1538,-1288,127,3696,8274,-31,495,-263,1,0,16,21,280,0,53298,1
2,31451,30322,32127,24496,8907,-3832,1624,-1404,-1286,3432,8094,-42,472,-272,1,0,16,21,320,0,53298,1
2,32318,30643,33158,24497,8920,-3746,1304,-1180,-1675,2864,8209,-47,461,-257,1,0,16,21,360,0,53298,1
2,32198,31677,32587,24498,8934,-3314,2141,-1795,-439,2261,9327,-66,434,-284,1,0,16,21,400,0,53298,1
2,32802,30777,33785,24499,8950,-3183,1772,-1666,1358,1651,9165,-75,423,-281,1,0,16,21,440,0,53298,1
2,32933,31212,33774,24500,8966,-3086,1993,-1687,634,1991,8450,-71,395,-281,1,0,16,21,480,0,53298,1
2,32939,35249,33714,24501,8983,-3186,1919,-1765,-1099,2393,7630,-80,376,-282,1,0,16,21,520,0,53298,1
2,32721,35801,33610,24502,8999,-2856,2250,-1939,-952,2177,6346,-83,367,-283,1,0,16,21,560,0,53298,1
2,32420,34650,33180,24503,9014,-2812,2459,-2148,-915,2586,5092,-85,363,-277,1,0,16,21,600,0,53298,1
2,32471,34123,33199,24504,9027,-2406,133,-1204,-1857,2383,3959,-77,353,-287,1,0,16,21,640,0,53298,1
2,32507,33470,33207,24505,9040,-2787,1848,-2004,-3543,2811,5224,-79,343,-291,1,0,16,21,680,0,53298,1
2,32304,33456,33173,24506,9053,-2564,2034,-1948,-192,1803,4458,-81,329,-285,1,0,16,21,720,0,53298,1
2,32712,34925,33457,24507,9066,-2189,2214,-1683,826,1721,3811,-84,332,-290,1,0,16,21,760,0,53298,1
2,32928,36452,33641,24508,9080,-2369,2383,-1698,73,1892,4036,-72,322,-298,1,0,16,21,800,0,53298,1
2,33239,36710,33882,24509,9095,-2006,3060,-1865,-273,1576,3336,-74,314,-292,1,0,16,21,840,0,53298,1
2,33515,36905,34145,24510,9110,-1951,3210,-2038,-1132,1871,4144,-82,306,-296,1,0,16,21,880,0,53298,1
2,32831,34972,33529,24511,9124,-2034,3035,-2115,-477,2024,5050,-70,300,-286,1,0,16,21,920,0,53298,1
2,32201,32208,32770,24512,9139,-1932,3530,-2574,291,2405,4419,-75,293,-283,1,0,16,21,960,0,53298,1
1,31250,30560,32110,24513,0,-1608,3016,-1760,2176,1789,4271,-64,286,-292,1,0,16,22,0,0,53298,1
2,31549,30439,32375,24514,8333,-1731,2762,-1624,4961,1930,5672,-63,271,-299,1,0,16,22,40,0,53298,1
2,31347,30640,32086,24515,8345,-1738,2096,-1477,2998,2247,5543,-57,267,-299,1,0,16,22,80,0,53298,1
2,31280,30170,32012,24516,8356,-1412,2029,-1679,-3417,2217,3276,-59,267,-297,1,0,16,22,120,0,53298,1
2,31232,30833,32002,24517,8367,-1223,2315,-2569,-5677,2668,3787,-48,262,-280,1,0,16,22,160,0,53298,1
2,31242,30273,32003,24518,8378,-1349,2492,-1777,1996,2239,4494,-47,259,-303,1,0,16,22,200,0,53298,1
2,31246,30018,32013,24519,8389,-1024,2948,-1938,2371,1532,3455,-49,243,-305,1,0,16,22,240,0,53298,1
2,31241,30257,32001,24520,8400,-989,2924,-1935,-1708,2277,2904,-49,249,-293,1,0,16,22,280,0,53298,1
2,31293,30018,32058,24521,8411,-909,2909,-1838,-4081,2508,2731,-48,244,-284,1,0,16,22,320,0,53298,1
2,31721,30157,32378,24522,8422,-867,2867,-1967,-4096,2259,2846,-52,244,-290,1,0,16,22,360,0,53298,1
2,31588,30284,32282,24523,8434,-846,2811,-1901,-2914,2099,2893,-43,239,-281,1,0,16,22,400,0,53298,1
2,32273,30805,32679,24524,8446,-724,2901,-1891,-2612,1982,2519,-43,241,-277,1,0,16,22,440,0,53298,1
2,31605,30403,32063,24525,8458,-773,2804,-1703,-2713,1816,2061,-34,242,-268,1,0,16,22,480,0,53298,1
2,31790,30487,32215,24526,8469,-792,2423,-1566,-3199,1562,1358,-46,240,-262,1,0,16,22,520,0,53298,1
2,31791,30468,32258,24527,8480,-776,2436,-1497,-2318,1029,446,-44,240,-266,1,0,16,22,560,0,53298,1
2,31961,30581,32377,24528,8491,-728,2704,-1297,278,181,-90,-45,237,-263,1,0,16,22,600,0,53298,1
2,31876,30537,32323,24529,8502,-710,2734,-1205,1317,-509,-442,-40,254,-264,1,0,16,22,640,0,53298,1
2,31905,30554,32331,24530,8514,-663,3065,-1413,893,-1098,-1188,-51,251,-275,1,0,16,22,680,0,53298,1
2,31943,30570,32369,24531,8524,-623,3144,-1550,517,-1471,-1456,-49,235,-279,1,0,16,22,720,0,53298,1
2,31862,30550,32326,24532,8535,-787,2649,-1537,-155,-1301,-1408,-48,246,-268,1,0,16,22,760,0,53298,1
2,31901,30530,32356,24533,8546,-670,3281,-1898,-298,-1388,-1910,-52,246,-258,1,0,16,22,800,0,53298,1
2,31931,30503,32397,24534,8557,-760,3140,-1714,678,-1277,-1350,-46,242,-264,1,0,16,22,840,0,53298,1
2,32200,30568,32718,24535,8567,-812,2992,-1784,-602,-752,-1307,-57,243,-265,1,0,16,22,880,0,53298,1
2,32119,30512,32666,24536,8577,-798,3441,-1715,121,-605,-1226,-56,248,-270,1,0,16,22,920,0,53298,1
2,32085,30532,32627,24537,8587,-899,2977,-1662,-73,-604,-663,-49,249,-269,1,0,16,22,960,0,53298,1
1,32117,30531,32653,24538,0,-858,3202,-1766,257,-472,-623,-49,249,-261,1,0,16,23,0,0,53298,1
2,32098,30508,32636,24539,7852,-874,3124,-1748,-377,-312,-444,-51,255,-265,1,0,16,23,40,0,53298,1
2,32088,30505,32624,24540,7862,-896,3041,-1762,-517,8,-143,-50,244,-266,1,0,16,23,80,0,53298,1
2,32020,30490,32576,24541,7872,-886,3212,-1692,243,125,-7,-48,246,-260,1,0,16,23,120,0,53298,1
2,31928,30430,32506,24542,7882,-914,3059,-1651,168,50,117,-49,245,-273,1,0,16,23,160,0,53298,1
2,31810,30375,32412,24543,7892,-912,3098,-1628,-78,150,190,-47,245,-267,1,0,16,23,200,0,53298,1
2,31758,30338,32359,24544,7903,-931,2927,-1577,-441,200,231,-47,245,-259,1,0,16,23,240,0,53298,1
2,31708,30282,32310,24545,7914,-917,2964,-1617,-348,119,108,-45,251,-271,1,0,16,23,280,0,53298,1
2,31654,30296,32272,24546,7925,-910,2960,-1606,94,-17,63,-43,243,-267,1,0,16,23,320,0,53298,1
2,31624,30269,32248,24547,7936,-898,3032,-1574,322,-99,48,-53,251,-255,1,0,16,23,360,0,53298,1
2,31608,30280,32230,24548,7946,-887,3029,-1669,-146,-77,-81,-47,245,-263,1,0,16,23,400,0,53298,1
2,31584,30267,32224,24549,7956,-879,3067,-1600,-106,-111,-99,-47,249,-267,1,0,16,23,440,0,53298,1
2,31586,30266,32225,24550,7966,-897,3007,-1697,-257,-17,11,-46,250,-270,1,0,16,23,480,0,53298,1
2,31570,30261,32215,24551,7977,-889,3160,-1631,224,10,96,-49,249,-269,1,0,16,23,520,0,53298,1
2,31542,30270,32199,24552,7988,-882,3055,-1720,-40,100,246,-52,260,-260,1,0,16,23,560,0,53298,1
2,31527,30270,32182,24553,8000,-852,3207,-1712,123,256,348,-47,239,-263,1,0,16,23,600,0,53298,1
2,31514,30250,32181,24554,8011,-890,2949,-1594,-148,296,469,-41,249,-265,1,0,16,23,640,0,53298,1
2,31508,30257,32177,24555,8022,-888,3024,-1605,-181,274,338,-41,247,-265,1,0,16,23,680,0,53298,1
2,31512,30260,32154,24556,8033,-889,2894,-1573,-278,150,282,-43,257,-257,1,0,16,23,720,0,53298,1
2,31470,30250,32137,24557,8043,-897,2933,-1524,-88,125,180,-57,249,-263,1,0,16,23,760,0,53298,1
2,31479,30255,32135,24558,8054,-859,3022,-1633,-249,-22,-65,-39,255,-265,1,0,16,23,800,0,53298,1
2,31467,30255,32127,24559,8065,-843,3033,-1535,68,-104,-82,-45,247,-265,1,0,16,23,840,0,53298,1
2,31449,30264,32123,24560,8076,-848,3006,-1686,-480,44,-156,-46,242,-268,1,0,16,23,880,0,53298,1
2,31461,30280,32131,24561,8086,-843,3139,-1614,134,-92,-205,-44,254,-264,1,0,16,23,920,0,53298,1
2,31443,30281,32112,24562,8096,-900,2945,-1649,6,-60,-77,-55,249,-259,1,0,16,23,960,0,53298,1
1,31458,30255,32124,24563,7371,-907,3142,-1516,95,-67,-238,-43,247,-255,1,0,16,24,0,1,53298,1
2,31439,30294,32115,24564,7381,-899,2920,-1564,-266,-236,-215,-49,253,-265,1,0,16,24,40,1,53298,1
2,31434,30294,32112,24565,7391,-939,3018,-1532,-67,-214,-357,-52,238,-264,1,0,16,24,80,1,53298,1
2,31433,30297,32115,24566,7402,-940,2866,-1522,-206,-464,-581,-53,249,-265,1,0,16,24,120,1,53298,1
2,31422,30290,32109,24567,7413,-962,2872,-1499,218,-627,-790,-49,251,-271,1,0,16,24,160,1,53298,1
2,31414,30302,32103,24568,7423,-1000,2896,-1444,-102,-741,-1163,-50,254,-268,1,0,16,24,200,1,53298,1
2,31433,30282,32115,24569,7433,-1096,2760,-1340,-923,-976,-1728,-50,256,-264,1,0,16,24,240,1,53298,1
2,31430,30297,32117,24570,7443,-1270,2483,-1335,-2147,-1355,-2837,-58,258,-254,1,0,16,24,280,1,53298,1
2,31421,30274,32108,24571,7453,-1270,2765,-1435,-2401,-1850,-3948,-57,265,-253,1,0,16,24,320,1,53298,1
2,31411,30314,32118,24572,7462,-1628,1879,-1121,-2169,-2183,-4858,-61,275,-257,1,0,16,24,360,1,53298,1
2,31375,30245,32110,24573,7472,-1772,2371,-1426,-2542,-2792,-7603,-58,280,-246,1,0,16,24,400,1,53298,1
2,31392,30190,32127,24574,7481,-1873,2417,-1069,-387,-3215,-8555,-59,291,-241,1,0,16,24,440,1,53298,1
2,31379,30646,32109,24575,7490,-2586,1348,-974,-885,-3289,-9571,-70,308,-244,1,0,16,24,480,1,53298,1
2,31376,31987,32110,24576,7500,-2194,3552,-1717,-1405,-2245,-11102,-66,328,-250,1,0,16,24,520,1,53298,1
2,31408,30002,32155,24577,7511,-2894,2050,-990,1682,-2691,-9917,-73,347,-243,1,0,16,24,560,1,53298,1
2,31398,30155,32139,24578,7522,-3731,2697,-1666,2568,-2749,-12123,-64,366,-252,1,0,16,24,600,1,53298,1
2,31415,30112,32164,24579,7533,-2826,2935,-1133,7383,-4370,-12368,-76,386,-244,1,0,16,24,640,1,53298,1
2,31425,30082,32170,24580,7544,-3045,2822,-1486,4248,-3758,-11108,-51,413,-255,1,0,16,24,680,1,53298,1
2,31430,30036,32169,24581,7556,-3244,2699,-1341,2916,-3398,-9637,-54,428,-252,1,0,16,24,720,1,53298,1
2,31428,29991,32169,24582,7568,-3618,2587,-1484,1328,-3573,-8874,-36,450,-236,1,0,16,24,760,1,53298,1
2,31443,30041,32186,24583,7579,-3449,2713,-1568,66,-3331,-8528,-30,462,-232,1,0,16,24,800,1,53298,1
2,31457,30102,32191,24584,7590,-3813,2120,-1532,187,-2867,-7558,-10,462,-232,1,0,16,24,840,1,53298,1
2,31423,30049,32180,24585,7601,-3551,2362,-1673,109,-2457,-7059,-7,481,-215,1,0,16,24,880,1,53298,1
2,31443,29994,32175,24586,7611,-3595,2046,-1394,1307,-1766,-5421,1,485,-209,1,0,16,24,920,1,53298,1
2,31438,30073,32182,24587,7611,-3964,1860,-1299,1077,-1438,-4342,10,502,-214,1,0,16,24,960,1,53298,1
1,31418,31455,32174,24588,6890,-4152,1535,-1370,-951,-1031,-4228,9,505,-201,1,0,16,25,0,1,53298,1
2,31437,30684,32183,24589,6901,-4483,680,-1176,-1429,-567,-4654,36,510,-202,1,0,16,25,40,1,53298,1
2,31446,30485,32190,24590,6912,-4468,557,-1179,-517,-454,-5938,45,519,-207,1,0,16,25,80,1,53298,1
2,31467,30566,32194,24591,6923,-4339,59,-662,1093,-1072,-7252,64,524,-218,1,0,16,25,120,1,53298,1
2,31489,31349,32207,24592,6935,-3871,1035,-1149,732,-942,-7770,82,536,-218,1,0,16,25,160,1,53298,1
2,31525,30406,32231,24593,6947,-3703,775,-735,2186,-1180,-7120,104,546,-220,1,0,16,25,200,1,53298,1
2,31539,30314,32236,24594,6958,-3699,866,-839,1303,-1397,-6653,122,548,-204,1,0,16,25,240,1,53298,1
2,31523,30936,32237,24595,6970,-3848,913,-742,819,-1620,-5981,125,549,-195,1,0,16,25,280,1,53298,1
2,31526,30991,32230,24596,6981,-4200,661,-741,-33,-1950,-5303,134,554,-192,1,0,16,25,320,1,53298,1
2,31530,30452,32249,24597,6993,-4326,721,-884,-981,-2082,-4929,152,548,-190,1,0,16,25,360,1,53298,1
2,31518,30111,32260,24598,7004,-4152,768,-1047,-890,-2145,-4260,147,555,-175,1,0,16,25,400,1,53298,1
2,31481,30314,32207,24599,7015,-4014,765,-957,687,-1802,-2914,165,555,-177,1,0,16,25,440,1,53298,1
2,31498,31314,32200,24600,7025,-4272,2423,-1379,1154,-1368,-1593,161,561,-171,1,0,16,25,480,1,53298,1
2,31475,30120,32178,24601,7036,-4823,465,-1116,-1115,385,372,155,549,-171,1,0,16,25,520,1,53298,1
2,31459,31924,32183,24602,7047,-5002,-496,-1074,168,708,401,152,560,-162,1,0,16,25,560,1,53298,1
2,31465,29991,32181,24603,7057,-4608,181,-927,595,690,-579,147,561,-171,1,0,16,25,600,1,53298,1
2,31490,30156,32198,24604,7068,-4301,191,-741,2301,238,-217,154,552,-170,1,0,16,25,640,1,53298,1
2,31488,30073,32199,24605,7078,-4382,38,-803,2539,485,13,159,555,-167,1,0,16,25,680,1,53298,1
2,31493,30018,32201,24606,7088,-4549,43,-913,1430,880,-147,156,554,-174,1,0,16,25,720,1,53298,1
2,31480,29967,32181,24607,7099,-4468,78,-910,682,872,-236,155,553,-177,1,0,16,25,760,1,53298,1
2,31469,29968,32171,24608,7111,-4405,-26,-996,398,713,-192,155,551,-169,1,0,16,25,800,1,53298,1
2,31460,29972,32165,24609,7122,-4358,-84,-1078,797,494,-53,156,550,-170,1,0,16,25,840,1,53298,1
2,31465,29979,32176,24610,7134,-4367,8,-1040,1016,375,-30,156,556,-176,1,0,16,25,880,1,53298,1
2,31458,30009,32166,24611,7145,-4453,36,-946,695,341,-97,147,559,-191,1,0,16,25,920,1,53298,1
2,31459,30034,32168,24612,7145,-4421,13,-961,251,211,-92,153,561,-181,1,0,16,25,960,1,53298,1
1,31452,30036,32171,24613,6411,-4364,-18,-1028,36,97,-32,155,551,-173,1,0,16,26,0,0,53298,1
2,31453,30039,32168,24614,6422,-4396,-27,-1026,75,84,41,161,551,-183,1,0,16,26,40,0,53298,1
2,31454,30025,32165,24615,6432,-4415,5,-984,223,84,87,153,555,-171,1,0,16,26,80,0,53298,1
2,31459,30051,32171,24616,6443,-4397,-11,-994,208,60,91,166,552,-176,1,0,16,26,120,0,53298,1
2,31460,30028,32175,24617,6454,-4398,3,-1004,135,93,55,149,555,-179,1,0,16,26,160,0,53298,1
2,31458,30038,32174,24618,6465,-4402,4,-1004,78,86,6,158,542,-182,1,0,16,26,200,0,53298,1
2,31461,30033,32177,24619,6476,-4394,-6,-1022,82,51,-21,151,551,-175,1,0,16,26,240,0,53298,1
2,31460,30012,32176,24620,6486,-4396,-6,-1022,96,35,-38,153,555,-177,1,0,16,26,280,0,53298,1
2,31462,30015,32177,24621,6497,-4393,-3,-1016,54,27,-31,151,557,-173,1,0,16,26,320,0,53298,1
2,31463,30010,32178,24622,6508,-4402,-10,-1010,29,28,-1,153,561,-185,1,0,16,26,360,0,53298,1
2,31460,30019,32179,24623,6520,-4411,-10,-1003,61,20,37,157,553,-183,1,0,16,26,400,0,53298,1
2,31461,30005,32179,24624,6530,-4402,-23,-1008,117,3,52,147,559,-175,1,0,16,26,440,0,53298,1
2,31457,30019,32175,24625,6542,-4392,-18,-1011,127,10,43,150,556,-178,1,0,16,26,480,0,53298,1
2,31460,30016,32179,24626,6553,-4399,-12,-1023,86,36,3,150,564,-168,1,0,16,26,520,0,53298,1
2,31461,30026,32177,24627,6564,-4412,-13,-1013,45,12,-35,152,556,-178,1,0,16,26,560,0,53298,1
2,31459,30036,32179,24628,6575,-4397,-1,-1016,18,-30,-55,144,550,-182,1,0,16,26,600,0,53298,1
2,31460,30025,32179,24629,6586,-4390,-9,-1020,-45,-72,-76,154,556,-180,1,0,16,26,640,0,53298,1
2,31457,30018,32174,24630,6597,-4393,-25,-1016,-214,-111,-88,151,549,-177,1,0,16,26,680,0,53298,1
2,31466,30000,32174,24631,6609,-4386,-26,-1042,-355,-175,-53,160,552,-182,1,0,16,26,720,0,53298,1
2,31459,30026,32174,24632,6620,-4396,-53,-1024,-296,-241,18,150,564,-168,1,0,16,26,760,0,53298,1
2,31462,30022,32175,24633,6631,-4410,-10,-989,-122,-270,103,151,553,-177,1,0,16,26,800,0,53298,1
2,31454,30031,32175,24634,6642,-4406,-23,-971,-51,-243,162,152,548,-178,1,0,16,26,840,0,53298,1
2,31465,30034,32185,24635,6654,-4409,-7,-973,-61,-164,165,158,552,-174,1,0,16,26,880,0,53298,1
2,31464,30035,32183,24636,6665,-4398,4,-973,-45,-92,112,153,553,-185,1,0,16,26,920,0,53298,1
2,31467,30035,32184,24637,6665,-4398,-6,-971,21,-7,58,149,559,-177,1,0,16,26,960,0,53298,1
1,31465,30027,32183,24638,5931,-4417,4,-956,114,83,-7,154,554,-178,1,0,16,27,0,1,53298,1
2,31458,30030,32173,24639,5942,-4410,-11,-978,128,143,-40,158,548,-180,1,0,16,27,40,1,53298,1
2,31457,30027,32171,24640,5953,-4428,-22,-986,134,174,-44,153,547,-177,1,0,16,27,80,1,53298,1
2,31455,30035,32172,24641,5964,-4418,-23,-996,148,177,-34,155,551,-177,1,0,16,27,120,1,53298,1
2,31450,30044,32171,24642,5975,-4396,-15,-1005,168,148,-24,142,558,-178,1,0,16,27,160,1,53298,1
2,31446,30034,32165,24643,5987,-4386,-1,-1012,164,116,-37,154,550,-176,1,0,16,27,200,1,53298,1
2,31432,30036,32159,24644,5997,-4392,-11,-1001,144,91,-63,151,559,-179,1,0,16,27,240,1,53298,1
2,31429,30038,32150,24645,6008,-4401,-30,-1009,126,81,-77,149,553,-177,1,0,16,27,280,1,53298,1
2,31431,30029,32150,24646,6019,-4413,-19,-1008,96,82,-83,156,558,-186,1,0,16,27,320,1,53298,1
2,31421,30012,32137,24647,6029,-4403,-35,-1006,87,69,-64,163,555,-181,1,0,16,27,360,1,53298,1
2,31431,30020,32144,24648,6039,-4409,-40,-1007,86,65,-42,149,549,-181,1,0,16,27,400,1,53298,1
2,31428,30020,32145,24649,6050,-4403,-31,-1007,103,62,-10,151,547,-177,1,0,16,27,440,1,53298,1
2,31431,30019,32150,24650,6060,-4387,-24,-1021,87,70,2,150,554,-180,1,0,16,27,480,1,53298,1
2,31438,30024,32154,24651,6071,-4401,-48,-1031,48,74,9,160,556,-174,1,0,16,27,520,1,53298,1
2,31425,30021,32142,24652,6081,-4392,-26,-1041,43,58,17,153,555,-173,1,0,16,27,560,1,53298,1
2,31431,30029,32150,24653,6092,-4404,-34,-1032,78,32,7,154,558,-188,1,0,16,27,600,1,53298,1
2,31440,30030,32150,24654,6103,-4404,-42,-1019,52,-3,16,160,556,-178,1,0,16,27,640,1,53298,1
2,31439,30037,32150,24655,6114,-4397,-47,-1021,-2,-44,24,162,552,-180,1,0,16,27,680,1,53298,1
2,31437,30035,32153,24656,6125,-4410,-41,-1043,-18,-55,33,155,559,-181,1,0,16,27,720,1,53298,1
2,31442,30030,32160,24657,6136,-4404,-32,-1006,12,-72,37,155,559,-179,1,0,16,27,760,1,53298,1
2,31446,30029,32160,24658,6148,-4401,-41,-1019,-3,-40,33,155,553,-175,1,0,16,27,800,1,53298,1
2,31446,30025,32162,24659,6160,-4407,-39,-1009,-7,-4,8,150,556,-182,1,0,16,27,840,1,53298,1
2,31441,30025,32158,24660,6171,-4398,-34,-1012,24,27,-21,156,556,-186,1,0,16,27,880,1,53298,1
2,31440,30024,32158,24661,6182,-4383,-31,-1031,42,37,-25,151,555,-175,1,0,16,27,920,1,53298,1
2,31436,30017,32154,24662,6182,-4396,-40,-1004,48,46,-21,161,557,-191,1,0,16,27,960,1,53298,1
1,31434,30016,32146,24663,5451,-4404,-35,-1039,26,27,-8,155,553,-181,1,0,16,28,0,1,53298,1
2,31434,30018,32146,24664,5462,-4402,-36,-1025,11,7,8,154,552,-182,1,0,16,28,40,1,53298,1
2,31434,30026,32152,24665,5472,-4396,-40,-1022,23,-16,17,153,551,-173,1,0,16,28,80,1,53298,1
2,31428,30021,32147,24666,5483,-4402,-34,-1023,17,-23,27,152,556,-178,1,0,16,28,120,1,53298,1
2,31431,30020,32144,24667,5493,-4388,-33,-1020,-8,-32,25,160,556,-176,1,0,16,28,160,1,53298,1
2,31436,30022,32153,24668,5503,-4394,-35,-1037,-21,-39,24,159,555,-181,1,0,16,28,200,1,53298,1
2,31431,30019,32152,24669,5515,-4394,-34,-1030,-6,-33,20,156,556,-188,1,0,16,28,240,1,53298,1
2,31423,30014,32143,24670,5525,-4392,-33,-1013,13,-23,20,155,549,-177,1,0,16,28,280,1,53298,1
2,31438,30020,32145,24671,5536,-4393,-37,-1030,-13,-10,1,143,561,-169,1,0,16,28,320,1,53298,1
2,31440,30016,32148,24672,5546,-4399,-38,-1024,-5,-12,4,153,551,-183,1,0,16,28,360,1,53298,1
2,31433,30026,32143,24673,5557,-4401,-40,-1008,13,-4,-2,153,559,-175,1,0,16,28,400,1,53298,1
2,31435,30030,32141,24674,5569,-4404,-31,-1018,-9,0,1,159,559,-181,1,0,16,28,440,1,53298,1
2,31434,30030,32143,24675,5580,-4393,-40,-1026,-42,-2,4,154,556,-178,1,0,16,28,480,1,53298,1
2,31435,30032,32153,24676,5591,-4399,-42,-1023,-46,-29,18,158,552,-180,1,0,16,28,520,1,53298,1
2,31439,30042,32145,24677,5602,-4403,-43,-1024,-82,-69,33,154,558,-180,1,0,16,28,560,1,53298,1
2,31441,30052,32153,24678,5613,-4397,-47,-1032,-109,-88,36,148,546,-178,1,0,16,28,600,1,53298,1
2,31440,30052,32150,24679,5624,-4408,-52,-1017,-57,-99,43,154,560,-170,1,0,16,28,640,1,53298,1
2,31438,30056,32146,24680,5635,-4401,-35,-998,4,-85,58,163,555,-183,1,0,16,28,680,1,53298,1
2,31439,30053,32153,24681,5647,-4397,-38,-1003,13,-38,44,143,549,-171,1,0,16,28,720,1,53298,1
2,31440,30053,32152,24682,5659,-4401,-33,-993,7,0,18,149,557,-173,1,0,16,28,760,1,53298,1
2,31440,30051,32156,24683,5670,-4398,-35,-1004,28,21,21,151,555,-177,1,0,16,28,800,1,53298,1
2,31439,30050,32155,24684,5681,-4417,-54,-1016,57,26,38,148,550,-176,1,0,16,28,840,1,53298,1
2,31434,30043,32155,24685,5693,-4396,-32,-1018,22,17,34,153,555,-175,1,0,16,28,880,1,53298,1
2,31441,30044,32155,24686,5703,-4405,-40,-1015,1,-3,19,152,550,-172,1,0,16,28,920,1,53298,1
2,31446,30048,32155,24687,5703,-4400,-36,-1014,19,-7,14,153,547,-183,1,0,16,28,960,1,53298,1
1,31440,30046,32155,24688,4972,-4399,-30,-1017,21,-7,11,156,560,-178,1,0,16,29,0,0,53298,1
2,31449,30042,32164,24689,4983,-4399,-46,-1011,-3,-12,0,160,556,-180,1,0,16,29,40,0,53298,1
2,31444,30038,32157,24690,4995,-4396,-40,-1021,-2,-8,11,153,555,-179,1,0,16,29,80,0,53298,1
2,31446,30041,32160,24691,5006,-4390,-39,-1027,22,-21,27,151,553,-173,1,0,16,29,120,0,53298,1
2,31441,30014,32155,24692,5018,-4407,-36,-1012,16,-15,36,155,557,-175,1,0,16,29,160,0,53298,1
2,31444,30011,32154,24693,5029,-4394,-29,-1011,-9,-18,31,149,559,-179,1,0,16,29,200,0,53298,1
2,31449,30036,32156,24694,5040,-4386,-30,-1015,7,-12,25,149,553,-183,1,0,16,29,240,0,53298,1
2,31448,30029,32159,24695,5051,-4402,-37,-1013,17,-17,20,152,556,-178,1,0,16,29,280,0,53298,1
2,31453,30031,32161,24696,5063,-4404,-40,-1022,-2,-13,22,150,560,-180,1,0,16,29,320,0,53298,1
2,31448,30033,32162,24697,5076,-4409,-43,-1020,-2,-3,23,149,549,-185,1,0,16,29,360,0,53298,1
2,31449,30032,32160,24698,5088,-4392,-37,-1011,19,-4,15,147,549,-179,1,0,16,29,400,0,53298,1
2,31455,30042,32166,24699,5101,-4400,-25,-1014,14,-4,20,152,554,-188,1,0,16,29,440,0,53298,1
2,31443,30031,32158,24700,5113,-4414,-35,-1008,24,0,11,157,551,-175,1,0,16,29,480,0,53298,1
2,31438,30026,32156,24701,5125,-4404,-47,-1018,13,7,21,157,549,-175,1,0,16,29,520,0,53298,1
2,31439,30023,32156,24702,5137,-4381,-18,-1007,15,-3,25,155,561,-177,1,0,16,29,560,0,53298,1
2,31435,30027,32155,24703,5148,-4407,-28,-1016,22,-23,13,162,558,-178,1,0,16,29,600,0,53298,1
2,31432,30036,32155,24704,5161,-4396,-46,-1021,-6,-32,7,151,555,-179,1,0,16,29,640,0,53298,1
2,31432,30037,32153,24705,5173,-4401,-41,-1013,19,-14,-3,148,550,-182,1,0,16,29,680,0,53298,1
2,31432,30036,32150,24706,5185,-4391,-39,-1022,29,-8,9,159,551,-183,1,0,16,29,720,0,53298,1
2,31437,30038,32157,24707,5197,-4398,-36,-1017,5,5,23,158,546,-180,1,0,16,29,760,0,53298,1
2,31437,30032,32150,24708,5208,-4398,-37,-1028,4,-6,31,153,553,-183,1,0,16,29,800,0,53298,1
2,31432,30022,32149,24709,5219,-4393,-29,-1021,43,0,59,159,553,-183,1,0,16,29,840,0,53298,1
2,31435,30021,32149,24710,5231,-4418,-40,-997,81,35,76,152,552,-182,1,0,16,29,880,0,53298,1
2,31445,30025,32156,24711,5243,-4411,-33,-1012,82,32,84,161,553,-181,1,0,16,29,920,0,53298,1
2,31446,30023,32157,24712,5243,-4398,-37,-1034,71,36,81,153,551,-185,1,0,16,29,960,0,53298,1
1,31444,30025,32156,24713,4492,-4404,-41,-1017,81,30,51,155,553,-189,1,0,16,30,0,1,53298,1
2,31447,30024,32162,24714,4504,-4393,-36,-1020,45,14,-6,148,544,-178,1,0,16,30,40,1,53298,1
2,31450,30023,32165,24715,4515,-4401,-41,-1025,-6,-26,-65,157,553,-179,1,0,16,30,80,1,53298,1
2,31449,30027,32165,24716,4526,-4399,-42,-1021,-33,-48,-93,158,558,-184,1,0,16,30,120,1,53298,1
2,31450,30024,32165,24717,4538,-4413,-56,-1018,-45,-64,-80,160,556,-174,1,0,16,30,160,1,53298,1
2,31446,30017,32159,24718,4550,-4401,-49,-1010,-29,-47,-46,162,556,-182,1,0,16,30,200,1,53298,1
2,31445,30017,32165,24719,4561,-4402,-50,-1001,0,-21,2,156,552,-190,1,0,16,30,240,1,53298,1
2,31441,30011,32156,24720,4573,-4403,-45,-1005,24,16,48,151,557,-177,1,0,16,30,280,1,53298,1
2,31443,30008,32162,24721,4584,-4405,-42,-1005,61,29,56,156,552,-178,1,0,16,30,320,1,53298,1
2,31451,30015,32157,24722,4596,-4420,-50,-1028,49,27,57,155,561,-175,1,0,16,30,360,1,53298,1
2,31452,30008,32170,24723,4607,-4378,-27,-1022,27,-19,43,149,559,-165,1,0,16,30,400,1,53298,1
2,31454,30010,32165,24724,4620,-4400,-45,-1027,-2,-44,40,149,555,-183,1,0,16,30,440,1,53298,1
2,31450,30016,32166,24725,4633,-4391,-46,-1014,-4,-50,45,153,557,-181,1,0,16,30,480,1,53298,1
2,31446,30032,32164,24726,4644,-4402,-31,-1018,-18,-40,50,153,555,-187,1,0,16,30,520,1,53298,1
2,31451,30021,32171,24727,4656,-4395,-49,-1020,-16,-35,63,148,554,-172,1,0,16,30,560,1,53298,1
2,31457,30024,32171,24728,4667,-4403,-34,-1010,6,-23,51,154,550,-184,1,0,16,30,600,1,53298,1
2,31454,30016,32168,24729,4679,-4403,-43,-1005,10,-6,36,161,551,-185,1,0,16,30,640,1,53298,1
2,31457,30029,32174,24730,4691,-4392,-42,-1020,-8,7,13,162,548,-180,1,0,16,30,680,1,53298,1
2,31462,30031,32175,24731,4703,-4413,-48,-1022,-25,12,14,156,550,-180,1,0,16,30,720,1,53298,1
2,31460,30033,32174,24732,4715,-4405,-40,-1021,-72,-17,42,149,555,-183,1,0,16,30,760,1,53298,1
2,31458,30033,32170,24733,4728,-4391,-43,-1026,-80,-63,64,158,562,-184,1,0,16,30,800,1,53298,1
2,31464,30045,32173,24734,4741,-4403,-32,-988,-103,-78,87,147,555,-173,1,0,16,30,840,1,53298,1
2,31458,30031,32171,24735,4753,-4412,-27,-1011,-200,-112,105,149,551,-179,1,0,16,30,880,1,53298,1
2,31461,30039,32179,24736,4765,-4369,-42,-1042,-156,-145,122,156,552,-178,1,0,16,30,920,1,53298,1
2,31458,30036,32167,24737,4765,-4399,-35,-1009,-32,-100,122,152,554,-172,1,0,16,30,960,1,53298,1
1,31461,30036,32168,24738,4013,-4401,-6,-985,73,-63,98,155,555,-183,1,0,16,31,0,1,53298,1
2,31458,30020,32167,24739,4025,-4404,-23,-993,55,-2,54,153,549,-175,1,0,16,31,40,1,53298,1
2,31450,30010,32165,24740,4037,-4389,-15,-1018,12,53,6,140,548,-172,1,0,16,31,80,1,53298,1
2,31456,30011,32169,24741,4049,-4388,-29,-991,67,70,-9,158,556,-186,1,0,16,31,120,1,53298,1
2,31459,30014,32170,24742,4061,-4396,-24,-1013,78,56,-13,159,553,-185,1,0,16,31,160,1,53298,1
2,31458,30004,32164,24743,4072,-4391,-30,-1028,30,30,8,164,554,-182,1,0,16,31,200,1,53298,1
2,31457,30010,32173,24744,4084,-4396,-30,-1004,15,-9,31,149,553,-179,1,0,16,31,240,1,53298,1
2,31459,30045,32175,24745,4097,-4405,-22,-1009,33,-39,36,151,551,-169,1,0,16,31,280,1,53298,1
2,31462,30041,32179,24746,4109,-4392,-8,-1012,-3,-37,41,149,555,-181,1,0,16,31,320,1,53298,1
2,31467,30040,32180,24747,4121,-4403,-12,-998,-51,-30,43,159,557,-183,1,0,16,31,360,1,53298,1
2,31467,30031,32177,24748,4133,-4407,3,-992,-81,-57,73,154,562,-192,1,0,16,31,400,1,53298,1
2,31454,30013,32170,24749,4145,-4442,22,-907,-309,-137,142,155,545,-183,1,0,16,31,440,1,53298,1
2,31463,30040,32171,24750,4157,-4468,60,-861,-1445,-375,141,161,555,-181,1,0,16,31,480,1,53298,1
2,31453,30047,32169,24751,4169,-4410,-37,-1087,-3238,-841,95,163,547,-163,1,0,16,31,520,1,53298,1
2,31459,30033,32174,24752,4181,-4262,-107,-1296,-3400,-1014,157,160,542,-170,1,0,16,31,560,1,53298,1
2,31450,30044,32176,24753,4193,-4331,-82,-1092,-1534,-851,260,157,549,-171,1,0,16,31,600,1,53298,1
2,31447,30011,32185,24754,4205,-4453,48,-804,230,-756,431,159,553,-179,1,0,16,31,640,1,53298,1
2,31440,29975,32174,24755,4216,-4503,180,-660,551,-518,522,144,552,-160,1,0,16,31,680,1,53298,1
2,31450,29929,32176,24756,4228,-4442,100,-757,-155,-218,503,157,557,-167,1,0,16,31,720,1,53298,1
2,31424,30991,32147,24757,4240,-4357,51,-930,-486,91,411,146,554,-168,1,0,16,31,760,1,53298,1
2,31464,30054,32206,24758,4253,-4406,7,-930,6,220,413,150,550,-174,1,0,16,31,800,1,53298,1
2,31483,29968,32197,24759,4265,-4442,115,-931,581,378,313,153,559,-173,1,0,16,31,840,1,53298,1
2,31465,30068,32186,24760,4278,-4388,185,-883,809,574,211,154,558,-176,1,0,16,31,880,1,53298,1
2,31464,30259,32185,24761,4291,-4432,51,-963,325,627,198,149,549,-167,1,0,16,31,920,1,53298,1
2,31456,30038,32197,24762,4291,-4341,84,-950,237,674,245,142,562,-180,1,0,16,31,960,1,53298,1
1,31424,32744,32155,24763,3535,-4372,85,-901,564,601,316,148,564,-172,1,0,16,32,0,1,53298,1
2,31436,29988,32184,24764,3549,-4407,188,-921,543,430,328,146,564,-166,1,0,16,32,40,1,53298,1
2,31445,30029,32174,24765,3562,-4393,245,-1023,246,266,346,145,565,-173,1,0,16,32,80,1,53298,1
2,31432,30011,32164,24766,3576,-4174,573,-1239,135,340,687,138,560,-186,1,0,16,32,120,1,53298,1
2,31417,30005,32169,24767,3589,-4008,864,-1330,746,733,1775,128,560,-176,1,0,16,32,160,1,53298,1
2,31413,29951,32159,24768,3602,-4028,954,-1327,903,1375,3263,121,561,-189,1,0,16,32,200,1,53298,1
2,31398,29932,32140,24769,3615,-4181,880,-1267,199,2111,4498,106,558,-188,1,0,16,32,240,1,53298,1
2,31393,29925,32132,24770,3628,-4165,920,-1340,-627,2637,5461,94,552,-194,1,0,16,32,280,1,53298,1
2,31386,29917,32124,24771,3641,-4223,884,-1289,-694,2914,6484,69,553,-199,1,0,16,32,320,1,53298,1
2,31374,29932,32120,24772,3654,-4162,1043,-1386,-242,3030,7483,41,533,-213,1,0,16,32,360,1,53298,1
2,31394,30198,32102,24773,3668,-4365,869,-1293,365,3235,8161,29,533,-225,1,0,16,32,400,1,53298,1
2,31382,30165,32119,24774,3680,-4288,1163,-1387,196,3387,8196,14,520,-228,1,0,16,32,440,1,53298,1
2,31370,29930,32130,24775,3692,-4128,1279,-1287,354,3319,8180,1,509,-247,1,0,16,32,480,1,53298,1
2,31368,30031,32123,24776,3705,-3819,1645,-1321,-146,3208,8329,-15,483,-251,1,0,16,32,520,1,53298,1
2,31349,30304,32101,24777,3718,-3625,1941,-1388,-488,2911,9027,-28,476,-258,1,0,16,32,560,1,53298,1
2,31305,33625,32080,24778,3730,-3572,2083,-1601,-1053,2862,10034,-45,443,-261,1,0,16,32,600,1,53298,1
2,31274,32656,32051,24779,3742,-3719,2125,-1727,-1251,3009,10683,-53,427,-265,1,0,16,32,640,1,53298,1
2,31265,29920,32033,24780,3753,-3659,2357,-1828,-1327,3045,10465,-53,399,-265,1,0,16,32,680,1,53298,1
2,31232,32556,32010,24781,3764,-3420,2071,-1807,-1394,2810,10057,-65,377,-279,1,0,16,32,720,1,53298,1
2,31232,31043,32020,24782,3776,-3474,1169,-1305,-3278,2391,9096,-62,364,-264,1,0,16,32,760,1,53298,1
2,31240,34304,32053,24783,3787,-2726,2386,-2176,-4563,2920,8387,-71,351,-269,1,0,16,32,800,1,53298,1
2,31191,33398,32009,24784,3798,-2756,2187,-1491,-115,2573,9117,-72,328,-270,1,0,16,32,840,1,53298,1
2,31154,32757,31962,24785,3809,-2707,2519,-1105,775,1958,8679,-76,322,-270,1,0,16,32,880,1,53298,1
2,31150,32924,31958,24786,3820,-2494,2151,-1675,-3631,1924,7239,-71,309,-259,1,0,16,32,920,1,53298,1
2,31121,33539,31919,24787,3820,-2238,2288,-1501,-4803,2453,5791,-72,302,-268,1,0,16,32,960,1,53298,1
1,31106,33705,31886,24788,3055,-2147,2491,-1308,-2905,1895,4933,-75,289,-255,1,0,16,33,0,1,53298,1
2,31092,30094,31867,24789,3065,-1832,2844,-1705,-659,1075,5102,-69,289,-251,1,0,16,33,40,1,53298,1
2,31080,32494,31840,24790,3075,-1916,2654,-1562,544,1244,4620,-67,273,-261,1,0,16,33,80,1,53298,1
2,31115,29926,31849,24791,3085,-1682,3375,-1663,915,1138,4578,-69,275,-267,1,0,16,33,120,1,53298,1
2,31124,30016,31836,24792,3097,-1431,3573,-1527,2070,418,4576,-59,263,-271,1,0,16,33,160,1,53298,1
2,31139,29908,31837,24793,3109,-1509,3127,-1753,-57,934,4967,-51,271,-261,1,0,16,33,200,1,53298,1
2,31178,29851,31824,24794,3121,-1479,2663,-2074,-2553,2283,5561,-66,250,-258,1,0,16,33,240,1,53298,1
2,31161,29997,31819,24795,3134,-1320,2546,-1927,271,2944,5544,-57,241,-261,1,0,16,33,280,1,53298,1
2,31144,29916,31832,24796,3147,-1281,2318,-1760,2186,3163,4916,-49,257,-265,1,0,16,33,320,1,53298,1
2,31129,29922,31833,24797,3159,-1152,2653,-1256,4172,2803,4128,-50,250,-256,1,0,16,33,360,1,53298,1
2,31123,29884,31817,24798,3172,-1097,2484,-1168,1122,2441,3076,-51,247,-271,1,0,16,33,400,1,53298,1
2,31122,29880,31816,24799,3184,-1065,2322,-1163,-1283,1645,1710,-47,245,-269,1,0,16,33,440,1,53298,1
2,31132,29946,31808,24800,3196,-1009,2246,-1156,-1976,420,-194,-44,254,-262,1,0,16,33,480,1,53298,1
2,31123,30048,31806,24801,3207,-919,2583,-1351,-1396,-607,-1186,-45,257,-263,1,0,16,33,520,1,53298,1
2,31128,30024,31808,24802,3220,-1004,2656,-1354,-326,-1179,-1540,-44,250,-270,1,0,16,33,560,1,53298,1
2,31122,30002,31810,24803,3232,-809,3429,-1594,385,-1778,-2310,-51,257,-263,1,0,16,33,600,1,53298,1
2,31119,30024,31801,24804,3244,-916,3325,-1403,-1043,-1556,-2267,-48,246,-262,1,0,16,33,640,1,53298,1
2,31135,30068,31801,24805,3255,-930,3506,-1736,-3876,-811,-1295,-57,261,-251,1,0,16,33,680,1,53298,1
2,31139,30035,31812,24806,3267,-1083,3203,-1553,-3824,-437,-1039,-57,255,-245,1,0,16,33,720,1,53298,1
2,31141,30043,31817,24807,3278,-1088,3082,-1723,-2073,-716,-1058,-55,261,-239,1,0,16,33,760,1,53298,1
2,31131,30035,31816,24808,3290,-1112,3080,-1549,45,-727,-708,-55,249,-243,1,0,16,33,800,1,53298,1
2,31135,29995,31813,24809,3302,-1097,3167,-1589,683,-319,-126,-55,253,-255,1,0,16,33,840,1,53298,1
2,31139,30018,31818,24810,3314,-1125,3201,-1416,357,77,99,-56,258,-254,1,0,16,33,880,1,53298,1
2,31152,30061,31836,24811,3326,-1053,3364,-1388,-773,58,-122,-53,259,-249,1,0,16,33,920,1,53298,1
2,31160,30080,31853,24812,3326,-1142,3350,-1320,-1471,42,24,-52,258,-248,1,0,16,33,960,1,53298,1
1,31175,30020,31850,24813,2577,-1154,3221,-1423,-2126,42,449,-48,256,-234,1,0,16,34,0,1,53298,1
2,31175,30012,31849,24814,2589,-1034,3285,-1399,-1351,126,874,-53,241,-225,1,0,16,34,40,1,53298,1
2,31161,30008,31846,24815,2601,-1100,3005,-1347,-635,123,858,-51,251,-235,1,0,16,34,80,1,53298,1
2,31161,29995,31835,24816,2613,-1093,2949,-1355,280,45,675,-47,247,-241,1,0,16,34,120,1,53298,1
2,31148,30006,31834,24817,2625,-1129,2847,-1303,791,228,240,-58,244,-234,1,0,16,34,160,1,53298,1
2,31140,29982,31831,24818,2637,-1092,2908,-1341,460,-65,-115,-48,256,-242,1,0,16,34,200,1,53298,1
2,31148,29984,31828,24819,2650,-1108,2929,-1345,146,-164,-443,-52,256,-238,1,0,16,34,240,1,53298,1
2,31155,30009,31836,24820,2662,-1091,3075,-1427,-41,-143,-580,-54,254,-228,1,0,16,34,280,1,53298,1
2,31152,30078,31834,24821,2674,-1077,3136,-1342,-36,-100,-567,-60,252,-240,1,0,16,34,320,1,53298,1
2,31146,30022,31829,24822,2686,-1063,3217,-1371,-231,-57,-477,-55,255,-241,1,0,16,34,360,1,53298,1
2,31153,30030,31830,24823,2698,-1099,3117,-1252,-214,-183,-534,-47,255,-235,1,0,16,34,400,1,53298,1
2,31145,30010,31827,24824,2711,-1129,3117,-1274,-146,-227,-494,-48,256,-242,1,0,16,34,440,1,53298,1
2,31149,29978,31827,24825,2722,-1140,3062,-1245,-114,-7,-492,-59,257,-239,1,0,16,34,480,1,53298,1
2,31147,29959,31830,24826,2734,-1196,3052,-1217,262,-269,-716,-60,252,-224,1,0,16,34,520,1,53298,1
2,31156,29988,31832,24827,2745,-1205,3129,-1233,469,-677,-816,-52,254,-240,1,0,16,34,560,1,53298,1
2,31162,29951,31844,24828,2756,-1188,3070,-1275,9,-598,-829,-49,257,-241,1,0,16,34,600,1,53298,1
2,31160,29945,31839,24829,2766,-1183,3122,-1323,-165,-623,-850,-60,260,-244,1,0,16,34,640,1,53298,1
2,31160,29940,31843,24830,2777,-1216,3103,-1365,-209,-639,-838,-51,255,-245,1,0,16,34,680,1,53298,1
2,31159,29947,31837,24831,2789,-1208,3145,-1356,111,-639,-734,-49,257,-243,1,0,16,34,720,1,53298,1
2,31159,29907,31840,24832,2801,-1266,3073,-1346,43,-499,-800,-61,255,-241,1,0,16,34,760,1,53298,1
2,31161,29904,31842,24833,2813,-1296,3106,-1335,-20,-490,-825,-57,255,-239,1,0,16,34,800,1,53298,1
2,31164,29889,31847,24834,2825,-1314,3062,-1306,-43,-534,-917,-55,263,-235,1,0,16,34,840,1,53298,1
2,31160,29869,31843,24835,2837,-1376,2944,-1288,-148,-486,-1158,-49,261,-243,1,0,16,34,880,1,53298,1
2,31166,29863,31848,24836,2848,-1368,3115,-1262,3,-583,-1094,-65,267,-239,1,0,16,34,920,1,53298,1
2,31172,29858,31850,24837,2848,-1373,3064,-1279,-317,-593,-1069,-57,263,-239,1,0,16,34,960,1,53298,1
1,31168,29862,31852,24838,2099,-1428,3034,-1304,-86,-571,-1159,-59,269,-241,1,0,16,35,0,0,53298,1
2,31176,29868,31849,24839,2111,-1401,3268,-1296,-214,-501,-806,-57,271,-241,1,0,16,35,40,0,53298,1
2,31168,29880,31844,24840,2123,-1435,3167,-1327,-213,-247,-562,-57,267,-239,1,0,16,35,80,0,53298,1
2,31171,29881,31845,24841,2134,-1481,3162,-1318,-20,-294,-565,-59,261,-229,1,0,16,35,120,0,53298,1
2,31174,29882,31854,24842,2145,-1467,3181,-1277,-135,-309,-490,-68,264,-234,1,0,16,35,160,0,53298,1
2,31180,29889,31855,24843,2156,-1502,2965,-1277,-85,-130,-623,-58,264,-238,1,0,16,35,200,0,53298,1
2,31183,29873,31866,24844,2167,-1550,2903,-1276,-334,-315,-884,-50,268,-238,1,0,16,35,240,0,53298,1
2,31180,29984,31869,24845,2178,-1616,2769,-1148,357,-561,-1308,-61,271,-239,1,0,16,35,280,0,53298,1
2,31185,29879,31875,24846,2189,-1604,2868,-1206,605,-699,-1645,-58,274,-236,1,0,16,35,320,0,53298,1
2,31180,29874,31881,24847,2200,-1708,2629,-1060,737,-945,-2893,-63,273,-231,1,0,16,35,360,0,53298,1
2,31172,29878,31873,24848,2210,-1878,2334,-1053,-593,-1614,-4388,-62,270,-246,1,0,16,35,400,0,53298,1
2,31178,29874,31878,24849,2221,-1969,2293,-819,-731,-2268,-6339,-62,292,-234,1,0,16,35,440,0,53298,1
2,31175,29890,31883,24850,2232,-2275,1873,-822,-2086,-2477,-8107,-73,301,-225,1,0,16,35,480,0,53298,1
2,31175,29882,31892,24851,2242,-2113,2774,-1070,-2746,-2674,-8167,-60,308,-230,1,0,16,35,520,0,53298,1
2,31187,29913,31911,24852,2254,-2581,1887,-821,-1086,-2082,-9856,-69,329,-221,1,0,16,35,560,0,53298,1
2,31180,29980,31916,24853,2265,-3108,2310,-1255,-1668,-2344,-10420,-69,343,-229,1,0,16,35,600,0,53298,1
2,31178,32945,31910,24854,2276,-2894,3095,-1245,2102,-2546,-10163,-63,359,-225,1,0,16,35,640,0,53298,1
2,31190,31938,31929,24855,2287,-3273,2421,-1232,2366,-1717,-10661,-57,383,-231,1,0,16,35,680,0,53298,1
2,31194,32183,31941,24856,2299,-3770,2039,-1561,3658,-1958,-11725,-49,411,-221,1,0,16,35,720,0,53298,1
2,31204,31396,31970,24857,2311,-3969,1711,-1398,5552,-2425,-12618,-40,430,-214,1,0,16,35,760,0,53298,1
2,31216,31916,31988,24858,2322,-3884,1844,-1293,6320,-3018,-13192,-16,444,-228,1,0,16,35,800,0,53298,1
2,31243,32210,32017,24859,2333,-4224,1498,-1111,5144,-2945,-14057,5,473,-219,1,0,16,35,840,0,53298,1
2,31268,31200,32036,24860,2345,-4378,1691,-1316,1809,-2671,-13767,28,496,-210,1,0,16,35,880,0,53298,1
2,31297,32847,32065,24861,2357,-4191,1750,-1423,936,-2184,-12135,32,516,-202,1,0,16,35,920,0,53298,1
2,31288,32155,32066,24862,2357,-4095,2040,-1122,2525,-1939,-10679,80,540,-198,1,0,16,35,960,0,53298,1
1,31314,30529,32080,24863,1622,-4023,1567,-1238,-22,-1641,-9148,92,542,-200,1,0,16,36,0,1,53298,1
2,31325,30326,32083,24864,1634,-4024,1606,-835,-75,-1622,-6875,105,549,-187,1,0,16,36,40,1,53298,1
2,31325,30253,32076,24865,1646,-3888,1558,-915,-761,-2004,-4984,125,557,-185,1,0,16,36,80,1,53298,1
2,31321,30319,32065,24866,1659,-4059,1218,-659,-2606,-2172,-3703,130,554,-182,1,0,16,36,120,1,53298,1
2,31320,31512,32072,24867,1671,-4133,771,-966,-2971,-1097,-1429,139,547,-173,1,0,16,36,160,1,53298,1
2,31333,30085,32074,24868,1684,-3760,1199,-1478,-341,-183,821,141,555,-163,1,0,16,36,200,1,53298,1
2,31385,30198,32097,24869,1695,-4233,-94,-1420,1647,711,667,146,546,-174,1,0,16,36,240,1,53298,1
2,31337,31025,32089,24870,1707,-4812,-731,-1011,1969,624,-347,138,552,-180,1,0,16,36,280,1,53298,1
2,31355,30281,32084,24871,1719,-4582,513,-807,2604,248,57,136,554,-178,1,0,16,36,320,1,53298,1
2,31338,30227,32051,24872,1730,-4399,456,-819,2465,304,198,126,548,-178,1,0,16,36,360,1,53298,1
2,31350,31673,32054,24873,1741,-4361,122,-937,1318,633,-34,134,548,-176,1,0,16,36,400,1,53298,1
2,31347,31898,32054,24874,1753,-4360,221,-972,551,625,-48,129,551,-169,1,0,16,36,440,1,53298,1
2,31350,31593,32048,24875,1765,-4386,193,-1004,491,432,23,131,547,-189,1,0,16,36,480,1,53298,1
2,31355,31159,32052,24876,1778,-4375,164,-1079,792,196,47,130,548,-176,1,0,16,36,520,1,53298,1
2,31355,30969,32057,24877,1790,-4327,141,-1075,865,101,8,129,547,-179,1,0,16,36,560,1,53298,1
2,31367,30564,32059,24878,1802,-4364,202,-1020,548,98,-77,129,549,-183,1,0,16,36,600,1,53298,1
2,31361,30477,32065,24879,1813,-4383,217,-955,209,105,-110,136,544,-184,1,0,16,36,640,1,53298,1
2,31365,30434,32065,24880,1825,-4390,178,-972,76,114,-81,132,554,-182,1,0,16,36,680,1,53298,1
2,31368,30317,32065,24881,1836,-4351,174,-1023,192,145,-38,132,550,-182,1,0,16,36,720,1,53298,1
2,31362,30322,32058,24882,1848,-4352,168,-1014,292,157,8,130,544,-174,1,0,16,36,760,1,53298,1
2,31365,30290,32064,24883,1860,-4368,177,-1010,207,112,38,131,543,-177,1,0,16,36,800,1,53298,1
2,31370,30245,32066,24884,1871,-4360,172,-1050,84,59,41,126,544,-176,1,0,16,36,840,1,53298,1
2,31365,30273,32059,24885,1883,-4359,159,-1061,47,-8,44,138,550,-176,1,0,16,36,880,1,53298,1
2,31373,30266,32063,24886,1895,-4354,167,-1062,36,-63,29,125,547,-191,1,0,16,36,920,1,53298,1
2,31367,30189,32066,24887,1895,-4361,168,-1025,47,-79,16,129,549,-177,1,0,16,36,960,1,53298,1
1,31368,30176,32066,24888,1143,-4345,180,-1005,41,-33,5,135,545,-183,1,0,16,37,0,1,53298,1
2,31366,30233,32064,24889,1155,-4361,171,-1025,27,26,-3,130,548,-182,1,0,16,37,40,1,53298,1
2,31370,30200,32070,24890,1167,-4364,177,-1037,44,55,10,134,552,-184,1,0,16,37,80,1,53298,1
2,31377,30206,32068,24891,1179,-4360,177,-1031,62,46,11,136,548,-176,1,0,16,37,120,1,53298,1
2,31373,30212,32066,24892,1192,-4358,162,-1042,55,19,19,133,537,-185,1,0,16,37,160,1,53298,1
2,31378,30231,32072,24893,1205,-4370,162,-1033,28,-5,23,128,546,-182,1,0,16,37,200,1,53298,1
2,31375,30160,32068,24894,1218,-4362,158,-1027,20,-20,24,134,548,-182,1,0,16,37,240,1,53298,1
2,31375,30108,32074,24895,1230,-4363,171,-1018,25,-30,30,128,548,-182,1,0,16,37,280,1,53298,1
2,31374,30187,32072,24896,1243,-4367,173,-1020,13,-14,22,123,551,-171,1,0,16,37,320,1,53298,1
2,31375,30178,32074,24897,1255,-4353,170,-1019,12,6,8,131,537,-175,1,0,16,37,360,1,53298,1
2,31375,30172,32065,24898,1266,-4354,170,-1025,20,23,10,133,547,-191,1,0,16,37,400,1,53298,1
2,31372,30164,32070,24899,1277,-4371,164,-1023,34,14,18,130,554,-180,1,0,16,37,440,1,53298,1
2,31375,30179,32076,24900,1288,-4354,163,-1038,21,1,30,130,542,-176,1,0,16,37,480,1,53298,1
2,31371,30184,32072,24901,1299,-4345,178,-1023,15,-5,29,127,549,-173,1,0,16,37,520,1,53298,1
2,31377,30183,32067,24902,1311,-4356,175,-1024,10,-2,27,135,555,-183,1,0,16,37,560,1,53298,1
2,31372,30156,32067,24903,1323,-4349,169,-1038,8,-9,24,126,546,-176,1,0,16,37,600,1,53298,1
2,31371,30141,32069,24904,1334,-4357,177,-1031,24,-11,17,128,544,-176,1,0,16,37,640,1,53298,1
2,31369,30159,32065,24905,1345,-4359,161,-1028,4,-7,13,130,542,-180,1,0,16,37,680,1,53298,1
2,31371,30131,32067,24906,1357,-4355,160,-1028,11,-9,16,129,547,-183,1,0,16,37,720,1,53298,1
2,31365,30135,32062,24907,1368,-4363,156,-1036,28,-1,27,123,549,-183,1,0,16,37,760,1,53298,1
2,31360,30121,32061,24908,1380,-4365,162,-1037,12,-7,17,135,545,-193,1,0,16,37,800,1,53298,1
2,31361,30128,32054,24909,1391,-4359,173,-1023,11,-6,22,133,551,-171,1,0,16,37,840,1,53298,1
2,31360,30139,32056,24910,1403,-4352,155,-1033,14,-6,10,125,545,-185,1,0,16,37,880,1,53298,1
2,31355,30160,32052,24911,1415,-4364,159,-1033,14,0,17,127,543,-181,1,0,16,37,920,1,53298,1
2,31357,30110,32052,24912,1415,-4348,172,-1034,14,-4,12,130,552,-176,1,0,16,37,960,1,53298,1
1,31358,30096,32050,24913,666,-4364,163,-1021,9,-11,18,131,553,-173,1,0,16,38,0,1,53298,1
2,31354,30122,32047,24914,678,-4369,164,-1026,17,-4,22,132,556,-188,1,0,16,38,40,1,53298,1
2,31349,30129,32046,24915,689,-4354,172,-1035,14,-9,23,134,544,-182,1,0,16,38,80,1,53298,1
2,31351,30108,32040,24916,700,-4605,165,-1039,6,5,6,133,557,-179,1,0,16,38,120,1,53298,1
2,31355,30083,32050,24917,711,-4348,172,-1039,22,-5,5,126,548,-182,1,0,16,38,160,1,53298,1
2,31344,30095,32043,24918,722,-4348,160,-1024,7,-3,10,127,555,-173,1,0,16,38,200,1,53298,1
2,31341,30089,32040,24919,733,-4356,164,-1034,5,-7,22,133,551,-167,1,0,16,38,240,1,53298,1
2,31344,30151,32042,24920,744,-4354,166,-1032,13,-2,30,135,553,-187,1,0,16,38,280,1,53298,1
2,31341,30124,32035,24921,756,-4364,172,-1029,11,0,20,130,546,-182,1,0,16,38,320,1,53298,1
2,31343,30087,32040,24922,767,-4356,175,-1030,0,-5,13,128,536,-176,1,0,16,38,360,1,53298,1
2,31340,30103,32040,24923,778,-4352,156,-1027,2,-5,12,129,553,-179,1,0,16,38,400,1,53298,1
2,31339,30142,32035,24924,790,-4366,160,-1026,17,0,13,124,548,-182,1,0,16,38,440,1,53298,1
2,31342,30126,32039,24925,802,-4364,164,-1031,19,-5,22,134,544,-186,1,0,16,38,480,1,53298,1
2,31339,30114,32036,24926,813,-4357,167,-1031,10,6,26,133,547,-183,1,0,16,38,520,1,53298,1
2,31342,30120,32036,24927,825,-4348,163,-1040,10,5,16,129,551,-189,1,0,16,38,560,1,53298,1
2,31337,30131,32034,24928,837,-4369,170,-1030,4,3,24,133,551,-179,1,0,16,38,600,1,53298,1
2,31343,30149,32038,24929,849,-4350,153,-1049,8,-4,18,139,541,-183,1,0,16,38,640,1,53298,1
2,31337,30133,32038,24930,860,-4358,163,-1032,6,-4,18,135,551,-175,1,0,16,38,680,1,53298,1
2,31333,30166,32034,24931,872,-4350,164,-1034,8,-4,25,142,554,-184,1,0,16,38,720,1,53298,1
2,31338,30123,32031,24932,884,-4360,173,-1034,13,-7,28,136,550,-180,1,0,16,38,760,1,53298,1
2,31335,30109,32033,24933,896,-4349,158,-1037,6,4,29,135,549,-179,1,0,16,38,800,1,53298,1
2,31335,30110,32036,24934,908,-4359,156,-1036,-1,3,22,130,552,-182,1,0,16,38,840,1,53298,1
2,31340,30111,32033,24935,919,-4363,168,-1034,9,-7,21,138,554,-184,1,0,16,38,880,1,53298,1
2,31339,30157,32035,24936,931,-4344,163,-1028,14,-7,29,120,548,-174,1,0,16,38,920,1,53298,1
2,31337,30177,32037,24937,931,-4366,161,-1037,-22,-20,41,127,551,-179,1,0,16,38,960,1,53298,1
1,31354,30161,32038,24938,189,-4364,160,-1027,-10,-41,58,133,543,-177,1,0,16,39,0,0,53298,1
1,31339,30194,32032,24939,200,-4354,172,-1033,-86,-39,61,131,551,-179,1,0,16,39,40,0,53298,1
1,31340,30184,32040,24940,211,-4352,162,-1056,-106,-59,91,137,547,-187,1,0,16,39,80,0,53298,1
1,31345,30221,32040,24941,222,-4338,148,-1059,-104,-85,155,132,546,-178,1,0,16,39,120,0,53298,1
1,31349,30234,32044,24942,234,-4374,186,-1042,-167,-116,220,131,551,-181,1,0,16,39,160,0,53298,1
3,31340,30452,32039,24943,245,-4435,159,-987,-716,-289,326,136,544,-186,1,0,16,39,200,0,53298,1
3,31350,33257,32060,24944,256,-4430,254,-955,-1126,-554,360,126,552,-176,1,0,16,39,240,0,53298,1
3,31385,30010,32047,24945,268,-4493,-92,-821,-1581,-775,222,133,549,-179,1,0,16,39,280,0,53298,1
3,31430,30065,32117,24946,280,-4648,92,-684,-513,-1245,446,129,543,-177,1,0,16,39,320,0,53298,1
0,31470,30478,32147,24947,294,-4648,92,-684,-513,-1245,446,131,543,-177,1,0,16,39,360,0,53298,1
2,31482,30052,32158,24948,307,-4251,375,-1137,-66,-519,531,127,545,-175,1,0,16,39,400,0,53298,1
2,31477,31484,32096,24949,321,-4295,282,-1019,-1057,70,682,133,551,-175,1,0,16,39,440,0,53298,1
2,31457,32365,32128,24950,335,-4217,695,-1065,-1542,238,962,129,549,-165,1,0,16,39,480,0,53298,1
2,31216,30036,31896,24951,350,-3975,1395,-1386,-950,337,2152,126,550,-182,1,0,16,39,520,0,53298,1
2,31249,34338,31902,24952,366,-3718,1743,-1485,-807,1025,4137,123,549,-187,1,0,16,39,560,0,53298,1
2,31231,33098,31885,24953,382,-3641,2042,-1682,-823,2369,6720,97,541,-181,1,0,16,39,600,0,53298,1
2,31187,31151,31867,24954,398,-3581,2136,-1712,569,3810,9764,74,540,-186,1,0,16,39,640,0,53298,1
2,31624,33169,32287,24955,413,-3727,2335,-1556,2512,5080,12738,51,533,-201,1,0,16,39,680,0,53298,1
2,31526,33034,32225,24956,429,-3821,2046,-1428,2694,6060,14879,21,517,-219,1,0,16,39,720,0,53298,1
2,31498,32617,32161,24957,444,-4230,1889,-1602,2844,6640,17038,-16,484,-238,1,0,16,39,760,0,53298,1
2,31922,32372,32456,24958,460,-4579,1753,-1391,4556,6345,17618,-56,458,-250,1,0,16,39,800,0,53298,1
2,33557,35879,34222,24959,476,-4547,1714,-1261,3536,5907,16052,-64,424,-272,1,0,16,39,840,0,53298,1
2,33203,31387,33709,24960,491,-4558,1636,-1215,-546,5488,13008,-86,392,-284,1,0,16,39,880,0,53298,1
2,33080,32620,33619,24961,508,-3943,1605,-1358,-3415,4546,10280,-81,369,-299,1,0,16,39,920,0,53298,1
2,33317,34683,33942,24962,508,-3334,1752,-1534,-2007,3248,9129,-87,349,-283,1,0,16,39,960,0,53298,1
1,33743,33188,34195,24963,0,-2859,1996,-1494,-575,2595,8204,-83,333,-293,1,0,16,40,0,0,53298,1
2,33146,35056,33689,24964,39730,-2640,2163,-1413,-2046,2109,6546,-93,321,-293,1,0,16,40,40,0,53298,1
2,32978,34655,33388,24965,39745,-2198,3180,-2149,-4207,2114,4175,-86,312,-276,1,0,16,40,80,0,53298,1
2,32888,36066,33469,24966,39757,-1954,1413,-956,-4969,1999,3636,-78,302,-282,1,0,16,40,120,0,53298,1
2,32874,35428,33500,24967,39769,-2203,2878,-1592,-5512,2149,4241,-74,290,-270,1,0,16,40,160,0,53298,1
2,32918,35803,33489,24968,39782,-1693,2830,-1892,-3177,1093,3459,-75,295,-273,1,0,16,40,200,0,53298,1
2,32850,36141,33484,24969,39794,-1740,2154,-1638,963,851,3752,-80,294,-252,1,0,16,40,240,0,53298,1
2,32740,36056,33349,24970,39807,-1876,2631,-1415,1584,1127,3434,-78,286,-272,1,0,16,40,280,0,53298,1
2,32665,35988,33271,24971,39819,-1913,2194,-1302,-265,780,2249,-71,271,-271,1,0,16,40,320,0,53298,1
2,32612,35930,33229,24972,39831,-1570,2854,-1501,-1278,369,946,-67,279,-267,1,0,16,40,360,0,53298,1
2,32591,35924,33205,24973,39845,-1705,2437,-1587,-1374,498,1207,-84,270,-258,1,0,16,40,400,0,53298,1
2,32540,35881,33164,24974,39858,-1692,2400,-1373,-490,-39,18,-70,276,-256,1,0,16,40,440,0,53298,1
2,32503,35816,33147,24975,39871,-1379,3031,-1661,-571,-496,-1138,-69,279,-259,1,0,16,40,480,0,53298,1
2,32471,35798,33091,24976,39884,-1639,2956,-1536,-232,-76,-290,-80,274,-258,1,0,16,40,520,0,53298,1
2,32453,35754,33074,24977,39897,-1713,2945,-1445,-112,-246,-587,-68,274,-264,1,0,16,40,560,0,53298,1
2,32410,35655,33030,24978,39911,-1497,3228,-1712,-905,-301,-1047,-78,276,-262,1,0,16,40,600,0,53298,1
2,32354,35545,32974,24979,39924,-1684,3030,-1595,-344,47,-151,-76,284,-258,1,0,16,40,640,0,53298,1
2,32232,35400,32875,24980,39938,-1688,2947,-1415,242,-47,-236,-69,277,-267,1,0,16,40,680,0,53298,1
2,32036,34831,32651,24981,39953,-1567,3056,-1537,-615,-135,-586,-83,281,-253,1,0,16,40,720,0,53298,1
2,31911,35054,32583,24982,39968,-1703,2836,-1529,-855,15,-161,-77,283,-259,1,0,16,40,760,0,53298,1
2,31817,34905,32461,24983,39983,-1729,2805,-1465,-359,-116,-324,-78,286,-268,1,0,16,40,800,0,53298,1
1,31838,34969,32513,24984,39997,-1586,3046,-1516,-155,-253,-550,-80,282,-254,1,0,16,40,840,0,53298,1
1,31987,35192,32633,24985,11,-1663,2973,-1522,-179,-39,-30,-81,277,-257,1,0,16,40,880,0,53298,1
1,32273,35579,32860,24986,26,-1723,2871,-1458,-170,-20,-59,-79,283,-261,1,0,16,40,920,0,53298,1
1,32857,36079,33457,24987,40,-1653,2931,-1529,-364,-112,-304,-77,285,-261,1,0,16,40,960,0,53298,1
1,31759,34404,32447,24988,0,-1711,2815,-1391,343,-114,-37,-82,288,-254,1,0,16,41,0,0,53298,1
2,31655,34276,32314,24989,39251,-1662,2959,-1432,291,-113,-122,-79,277,-261,1,0,16,41,40,0,53298,1
2,31635,34656,32320,24990,39265,-1746,2846,-1459,-257,-73,-177,-85,293,-253,1,0,16,41,80,0,53298,1
2,31629,34655,32309,24991,39279,-1692,2948,-1461,47,-180,-353,-73,287,-257,1,0,16,41,120,0,53298,1
2,31580,34363,32259,24992,39294,-1736,2848,-1508,-29,-63,-306,-76,286,-254,1,0,16,41,160,0,53298,1
2,31666,34322,32336,24993,39309,-1754,2850,-1425,-21,-109,-491,-74,282,-262,1,0,16,41,200,0,53298,1
2,31723,34369,32393,24994,39325,-1747,2823,-1469,-243,-155,-745,-77,287,-261,1,0,16,41,240,0,53298,1
2,31796,34426,32463,24995,39339,-1791,2834,-1431,-195,-181,-820,-69,289,-265,1,0,16,41,280,0,53298,1
2,31830,34607,32488,24996,39354,-1829,2771,-1417,-166,-247,-1022,-70,290,-246,1,0,16,41,320,0,53298,1
2,31832,34392,32502,24997,39368,-1950,2559,-1306,-32,-443,-1428,-82,294,-252,1,0,16,41,360,0,53298,1
2,31917,34476,32572,24998,39382,-1839,2775,-1316,-141,-693,-2041,-75,295,-257,1,0,16,41,400,0,53298,1
2,31913,34361,32551,24999,39396,-1901,2765,-1370,-384,-763,-2066,-78,302,-254,1,0,16,41,440,0,53298,1
2,31950,34528,32595,25000,39409,-1955,2932,-1429,-283,-771,-2058,-75,303,-257,1,0,16,41,480,0,53298,1
2,31934,34562,32583,25001,39422,-1903,3065,-1466,-434,-700,-2043,-81,301,-253,1,0,16,41,520,0,53298,1
2,32130,34528,32746,25002,39436,-1945,3178,-1535,-384,-534,-1591,-86,308,-252,1,0,16,41,560,0,53298,1
2,32262,34691,32921,25003,39449,-2033,3044,-1509,-55,-311,-983,-81,309,-257,1,0,16,41,600,0,53298,1
2,32460,34925,33075,25004,39463,-2023,3062,-1499,258,-205,-636,-83,311,-259,1,0,16,41,640,0,53298,1
2,32591,35214,33200,25005,39477,-2017,2993,-1442,182,-51,-260,-72,310,-254,1,0,16,41,680,0,53298,1
2,32773,35396,33341,25006,39491,-2074,2843,-1423,17,50,58,-85,313,-247,1,0,16,41,720,0,53298,1
2,32895,35590,33482,25007,39505,-2020,2838,-1410,75,93,161,-78,302,-250,1,0,16,41,760,0,53298,1
2,32984,35760,33597,25008,39518,-2046,2774,-1392,-11,134,262,-77,309,-255,1,0,16,41,800,0,53298,1
2,33098,35827,33667,25009,39533,-2012,2884,-1398,-13,128,272,-75,305,-257,1,0,16,41,840,0,53298,1
2,33126,35842,33668,25010,39547,-1960,2998,-1425,-76,191,458,-85,313,-251,1,0,16,41,880,0,53298,1
2,33138,35864,33742,25011,39561,-2039,2985,-1437,-84,275,790,-73,311,-255,1,0,16,41,920,0,53298,1
2,33190,35795,33764,25012,39575,-1959,3042,-1456,-243,320,960,-78,304,-254,1,0,16,41,960,0,53298,1
1,33200,36042,33790,25013,0,-1975,2938,-1453,-154,366,1329,-84,306,-258,1,0,16,42,0,0,53298,1
2,33284,36486,33877,25014,38774,-1994,2852,-1396,53,399,1522,-78,304,-252,1,0,16,42,40,0,53298,1
2,33240,36182,33817,25015,38788,-1959,2768,-1370,128,381,1366,-78,298,-248,1,0,16,42,80,0,53298,1
2,33209,35995,33713,25016,38802,-1948,2689,-1360,-41,372,1194,-74,300,-258,1,0,16,42,120,0,53298,1
2,33089,35683,33661,25017,38815,-1968,2571,-1317,237,224,906,-76,300,-260,1,0,16,42,160,0,53298,1
2,33117,35723,33670,25018,38829,-1895,2659,-1317,180,37,278,-84,296,-234,1,0,16,42,200,0,53298,1
2,33124,35635,33695,25019,38844,-1852,2689,-1382,-201,-32,-72,-71,297,-255,1,0,16,42,240,0,53298,1
2,33173,36094,33740,25020,38858,-1905,2774,-1371,-92,-90,-230,-90,296,-254,1,0,16,42,280,0,53298,1
2,33191,36057,33769,25021,38873,-1842,2954,-1438,-36,-149,-466,-76,296,-256,1,0,16,42,320,0,53298,1
2,33189,36326,33775,25022,38888,-1907,2902,-1417,-137,-85,-445,-81,297,-249,1,0,16,42,360,0,53298,1
2,33103,36028,33672,25023,38902,-1840,3093,-1460,-109,-75,-311,-94,304,-238,1,0,16,42,400,0,53298,1
2,33062,35694,33624,25024,38917,-1954,2914,-1414,-35,54,31,-81,303,-247,1,0,16,42,440,0,53298,1
2,33100,35683,33651,25025,38932,-1887,2988,-1425,-61,23,-31,-72,306,-252,1,0,16,42,480,0,53298,1
2,33144,35760,33705,25026,38947,-1849,3000,-1447,-194,111,250,-85,307,-237,1,0,16,42,520,0,53298,1
2,33179,35793,33783,25027,38961,-1967,2820,-1393,137,136,509,-76,294,-258,1,0,16,42,560,0,53298,1
2,33198,35830,33771,25028,38975,-1817,2959,-1385,64,41,262,-73,295,-257,1,0,16,42,600,0,53298,1
2,33205,35790,33781,25029,38990,-1882,2769,-1406,-223,119,526,-68,292,-252,1,0,16,42,640,0,53298,1
2,33207,35784,33764,25030,39005,-1916,2751,-1368,281,-19,466,-76,294,-246,1,0,16,42,680,0,53298,1
2,33189,35783,33762,25031,39020,-1780,2809,-1347,300,-62,366,-70,300,-258,1,0,16,42,720,0,53298,1
2,33203,35604,33780,25032,39035,-1875,2701,-1461,778,58,921,-76,288,-256,1,0,16,42,760,0,53298,1
2,33206,35304,33785,25033,39049,-1755,2726,-1509,2649,-377,1061,-79,291,-261,1,0,16,42,800,0,53298,1
2,33269,35654,33860,25034,39064,-1849,2863,-1365,2895,-404,854,-75,291,-269,1,0,16,42,840,0,53298,1
2,33306,35889,33927,25035,39078,-1730,2830,-1399,1905,-671,633,-80,296,-258,1,0,16,42,880,0,53298,1
2,33421,36105,34055,25036,39094,-1874,2808,-1269,1665,-840,791,-85,291,-259,1,0,16,42,920,0,53298,1
2,33594,36635,34109,25037,39110,-1799,2879,-1397,843,-1152,638,-75,285,-273,1,0,16,42,960,0,53298,1
1,33305,35679,33307,25038,0,-1979,2885,-1612,377,-1287,655,-84,290,-258,1,0,16,43,0,1,53298,1
2,33378,37062,33966,25039,38300,-1801,3072,-1714,48,-1171,199,-88,288,-268,1,0,16,43,40,1,53298,1
2,33467,37075,34066,25040,38318,-1647,3236,-1881,-437,-791,487,-86,288,-272,1,0,16,43,80,1,53298,1
2,32905,32739,33463,25041,38336,-1777,3055,-1856,-580,-333,915,-92,284,-258,1,0,16,43,120,1,53298,1
2,32819,31239,33535,25042,38354,-1760,2828,-1794,-657,-122,846,-78,280,-262,1,0,16,43,160,1,53298,1
2,32114,31129,32716,25043,38372,-1791,2670,-1662,-506,69,772,-82,280,-254,1,0,16,43,200,1,53298,1
2,31977,30788,32630,25044,38389,-1810,2510,-1493,-197,304,301,-97,277,-269,1,0,16,43,240,1,53298,1
2,31988,32483,32626,25045,38407,-1872,2453,-1374,-314,55,-64,-92,288,-254,1,0,16,43,280,1,53298,1
2,32068,31161,32885,25046,38425,-1744,2811,-1401,-164,-317,-660,-94,278,-258,1,0,16,43,320,1,53298,1
2,32231,30579,32919,25047,38443,-1658,3009,-1500,-450,-180,-651,-98,284,-266,1,0,16,43,360,1,53298,1
2,31464,31381,32109,25048,38461,-1891,2974,-1456,-378,-192,-339,-90,284,-266,1,0,16,43,400,1,53298,1
2,31452,32906,32033,25049,38479,-1597,3221,-1596,-520,-201,-856,-84,292,-260,1,0,16,43,440,1,53298,1
2,31664,32815,32270,25050,38496,-1878,2922,-1489,-134,56,-189,-88,290,-250,1,0,16,43,480,1,53298,1
2,31572,32814,32167,25051,38514,-2013,2656,-1380,298,11,-447,-88,284,-256,1,0,16,43,520,1,53298,1
2,31708,31699,32227,25052,38530,-2232,2218,-1423,37,-222,-1665,-83,291,-257,1,0,16,43,560,1,53298,1
2,32138,33591,32637,25053,38546,-2510,1478,-1141,541,-727,-4338,-85,297,-267,1,0,16,43,600,1,53298,1
2,32051,33299,32174,25054,38561,-3120,1231,-1168,326,-2056,-8067,-76,314,-260,1,0,16,43,640,1,53298,1
2,32377,31917,32842,25055,38574,-2809,1989,-780,1794,-3482,-12407,-78,334,-262,1,0,16,43,680,1,53298,1
2,32236,33984,32868,25056,38587,-3358,2172,-1687,1424,-3622,-12784,-75,359,-259,1,0,16,43,720,1,53298,1
2,32975,36217,33725,25057,38599,-4341,1655,-1484,3610,-3475,-12596,-77,383,-255,1,0,16,43,760,1,53298,1
2,32384,35778,32932,25058,38612,-4777,1311,-1232,6802,-5797,-15134,-54,402,-266,1,0,16,43,800,1,53298,1
2,32830,36334,33600,25059,38625,-4332,2028,-1528,4483,-7218,-19180,-41,445,-249,1,0,16,43,840,1,53298,1
2,32920,36481,33547,25060,38638,-4025,1398,-1476,868,-6099,-19976,1,475,-243,1,0,16,43,880,1,53298,1
2,32654,36082,33270,25061,38650,-3529,2273,-1720,-435,-5612,-19799,31,509,-229,1,0,16,43,920,1,53298,1
2,32372,35636,32918,25062,38661,-3186,2390,-1332,677,-4946,-16935,70,534,-222,1,0,16,43,960,1,53298,1
1,32904,31750,33759,25063,0,-3701,1821,-1037,1159,-4431,-12977,111,549,-201,1,0,16,44,0,0,53298,1
2,33530,32882,34189,25064,37817,-3888,1761,-1242,-1070,-3935,-10052,130,550,-194,1,0,16,44,40,0,53298,1
2,32460,30906,32534,25065,37828,-3868,2031,-1472,-1688,-3736,-7515,143,561,-177,1,0,16,44,80,0,53298,1
2,31635,30163,32288,25066,37839,-3383,3444,-3138,-3482,125,-839,138,562,-168,1,0,16,44,120,0,53298,1
2,32694,31182,33590,25067,37850,-5809,-1391,-472,1655,1626,-374,130,568,-176,1,0,16,44,160,0,53298,1
2,32032,30812,32677,25068,37862,-4422,102,377,2262,-469,-1225,140,568,-170,1,0,16,44,200,0,53298,1
2,32065,30830,32682,25069,37874,-3970,24,-1095,149,-349,-587,139,569,-163,1,0,16,44,240,0,53298,1
2,32338,30903,33056,25070,37885,-4491,-19,-1562,-523,680,-25,146,566,-162,1,0,16,44,280,0,53298,1
2,32577,30767,33252,25071,37896,-4603,132,-703,1228,145,152,144,566,-176,1,0,16,44,320,0,53298,1
2,33007,31122,33745,25072,37908,-4379,38,-777,255,133,230,145,565,-177,1,0,16,44,360,0,53298,1
2,32946,31035,33594,25073,37920,-4320,-51,-1085,-133,427,332,141,571,-175,1,0,16,44,400,0,53298,1
2,32630,30823,33303,25074,37932,-4409,133,-1115,759,361,271,135,567,-167,1,0,16,44,440,0,53298,1
2,32226,33990,32871,25075,37943,-4421,96,-917,812,224,18,139,565,-161,1,0,16,44,480,0,53298,1
2,32064,35100,32727,25076,37955,-4389,16,-955,247,258,-202,142,560,-182,1,0,16,44,520,0,53298,1
2,32030,33608,32660,25077,37967,-4372,21,-1130,55,300,-294,142,560,-176,1,0,16,44,560,0,53298,1
2,32056,31344,32674,25078,37979,-4365,0,-1059,257,167,-234,136,554,-176,1,0,16,44,600,0,53298,1
2,32034,31577,32669,25079,37990,-4377,0,-1021,239,126,-117,134,564,-174,1,0,16,44,640,0,53298,1
2,32001,32482,32644,25080,38002,-4409,4,-1068,82,66,1,146,562,-178,1,0,16,44,680,0,53298,1
2,31910,31993,32537,25081,38014,-4366,2,-1082,33,-69,82,141,565,-175,1,0,16,44,720,0,53298,1
2,31955,30770,32579,25082,38026,-4378,12,-1032,129,-130,94,149,561,-183,1,0,16,44,760,0,53298,1
2,32095,30232,32762,25083,38038,-4395,43,-1023,180,-102,71,145,559,-177,1,0,16,44,800,0,53298,1
2,32045,30269,32676,25084,38051,-4377,27,-1018,121,-71,40,137,563,-173,1,0,16,44,840,0,53298,1
2,32015,30300,32647,25085,38063,-4379,27,-1011,76,16,-13,150,564,-170,1,0,16,44,880,0,53298,1
2,32020,30282,32633,25086,38076,-4384,36,-1007,110,83,-37,142,564,-182,1,0,16,44,920,0,53298,1
2,31986,30250,32616,25087,38088,-4384,20,-1043,77,136,-64,137,563,-179,1,0,16,44,960,0,53298,1
1,32003,30204,32632,25088,0,-4394,11,-1055,29,155,-77,145,563,-181,1,0,16,45,0,1,53298,1
2,31984,30203,32625,25089,37342,-4391,-4,-1054,-33,84,-41,146,566,-176,1,0,16,45,40,1,53298,1
2,31994,30218,32625,25090,37354,-4393,9,-1036,5,26,-25,144,564,-176,1,0,16,45,80,1,53298,1
2,31964,30216,32610,25091,37366,-4390,15,-1020,64,-17,-11,140,566,-182,1,0,16,45,120,1,53298,1
2,31964,30282,32600,25092,37378,-4402,11,-1008,38,-36,1,146,562,-180,1,0,16,45,160,1,53298,1
2,31983,30252,32614,25093,37390,-4383,8,-1039,-19,2,2,137,561,-179,1,0,16,45,200,1,53298,1
2,31994,30255,32636,25094,37402,-4403,1,-1035,26,27,-4,134,556,-180,1,0,16,45,240,1,53298,1
2,31995,30270,32627,25095,37413,-4388,16,-1030,91,32,2,146,558,-182,1,0,16,45,280,1,53298,1
2,32033,30288,32663,25096,37425,-4387,8,-1048,43,43,-19,143,567,-165,1,0,16,45,320,1,53298,1
2,32082,30342,32728,25097,37437,-4386,17,-1058,12,19,-19,144,554,-182,1,0,16,45,360,1,53298,1
2,32115,30343,32760,25098,37449,-4389,-2,-1038,7,16,-21,143,551,-171,1,0,16,45,400,1,53298,1
2,32117,30336,32775,25099,37461,-4410,7,-1028,47,4,-8,138,560,-182,1,0,16,45,440,1,53298,1
2,32157,30354,32796,25100,37474,-4379,22,-1042,34,9,-12,139,561,-183,1,0,16,45,480,1,53298,1
2,32191,30375,32821,25101,37487,-4385,8,-1039,4,47,-6,140,566,-168,1,0,16,45,520,1,53298,1
2,32202,30378,32839,25102,37498,-4390,-3,-1049,25,39,-10,141,561,-177,1,0,16,45,560,1,53298,1
2,32226,30402,32870,25103,37510,-4390,6,-1055,40,32,-22,138,558,-180,1,0,16,45,600,1,53298,1
2,32255,30413,32903,25104,37522,-4393,-5,-1041,58,27,-40,139,561,-167,1,0,16,45,640,1,53298,1
2,32253,30420,32895,25105,37535,-4381,6,-1055,31,31,-51,139,561,-179,1,0,16,45,680,1,53298,1
2,32261,30433,32904,25106,37548,-4386,11,-1048,38,62,-65,149,561,-179,1,0,16,45,720,1,53298,1
2,32256,30422,32901,25107,37561,-4393,-7,-1043,62,72,-68,142,566,-178,1,0,16,45,760,1,53298,1
2,32293,30459,32936,25108,37573,-4392,4,-1045,50,78,-61,141,559,-171,1,0,16,45,800,1,53298,1
2,32323,30482,32970,25109,37586,-4374,-10,-1054,30,87,-61,135,567,-169,1,0,16,45,840,1,53298,1
2,32326,30488,32979,25110,37598,-4399,-31,-1060,22,75,-24,144,556,-184,1,0,16,45,880,1,53298,1
2,32349,30482,32984,25111,37609,-4374,-17,-1064,39,37,6,141,563,-179,1,0,16,45,920,1,53298,1
2,32342,30495,32981,25112,37621,-4400,-20,-1051,45,8,35,136,562,-178,1,0,16,45,960,1,53298,1
1,32359,30492,33011,25113,0,-4386,-18,-1075,26,-24,49,138,558,-182,1,0,16,46,0,1,53298,1
2,32381,30505,33030,25114,36865,-4386,-2,-1043,8,-22,43,144,554,-188,1,0,16,46,40,1,53298,1
2,32419,30550,33059,25115,36876,-4384,-14,-1066,19,-12,44,143,565,-183,1,0,16,46,80,1,53298,1
2,32413,30536,33074,25116,36888,-4402,-23,-1042,5,1,33,138,570,-174,1,0,16,46,120,1,53298,1
2,32447,30538,33107,25117,36901,-4397,-28,-1065,6,-11,30,150,560,-184,1,0,16,46,160,1,53298,1
2,32489,30564,33162,25118,36913,-4382,-11,-1048,4,-9,23,141,573,-183,1,0,16,46,200,1,53298,1
2,32490,30565,33144,25119,36925,-4402,-17,-1070,9,-11,14,144,568,-172,1,0,16,46,240,1,53298,1
2,32485,30567,33136,25120,36936,-4390,-22,-1050,7,1,11,145,567,-187,1,0,16,46,280,1,53298,1
2,32491,30574,33162,25121,36947,-4387,-21,-1062,8,-4,20,152,564,-184,1,0,16,46,320,1,53298,1
2,32555,30590,33194,25122,36959,-4393,-14,-1045,34,-37,34,142,558,-184,1,0,16,46,360,1,53298,1
2,32585,30634,33255,25123,36971,-4394,-28,-1048,21,-66,83,139,555,-187,1,0,16,46,400,1,53298,1
2,32670,30664,33330,25124,36983,-4389,-23,-1065,-17,-90,89,140,556,-180,1,0,16,46,440,1,53298,1
2,32732,30685,33404,25125,36995,-4399,-8,-1043,6,-65,83,139,565,-177,1,0,16,46,480,1,53298,1
2,32729,30683,33388,25126,37007,-4383,-7,-1034,54,-10,59,140,558,-178,1,0,16,46,520,1,53298,1
2,32781,30706,33454,25127,37019,-4402,-5,-1036,32,68,1,137,565,-181,1,0,16,46,560,1,53298,1
2,32755,30708,33406,25128,37031,-4383,-18,-1047,-7,79,-11,140,562,-184,1,0,16,46,600,1,53298,1
2,32823,30723,33527,25129,37044,-4383,-18,-1069,-3,45,-3,146,566,-188,1,0,16,46,640,1,53298,1
2,32896,30759,33573,25130,37056,-4391,-21,-1064,1,-29,24,140,566,-176,1,0,16,46,680,1,53298,1
2,32898,30756,33573,25131,37068,-4403,-12,-1070,-17,-73,66,145,561,-185,1,0,16,46,720,1,53298,1
2,32900,30759,33570,25132,37079,-4411,-16,-1042,-50,-83,99,152,566,-174,1,0,16,46,760,1,53298,1
2,32885,30756,33565,25133,37091,-4380,-12,-1043,-123,-95,150,140,558,-176,1,0,16,46,800,1,53298,1
2,32934,30783,33611,25134,37104,-4380,-3,-1065,-140,-80,159,151,561,-185,1,0,16,46,840,1,53298,1
2,32936,30800,33606,25135,37116,-4400,16,-1013,-53,-27,130,150,560,-184,1,0,16,46,880,1,53298,1
2,32931,30806,33598,25136,37128,-4395,3,-1025,-12,29,58,150,566,-182,1,0,16,46,920,1,53298,1
2,32913,30799,33583,25137,37140,-4389,-11,-1056,-65,82,12,140,566,-172,1,0,16,46,960,1,53298,1
1,32911,30796,33580,25138,0,-4373,-6,-1067,-56,73,-4,138,552,-184,1,0,16,47,0,0,53298,1
2,32911,30811,33575,25139,36389,-4397,-8,-1067,33,14,-3,143,563,-189,1,0,16,47,40,0,53298,1
2,32925,30821,33595,25140,36402,-4387,2,-1070,64,-29,4,140,550,-172,1,0,16,47,80,0,53298,1
2,32913,30843,33582,25141,36414,-4388,-1,-1053,8,-28,7,145,555,-185,1,0,16,47,120,0,53298,1
2,32911,30822,33593,25142,36426,-4395,-6,-1058,-90,-70,123,138,558,-178,1,0,16,47,160,0,53298,1
2,32890,30805,33536,25143,36438,-4398,-4,-1090,-175,-124,324,134,556,-176,1,0,16,47,200,0,53298,1
2,32838,30933,33543,25144,36449,-4430,-10,-1105,-372,-57,459,140,560,-176,1,0,16,47,240,0,53298,1
2,32795,30885,33458,25145,36461,-4480,14,-966,-392,-135,471,140,558,-176,1,0,16,47,280,0,53298,1
2,32767,30688,33329,25146,36473,-4460,66,-927,-950,-373,331,136,560,-184,1,0,16,47,320,0,53298,1
2,32614,30666,33290,25147,36485,-4502,-28,-909,-1304,-643,114,147,563,-179,1,0,16,47,360,0,53298,1
2,32569,34471,33214,25148,36498,-4253,-92,-941,-1001,-798,-31,142,562,-166,1,0,16,47,400,0,53298,1
2,32554,32527,33213,25149,36512,-4372,149,-1014,-800,-488,-26,148,560,-180,1,0,16,47,440,0,53298,1
2,32560,31932,33194,25150,36525,-4465,68,-990,-894,-237,-129,145,557,-167,1,0,16,47,480,0,53298,1
2,32499,33712,33071,25151,36539,-4462,147,-986,-757,-54,-79,146,560,-182,1,0,16,47,520,0,53298,1
2,32515,35702,33105,25152,36552,-4418,278,-1137,-896,75,50,151,559,-177,1,0,16,47,560,0,53298,1
2,32412,34727,32916,25153,36565,-4246,786,-1355,-756,220,762,147,561,-181,1,0,16,47,600,0,53298,1
2,32269,33818,32875,25154,36578,-4088,977,-1455,-636,797,2316,139,561,-175,1,0,16,47,640,0,53298,1
2,32439,35707,33050,25155,36591,-4005,908,-1460,-600,1690,3975,129,559,-189,1,0,16,47,680,0,53298,1
2,32374,35628,33000,25156,36603,-4059,694,-1245,-549,2520,5308,113,557,-187,1,0,16,47,720,0,53298,1
2,32424,35735,33208,25157,36616,-4177,399,-1052,-947,3048,6237,101,557,-205,1,0,16,47,760,0,53298,1
2,32383,35436,33038,25158,36630,-4283,506,-1089,-1204,3344,7016,74,552,-210,1,0,16,47,800,0,53298,1
2,31629,32639,32142,25159,36645,-4276,671,-912,413,2665,7410,63,547,-217,1,0,16,47,840,0,53298,1
2,34376,33314,34183,25160,36661,-4296,773,-955,29,2147,7301,44,552,-210,1,0,16,47,880,0,53298,1
2,34443,37237,35070,25161,36678,-4194,947,-1216,-1168,2056,6424,36,532,-210,1,0,16,47,920,0,53298,1
2,32820,32545,33253,25162,36695,-4088,1257,-1167,-1036,1936,5772,13,525,-229,1,0,16,47,960,0,53298,1
1,32565,30574,33232,25163,0,-3959,1320,-1384,-1754,1940,5436,8,520,-222,1,0,16,48,0,1,53298,1
2,32610,31078,33180,25164,35920,-3929,1507,-1399,-1531,1773,5432,-5,517,-237,1,0,16,48,40,1,53298,1
2,32923,31246,33413,25165,35938,-3724,1596,-1537,-1637,1662,5405,-12,498,-228,1,0,16,48,80,1,53298,1
2,32990,34107,33497,25166,35956,-3676,1701,-1462,-1415,1633,5734,-25,497,-231,1,0,16,48,120,1,53298,1
2,33029,31066,33608,25167,35974,-3567,1873,-1333,-2017,1830,5632,-29,479,-235,1,0,16,48,160,1,53298,1
2,33848,31347,34297,25168,35992,-3391,1677,-1324,-3048,2049,5425,-42,460,-244,1,0,16,48,200,1,53298,1
2,33521,31229,34042,25169,36010,-3281,1832,-1388,-2591,1856,5988,-46,460,-244,1,0,16,48,240,1,53298,1
2,33084,30961,33461,25170,36028,-2968,2033,-1226,-542,1502,6337,-57,443,-245,1,0,16,48,280,1,53298,1
2,32755,30812,33292,25171,36047,-3044,2433,-1149,-71,1266,7394,-55,435,-251,1,0,16,48,320,1,53298,1
2,32742,30792,33326,25172,36066,-3127,2182,-1246,-1136,1109,7869,-75,407,-245,1,0,16,48,360,1,53298,1
2,32883,30802,33415,25173,36084,-3226,1907,-1460,-1244,886,7462,-87,401,-239,1,0,16,48,400,1,53298,1
2,32760,35259,33338,25174,36102,-2994,2071,-1460,-68,777,6552,-91,385,-253,1,0,16,48,440,1,53298,1
2,32764,30832,33307,25175,36119,-3070,1937,-1489,1916,429,5893,-94,372,-250,1,0,16,48,480,1,53298,1
2,32666,30707,33242,25176,36136,-2882,2154,-1354,3055,91,4948,-96,368,-262,1,0,16,48,520,1,53298,1
2,32597,30635,33202,25177,36153,-2686,2356,-1349,1501,188,3871,-101,365,-253,1,0,16,48,560,1,53298,1
2,32511,30681,33074,25178,36171,-2697,2359,-1391,-80,58,3548,-90,356,-272,1,0,16,48,600,1,53298,1
2,32427,30781,33011,25179,36188,-2672,2345,-1445,-806,-128,2802,-96,350,-254,1,0,16,48,640,1,53298,1
2,32289,30702,32878,25180,36205,-2240,2818,-1561,-1102,-74,1866,-90,334,-266,1,0,16,48,680,1,53298,1
2,32215,30714,32775,25181,36223,-2429,2770,-1572,-399,27,2404,-98,342,-248,1,0,16,48,720,1,53298,1
2,32049,31132,32628,25182,36240,-2378,2789,-1540,-104,57,2402,-95,341,-249,1,0,16,48,760,1,53298,1
2,31997,31007,32566,25183,36258,-2160,2791,-1610,-237,137,2122,-93,325,-251,1,0,16,48,800,1,53298,1
2,32005,30897,32564,25184,36274,-2300,2651,-1626,18,286,2454,-99,327,-267,1,0,16,48,840,1,53298,1
2,31968,30676,32538,25185,36291,-2226,2728,-1541,257,313,2223,-88,316,-262,1,0,16,48,880,1,53298,1
2,32005,30567,32580,25186,36308,-2132,2847,-1647,-473,544,2169,-91,311,-261,1,0,16,48,920,1,53298,1
2,31981,30520,32546,25187,36326,-2187,2728,-1572,-705,741,2287,-95,323,-249,1,0,16,48,960,1,53298,1
1,31942,30467,32263,25188,0,-2221,2429,-1447,-934,702,1620,-92,302,-248,1,0,16,49,0,1,53298,1
2,31917,30391,32474,25189,35445,-1883,2676,-1574,-853,620,1108,-92,306,-254,1,0,16,49,40,1,53298,1
2,31897,30298,32467,25190,35462,-2101,2580,-1384,138,692,1552,-82,302,-252,1,0,16,49,80,1,53298,1
2,31885,30269,32459,25191,35479,-2182,2497,-1271,-68,482,729,-88,306,-260,1,0,16,49,120,1,53298,1
2,31871,30323,32435,25192,35496,-1991,2543,-1347,-904,226,-205,-92,298,-246,1,0,16,49,160,1,53298,1
2,31841,30503,32413,25193,35511,-2149,2264,-1277,-552,53,-514,-89,303,-253,1,0,16,49,200,1,53298,1
2,31846,30356,32420,25194,35528,-2204,2370,-1215,-331,-375,-1570,-97,311,-243,1,0,16,49,240,1,53298,1
2,31555,30486,32144,25195,35543,-1854,2859,-1456,-753,-600,-2277,-91,307,-247,1,0,16,49,280,1,53298,1
2,31505,30195,32066,25196,35558,-2075,2873,-1447,-335,-442,-1507,-94,310,-250,1,0,16,49,320,1,53298,1
2,31521,30160,32177,25197,35573,-2049,3215,-1482,-145,-456,-1513,-95,313,-253,1,0,16,49,360,1,53298,1
2,31728,30440,32285,25198,35588,-1963,3315,-1623,-342,-266,-1005,-90,310,-248,1,0,16,49,400,1,53298,1
2,31776,30539,32335,25199,35603,-2150,3103,-1525,117,0,31,-98,314,-252,1,0,16,49,440,1,53298,1
2,31703,30458,32235,25200,35619,-2135,2969,-1515,165,125,381,-87,319,-243,1,0,16,49,480,1,53298,1
2,31829,30643,32390,25201,35634,-2093,2837,-1456,195,270,751,-89,313,-249,1,0,16,49,520,1,53298,1
2,31835,30686,32416,25202,35649,-2159,2677,-1395,309,350,1002,-96,316,-246,1,0,16,49,560,1,53298,1
2,31863,30735,32437,25203,35665,-2121,2617,-1376,179,322,773,-90,310,-246,1,0,16,49,600,1,53298,1
2,31846,30707,32429,25204,35680,-2055,2675,-1377,62,265,527,-89,311,-249,1,0,16,49,640,1,53298,1
2,31482,30629,32050,25205,35696,-2060,2710,-1416,151,239,514,-90,304,-250,1,0,16,49,680,1,53298,1
2,31500,30648,32064,25206,35712,-2142,2659,-1340,134,159,314,-98,314,-252,1,0,16,49,720,1,53298,1
2,31570,30678,32105,25207,35728,-2079,2678,-1383,-140,19,-218,-100,318,-248,1,0,16,49,760,1,53298,1
2,31765,30201,32338,25208,35743,-2068,2698,-1415,-94,-15,-256,-76,304,-248,1,0,16,49,800,1,53298,1
2,31791,30512,32355,25209,35758,-2142,2712,-1393,52,-72,-294,-89,309,-251,1,0,16,49,840,1,53298,1
2,31848,30631,32409,25210,35773,-2107,2764,-1463,-104,-149,-631,-95,311,-243,1,0,16,49,880,1,53298,1
2,31789,30444,32356,25211,35787,-2077,2827,-1444,-25,-160,-684,-93,317,-249,1,0,16,49,920,1,53298,1
2,31829,30629,32393,25212,35801,-2103,2826,-1416,31,-131,-488,-93,311,-251,1,0,16,49,960,1,53298,1
1,31754,30285,32320,25213,0,-2118,2807,-1399,-54,-123,-472,-88,314,-256,1,0,16,50,0,1,53298,1
2,31764,30321,32313,25214,34967,-2058,2903,-1468,-282,-115,-443,-93,315,-259,1,0,16,50,40,1,53298,1
2,31824,30742,32392,25215,34981,-2139,2831,-1437,-114,-29,-82,-96,314,-252,1,0,16,50,80,1,53298,1
2,31677,30656,32300,25216,34996,-2158,2823,-1416,77,-40,-7,-87,315,-245,1,0,16,50,120,1,53298,1
2,31540,30511,32088,25217,35010,-2137,2789,-1441,-84,-11,-24,-100,316,-242,1,0,16,50,160,1,53298,1
2,31445,30172,31991,25218,35026,-2144,2737,-1418,-39,24,117,-90,316,-254,1,0,16,50,200,1,53298,1
2,31450,30199,32010,25219,35041,-2141,2732,-1413,-1,21,64,-93,317,-245,1,0,16,50,240,1,53298,1
2,31424,30222,31982,25220,35056,-2099,2791,-1429,-14,-2,-19,-99,321,-257,1,0,16,50,280,1,53298,1
2,31475,30293,32022,25221,35070,-2142,2750,-1426,-31,33,68,-89,315,-255,1,0,16,50,320,1,53298,1
2,31457,30506,32019,25222,35086,-2132,2773,-1391,-84,37,0,-94,314,-252,1,0,16,50,360,1,53298,1
2,31440,30634,31993,25223,35101,-2114,2769,-1418,-89,7,-36,-92,318,-246,1,0,16,50,400,1,53298,1
2,31424,30648,31952,25224,35116,-2151,2753,-1396,41,14,33,-86,318,-250,1,0,16,50,440,1,53298,1
2,31383,30517,31936,25225,35131,-2131,2788,-1406,16,-10,33,-93,307,-249,1,0,16,50,480,1,53298,1
2,31375,30549,31924,25226,35146,-2145,2768,-1414,-39,-11,-16,-91,323,-243,1,0,16,50,520,1,53298,1
2,31355,30470,31902,25227,35160,-2115,2817,-1435,-62,10,52,-88,310,-260,1,0,16,50,560,1,53298,1
2,31334,30375,31878,25228,35175,-2162,2777,-1413,41,29,134,-83,313,-247,1,0,16,50,600,1,53298,1
2,31308,30258,31857,25229,35188,-2095,2837,-1440,-50,18,91,-81,311,-253,1,0,16,50,640,1,53298,1
2,31335,30293,31878,25230,35202,-2107,2820,-1412,-74,102,261,-85,315,-245,1,0,16,50,680,1,53298,1
2,31333,30278,31882,25231,35217,-2157,2745,-1398,10,63,311,-87,319,-247,1,0,16,50,720,1,53298,1
2,31334,30281,31887,25232,35232,-2121,2759,-1420,-25,13,207,-98,318,-250,1,0,16,50,760,1,53298,1
2,31321,30246,31872,25233,35246,-2127,2684,-1404,-37,16,154,-87,317,-251,1,0,16,50,800,1,53298,1
2,31319,30178,31868,25234,35260,-2147,2642,-1402,0,-21,-13,-92,312,-250,1,0,16,50,840,1,53298,1
2,31333,30172,31881,25235,35274,-2159,2644,-1371,98,-80,-212,-82,314,-250,1,0,16,50,880,1,53298,1
2,31306,30197,31862,25236,35290,-2145,2707,-1353,-8,-140,-482,-92,316,-252,1,0,16,50,920,1,53298,1
2,31530,30216,32241,25237,35304,-2112,2798,-1382,-139,-178,-544,-84,314,-254,1,0,16,50,960,1,53298,1
1,31446,30142,32005,25238,0,-2174,2786,-1396,-125,-210,-465,-93,307,-243,1,0,16,51,0,0,53298,1
2,31466,30207,32007,25239,34491,-2162,2835,-1414,-90,-240,-524,-97,313,-245,1,0,16,51,40,0,53298,1
2,31716,30246,32249,25240,34506,-2176,2818,-1433,6,-231,-425,-84,316,-248,1,0,16,51,80,0,53298,1
2,31553,30207,32113,25241,34520,-2157,2816,-1448,87,-184,-240,-82,316,-248,1,0,16,51,120,0,53298,1
2,31544,30202,32116,25242,34534,-2174,2798,-1444,70,-104,-129,-85,325,-245,1,0,16,51,160,0,53298,1
2,31769,30208,32308,25243,34548,-2169,2812,-1431,48,-56,-67,-86,310,-252,1,0,16,51,200,0,53298,1
2,31812,30305,32366,25244,34563,-2202,2737,-1379,23,22,54,-91,323,-251,1,0,16,51,240,0,53298,1
2,31795,30335,32353,25245,34577,-2215,2720,-1372,46,-28,-20,-94,328,-240,1,0,16,51,280,0,53298,1
2,31741,30350,32318,25246,34590,-2166,2731,-1413,-84,-15,-38,-90,318,-242,1,0,16,51,320,0,53298,1
2,31775,30378,32352,25247,34605,-2223,2694,-1381,15,-30,-8,-90,314,-242,1,0,16,51,360,0,53298,1
2,31706,30395,32274,25248,34620,-2144,2795,-1430,-40,-87,-117,-91,313,-251,1,0,16,51,400,0,53298,1
2,31731,30396,32291,25249,34635,-2197,2764,-1385,-16,12,25,-84,322,-246,1,0,16,51,440,0,53298,1
2,31748,30432,32307,25250,34650,-2187,2803,-1422,-15,6,33,-83,315,-255,1,0,16,51,480,0,53298,1
2,31805,30370,32370,25251,34664,-2217,2729,-1396,-72,27,18,-91,321,-241,1,0,16,51,520,0,53298,1
2,31814,30376,32384,25252,34678,-2176,2759,-1377,14,25,40,-84,312,-250,1,0,16,51,560,0,53298,1
2,31807,30355,32370,25253,34692,-2229,2694,-1357,58,25,58,-82,318,-240,1,0,16,51,600,0,53298,1
2,31807,30371,32373,25254,34707,-2217,2701,-1331,5,-59,-137,-82,314,-242,1,0,16,51,640,0,53298,1
2,31805,30337,32377,25255,34721,-2205,2646,-1376,-204,-77,-264,-85,319,-247,1,0,16,51,680,0,53298,1
2,31786,30284,32349,25256,34736,-2252,2621,-1355,5,-156,-365,-97,319,-241,1,0,16,51,720,0,53298,1
2,31785,30265,32360,25257,34750,-2268,2655,-1353,-9,-259,-687,-86,320,-244,1,0,16,51,760,0,53298,1
2,31788,30193,32365,25258,34764,-2312,2615,-1336,-167,-323,-987,-95,329,-251,1,0,16,51,800,0,53298,1
2,31759,30147,32330,25259,34779,-2387,2507,-1302,-146,-440,-1273,-86,320,-246,1,0,16,51,840,0,53298,1
2,31775,30160,32348,25260,34792,-2426,2463,-1243,9,-682,-1823,-91,331,-235,1,0,16,51,880,0,53298,1
2,31689,30164,32276,25261,34805,-2620,2236,-1239,-103,-967,-2613,-77,341,-247,1,0,16,51,920,0,53298,1
2,31550,30395,32108,25262,34819,-2701,2111,-1246,22,-1317,-3723,-85,335,-237,1,0,16,51,960,0,53298,1
1,31530,30501,32072,25263,0,-2578,2356,-1322,537,-1558,-4584,-79,351,-253,1,0,16,52,0,0,53298,1
2,31536,30605,32088,25264,34014,-2846,2348,-1356,1179,-1556,-4819,-81,359,-243,1,0,16,52,40,0,53298,1
2,31595,30643,32122,25265,34027,-2931,2448,-1462,1666,-1570,-5348,-85,377,-237,1,0,16,52,80,0,53298,1
2,31705,30256,32304,25266,34041,-3075,2380,-1361,1770,-1573,-6192,-75,389,-237,1,0,16,52,120,0,53298,1
2,31648,34944,32045,25267,34054,-3082,2164,-1261,1514,-1809,-6802,-69,403,-249,1,0,16,52,160,0,53298,1
2,31370,30280,31927,25268,34066,-3166,2062,-1345,432,-1673,-6883,-68,408,-244,1,0,16,52,200,0,53298,1
2,31395,30445,31955,25269,34079,-3487,1935,-1412,-42,-1482,-7055,-54,418,-238,1,0,16,52,240,0,53298,1
2,31359,30491,31928,25270,34091,-3865,1677,-1493,207,-1536,-7770,-42,438,-232,1,0,16,52,280,0,53298,1
2,31422,30540,32049,25271,34103,-4039,1383,-1266,1143,-1873,-8887,-37,453,-231,1,0,16,52,320,0,53298,1
2,31385,30581,32002,25272,34114,-4062,1374,-1248,1426,-2304,-10120,-29,455,-215,1,0,16,52,360,0,53298,1
2,31771,31996,32413,25273,34126,-3983,960,-902,1437,-2643,-10812,9,489,-219,1,0,16,52,400,0,53298,1
2,32085,34199,32694,25274,34137,-4184,822,-770,125,-3254,-11617,33,499,-219,1,0,16,52,440,0,53298,1
2,31612,34406,32165,25275,34148,-4093,1042,-1012,-2123,-3531,-12303,45,521,-209,1,0,16,52,480,0,53298,1
2,31404,30375,32018,25276,34160,-3787,1181,-1041,-1549,-3297,-11706,89,529,-197,1,0,16,52,520,0,53298,1
2,31355,32475,31922,25277,34173,-4086,1419,-1059,-134,-3035,-10173,104,544,-192,1,0,16,52,560,0,53298,1
2,31350,30494,31937,25278,34186,-4074,1447,-923,1130,-2663,-8186,119,555,-175,1,0,16,52,600,0,53298,1
2,31403,30302,31981,25279,34198,-4026,1342,-862,1353,-2556,-6283,136,544,-168,1,0,16,52,640,0,53298,1
2,31417,30925,31970,25280,34211,-3808,1365,-870,1086,-2442,-4305,144,554,-172,1,0,16,52,680,0,53298,1
2,31431,33588,31981,25281,34222,-3822,1896,-1017,-71,-1867,-2107,144,542,-164,1,0,16,52,720,0,53298,1
2,31813,30815,32239,25282,34234,-5232,82,-2447,-1968,1241,265,154,550,-162,1,0,16,52,760,0,53298,1
2,32680,32040,33590,25283,34246,-4949,-157,-371,2872,1079,-396,140,558,-168,1,0,16,52,800,0,53298,1
2,33070,31292,33787,25284,34257,-4267,184,-226,2414,167,-681,145,553,-163,1,0,16,52,840,0,53298,1
2,32982,36052,33631,25285,34269,-4161,93,-959,824,-130,-85,146,552,-164,1,0,16,52,880,0,53298,1
2,33110,31239,33745,25286,34280,-4607,98,-1220,-199,354,76,147,553,-171,1,0,16,52,920,0,53298,1
2,32962,32059,33592,25287,34291,-4502,200,-636,820,-14,99,140,558,-160,1,0,16,52,960,0,53298,1
1,32968,31682,33636,25288,0,-4375,70,-714,356,-103,173,141,555,-167,1,0,16,53,0,1,53298,1
2,32108,30620,32761,25289,33536,-4362,87,-990,369,20,153,147,551,-163,1,0,16,53,40,1,53298,1
2,32165,30585,32755,25290,33547,-4461,151,-885,883,164,-12,143,551,-173,1,0,16,53,80,1,53298,1
2,32112,33399,32711,25291,33559,-4438,161,-724,911,288,-163,141,549,-159,1,0,16,53,120,1,53298,1
2,32581,33778,33096,25292,33571,-4399,87,-863,440,374,-210,132,550,-166,1,0,16,53,160,1,53298,1
2,32431,34511,33010,25293,33582,-4399,58,-1003,163,412,-193,134,548,-170,1,0,16,53,200,1,53298,1
2,32624,31773,33255,25294,33594,-4384,57,-962,428,324,-104,148,554,-176,1,0,16,53,240,1,53298,1
2,32778,35629,33361,25295,33605,-4390,79,-921,569,237,-33,149,553,-177,1,0,16,53,280,1,53298,1
2,33126,36521,33743,25296,33617,-4414,93,-908,403,181,-3,138,552,-164,1,0,16,53,320,1,53298,1
2,33001,36429,33636,25297,33628,-4410,88,-930,232,126,-15,137,555,-169,1,0,16,53,360,1,53298,1
2,32955,31131,33540,25298,33640,-4426,69,-917,163,112,-65,138,554,-158,1,0,16,53,400,1,53298,1
2,32993,31124,33625,25299,33652,-4405,67,-920,170,105,-68,147,549,-167,1,0,16,53,440,1,53298,1
2,32861,31839,33452,25300,33665,-4413,80,-944,153,136,-71,147,553,-169,1,0,16,53,480,1,53298,1
2,32884,36076,33518,25301,33676,-4415,67,-917,199,116,-57,143,553,-171,1,0,16,53,520,1,53298,1
2,32820,35665,33402,25302,33689,-4394,65,-928,173,103,-46,144,546,-168,1,0,16,53,560,1,53298,1
2,32678,35885,33316,25303,33701,-4404,65,-957,141,106,-50,136,556,-164,1,0,16,53,600,1,53298,1
2,32651,34334,33234,25304,33713,-4405,70,-951,125,91,-61,144,548,-172,1,0,16,53,640,1,53298,1
2,32595,35135,33177,25305,33725,-4424,56,-933,110,83,-94,140,550,-170,1,0,16,53,680,1,53298,1
2,32551,34537,33160,25306,33737,-4416,62,-931,154,95,-114,140,542,-164,1,0,16,53,720,1,53298,1
2,32437,33469,33031,25307,33749,-4411,40,-937,137,132,-116,141,555,-161,1,0,16,53,760,1,53298,1
2,32392,32831,33001,25308,33762,-4411,46,-950,107,157,-113,136,552,-174,1,0,16,53,800,1,53298,1
2,32340,32861,32936,25309,33774,-4411,44,-958,116,140,-63,143,549,-165,1,0,16,53,840,1,53298,1
2,32246,32618,32826,25310,33786,-4394,48,-971,98,116,-18,143,555,-175,1,0,16,53,880,1,53298,1
2,32206,32354,32796,25311,33798,-4396,49,-962,93,77,7,147,549,-171,1,0,16,53,920,1,53298,1
2,32188,32485,32766,25312,33810,-4393,48,-983,50,51,12,142,544,-160,1,0,16,53,960,1,53298,1
1,32184,32217,32768,25313,0,-4405,46,-967,24,27,6,140,550,-168,1,0,16,54,0,0,53298,1
2,32205,31066,32785,25314,33061,-4394,55,-964,-27,18,-22,141,551,-167,1,0,16,54,40,0,53298,1
2,32170,32075,32754,25315,33074,-4393,51,-993,-104,46,-60,150,552,-172,1,0,16,54,80,0,53298,1
2,32130,32801,32712,25316,33086,-4408,34,-971,-112,71,-61,133,541,-167,1,0,16,54,120,0,53298,1
2,32170,34802,32743,25317,33099,-4406,46,-936,105,50,-22,146,554,-174,1,0,16,54,160,0,53298,1
2,32348,35522,32968,25318,33111,-4393,47,-981,36,54,-18,149,559,-177,1,0,16,54,200,0,53298,1
2,32370,35562,32969,25319,33124,-4396,22,-983,-23,69,0,150,550,-170,1,0,16,54,240,0,53298,1
2,32357,35373,32878,25320,33137,-4393,42,-975,41,29,24,151,551,-175,1,0,16,54,280,0,53298,1
2,32085,32759,32676,25321,33150,-4404,34,-973,91,7,13,131,553,-173,1,0,16,54,320,0,53298,1
2,32145,31302,32726,25322,33163,-4394,37,-976,21,1,-4,149,553,-179,1,0,16,54,360,0,53298,1
2,32181,30798,32772,25323,33175,-4405,36,-972,-35,1,-7,144,554,-172,1,0,16,54,400,0,53298,1
2,32168,31045,32759,25324,33188,-4409,26,-971,11,-10,-7,146,550,-180,1,0,16,54,440,0,53298,1
2,32137,31976,32737,25325,33201,-4406,38,-967,17,-2,4,147,549,-171,1,0,16,54,480,0,53298,1
2,32120,32536,32720,25326,33213,-4403,38,-965,-43,7,11,139,551,-173,1,0,16,54,520,0,53298,1
2,32127,32119,32730,25327,33226,-4409,34,-970,-30,5,25,138,546,-170,1,0,16,54,560,0,53298,1
2,32137,32357,32726,25328,33239,-4416,31,-975,36,9,37,148,552,-170,1,0,16,54,600,0,53298,1
2,32141,32912,32746,25329,33251,-4403,51,-965,5,4,37,144,550,-170,1,0,16,54,640,0,53298,1
2,32193,31045,32800,25330,33263,-4406,35,-982,-24,3,26,141,555,-165,1,0,16,54,680,0,53298,1
2,32136,33302,32725,25331,33276,-4405,32,-966,36,-24,23,143,543,-173,1,0,16,54,720,0,53298,1
2,32137,33377,32729,25332,33288,-4406,47,-972,17,-15,18,139,551,-179,1,0,16,54,760,0,53298,1
2,32114,33586,32712,25333,33299,-4396,45,-965,-7,-8,17,149,553,-175,1,0,16,54,800,0,53298,1
2,32119,33249,32725,25334,33312,-4397,33,-963,7,0,12,146,548,-178,1,0,16,54,840,0,53298,1
2,32209,35063,32813,25335,33324,-4399,55,-959,27,21,0,141,557,-171,1,0,16,54,880,0,53298,1
2,32160,34650,32773,25336,33336,-4399,28,-967,8,28,3,142,548,-172,1,0,16,54,920,0,53298,1
2,32120,33639,32721,25337,33348,-4407,25,-969,8,26,9,144,560,-174,1,0,16,54,960,0,53298,1
1,32140,32534,32738,25338,0,-4395,32,-992,19,13,28,143,551,-177,1,0,16,55,0,0,53298,1
2,32137,33757,32738,25339,32587,-4411,36,-979,6,2,30,143,545,-171,1,0,16,55,40,0,53298,1
2,32137,33262,32725,25340,32599,-4395,45,-984,-23,-8,24,147,555,-167,1,0,16,55,80,0,53298,1
2,32149,34335,32766,25341,32611,-4405,36,-982,-41,-24,21,146,548,-180,1,0,16,55,120,0,53298,1
2,32131,34468,32730,25342,32624,-4415,34,-968,15,-28,35,148,548,-176,1,0,16,55,160,0,53298,1
2,32148,35092,32760,25343,32636,-4395,44,-959,12,-22,54,144,550,-180,1,0,16,55,200,0,53298,1
2,32196,35123,32761,25344,32648,-4397,27,-976,-39,-5,44,141,557,-171,1,0,16,55,240,0,53298,1
2,32240,35329,32796,25345,32661,-4418,31,-980,19,0,32,146,548,-172,1,0,16,55,280,0,53298,1
2,32212,35347,32798,25346,32673,-4397,45,-970,35,1,5,149,553,-181,1,0,16,55,320,0,53298,1
2,32175,35184,32781,25347,32684,-4395,32,-973,-5,5,-28,145,545,-173,1,0,16,55,360,0,53298,1
2,32134,34019,32734,25348,32696,-4415,21,-980,-14,-1,-11,133,553,-179,1,0,16,55,400,0,53298,1
2,32113,33147,32707,25349,32708,-4400,31,-978,35,-16,13,146,554,-170,1,0,16,55,440,0,53298,1
2,32124,33025,32700,25350,32720,-4404,29,-981,33,1,17,143,555,-175,1,0,16,55,480,0,53298,1
2,32114,33185,32702,25351,32732,-4415,20,-975,-1,22,14,146,556,-166,1,0,16,55,520,0,53298,1
2,32131,33581,32724,25352,32744,-4398,33,-983,24,16,14,147,555,-171,1,0,16,55,560,0,53298,1
2,32135,34215,32710,25353,32756,-4402,34,-994,24,10,8,141,549,-175,1,0,16,55,600,0,53298,1
2,32124,33110,32718,25354,32768,-4397,28,-978,0,-2,9,134,548,-164,1,0,16,55,640,0,53298,1
2,32145,32078,32720,25355,32780,-4395,32,-970,-3,-12,22,146,544,-176,1,0,16,55,680,0,53298,1
2,32145,31928,32735,25356,32793,-4406,25,-978,9,-19,32,140,556,-168,1,0,16,55,720,0,53298,1
2,32145,31222,32752,25357,32806,-4392,40,-973,16,-15,35,140,560,-178,1,0,16,55,760,0,53298,1
2,32180,31166,32779,25358,32819,-4407,26,-965,0,-14,23,146,548,-164,1,0,16,55,800,0,53298,1
2,32144,31572,32737,25359,32831,-4414,23,-979,-5,-12,17,161,545,-169,1,0,16,55,840,0,53298,1
2,32155,31133,32744,25360,32844,-4413,26,-983,12,-13,20,147,549,-183,1,0,16,55,880,0,53298,1
2,32213,30654,32804,25361,32857,-4408,30,-977,9,3,16,142,556,-168,1,0,16,55,920,0,53298,1
2,32254,30597,32850,25362,32871,-4401,23,-987,5,-1,26,141,543,-171,1,0,16,55,960,0,53298,1
1,32248,30602,32843,25363,0,-4409,20,-980,8,1,28,145,553,-177,1,0,16,56,0,0,53298,1
2,32259,30636,32831,25364,32112,-4409,43,-973,10,-24,31,141,555,-171,1,0,16,56,40,0,53298,1
2,32233,30600,32821,25365,32124,-4397,37,-987,-6,-7,23,144,542,-168,1,0,16,56,80,0,53298,1
2,32110,32098,32711,25366,32137,-4412,29,-970,0,-13,18,149,551,-175,1,0,16,56,120,0,53298,1
2,32132,34598,32750,25367,32149,-4411,38,-971,25,-14,20,147,561,-173,1,0,16,56,160,0,53298,1
2,32166,34870,32755,25368,32162,-4416,26,-980,16,9,17,148,554,-174,1,0,16,56,200,0,53298,1
2,32159,34860,32751,25369,32174,-4405,17,-972,23,7,19,149,551,-165,1,0,16,56,240,0,53298,1
2,32160,35072,32761,25370,32185,-4406,33,-990,11,18,6,143,559,-173,1,0,16,56,280,0,53298,1
2,32146,35025,32735,25371,32197,-4409,22,-989,8,1,9,148,556,-170,1,0,16,56,320,0,53298,1
2,32114,34744,32728,25372,32209,-4407,25,-987,4,-18,22,137,551,-175,1,0,16,56,360,0,53298,1
2,32146,34695,32726,25373,32221,-4404,31,-981,7,-25,37,154,552,-170,1,0,16,56,400,0,53298,1
2,32116,34624,32718,25374,32233,-4409,40,-989,7,-16,33,144,560,-170,1,0,16,56,440,0,53298,1
2,32091,33875,32673,25375,32244,-4394,33,-990,-9,-20,31,144,548,-164,1,0,16,56,480,0,53298,1
2,32082,34131,32670,25376,32257,-4397,31,-985,4,-19,25,149,549,-173,1,0,16,56,520,0,53298,1
2,32090,33752,32696,25377,32269,-4407,32,-974,25,-9,22,148,552,-186,1,0,16,56,560,0,53298,1
2,32091,32975,32681,25378,32281,-4398,32,-982,-9,4,17,144,548,-172,1,0,16,56,600,0,53298,1
2,32114,31710,32688,25379,32294,-4406,29,-976,4,-2,21,147,561,-171,1,0,16,56,640,0,53298,1
2,32150,31126,32743,25380,32306,-4401,37,-976,20,-5,25,140,546,-168,1,0,16,56,680,0,53298,1
2,32155,31023,32736,25381,32318,-4405,29,-979,-9,-15,27,153,553,-169,1,0,16,56,720,0,53298,1
2,32163,30848,32747,25382,32330,-4388,42,-979,4,-12,24,144,564,-168,1,0,16,56,760,0,53298,1
2,32120,30870,32715,25383,32343,-4413,26,-966,16,-28,24,150,552,-170,1,0,16,56,800,0,53298,1
2,32136,30699,32723,25384,32355,-4392,38,-977,17,-23,38,148,550,-178,1,0,16,56,840,0,53298,1
2,32103,30713,32698,25385,32368,-4407,37,-965,-3,-14,36,149,555,-171,1,0,16,56,880,0,53298,1
2,32117,30770,32718,25386,32380,-4404,30,-974,-30,-33,57,144,554,-178,1,0,16,56,920,0,53298,1
2,32099,30929,32679,25387,32392,-4404,45,-1006,-40,-34,56,140,550,-174,1,0,16,56,960,0,53298,1
1,32152,30983,32732,25388,0,-4419,58,-970,-47,-44,129,138,556,-174,1,0,16,57,0,0,53298,1
2,32103,30910,32682,25389,31637,-4415,25,-966,-83,-92,235,143,557,-179,1,0,16,57,40,0,53298,1
2,32078,31826,32628,25390,31649,-4426,28,-955,-356,-158,450,139,555,-175,1,0,16,57,80,0,53298,1
2,32049,33025,32633,25391,31662,-4422,115,-969,-450,-167,492,142,558,-184,1,0,16,57,120,0,53298,1
2,32140,34916,32850,25392,31675,-4509,30,-932,-499,-84,293,143,543,-171,1,0,16,57,160,0,53298,1
2,32123,31882,32770,25393,31688,-4446,145,-898,-414,-188,198,143,547,-169,1,0,16,57,200,0,53298,1
2,32554,32058,33035,25394,31701,-4347,-29,-1001,-652,-225,107,148,552,-174,1,0,16,57,240,0,53298,1
2,32463,33496,33046,25395,31714,-4295,340,-1134,-685,-85,285,148,552,-182,1,0,16,57,280,0,53298,1
2,32350,30930,33054,25396,31728,-4207,688,-1307,-266,333,1068,142,560,-178,1,0,16,57,320,0,53298,1
2,32154,33143,32679,25397,31742,-4169,885,-1397,442,1109,2605,135,541,-169,1,0,16,57,360,0,53298,1
2,32179,35518,32651,25398,31756,-4239,941,-1341,462,2021,4206,124,552,-188,1,0,16,57,400,0,53298,1
2,32163,34452,32842,25399,31771,-4244,1020,-1309,246,2620,5504,116,568,-182,1,0,16,57,440,0,53298,1
2,32452,31040,32970,25400,31787,-4161,799,-1116,-188,2864,6271,94,552,-200,1,0,16,57,480,0,53298,1
2,32323,35497,32939,25401,31802,-4183,794,-1222,-675,2919,6936,80,544,-208,1,0,16,57,520,0,53298,1
2,32471,34093,32996,25402,31817,-4039,698,-1154,-269,2785,7221,61,533,-217,1,0,16,57,560,0,53298,1
2,33154,33245,33725,25403,31833,-4073,812,-1123,151,2628,7497,46,530,-220,1,0,16,57,600,0,53298,1
2,32945,33132,33642,25404,31848,-4023,945,-1306,-429,2583,7368,35,521,-219,1,0,16,57,640,0,53298,1
