sensorStatus,cap1,cap2,cap3,counter,microseconds_since_last_tick,accX,accY,accZ,gyroX,gyroY,gyroZ,magnetX,magnetY,magnetZ,day,hour,min,sec,msec,sync,battery_fuel,crc_good
1,30996,29844,31417,79714,17750,-4588,-523,-511,-3,-17,23,184,498,-168,1,0,53,10,40,0,53298,1
2,30998,29845,31413,79715,17761,-4574,-511,-507,-18,-18,35,182,488,-170,1,0,53,10,80,0,53298,1
2,31000,29844,31414,79716,17771,-4584,-520,-523,-17,-30,27,188,506,-166,1,0,53,10,120,0,53298,1
2,30999,29852,31417,79717,17782,-4593,-524,-520,-1,-22,22,182,492,-160,1,0,53,10,160,0,53298,1
2,31000,29866,31420,79718,17792,-4579,-521,-531,-3,-13,28,190,500,-160,1,0,53,10,200,0,53298,1
2,31004,29863,31420,79719,17802,-4581,-510,-499,-17,-13,27,188,498,-170,1,0,53,10,240,0,53298,1
2,31000,29858,31419,79720,17813,-4595,-536,-522,-11,-13,25,186,500,-162,1,0,53,10,280,0,53298,1
2,31000,29847,31416,79721,17823,-4582,-527,-519,-8,-17,26,187,493,-161,1,0,53,10,320,0,53298,1
2,31003,29850,31417,79722,17833,-4586,-511,-520,-15,-16,20,182,492,-168,1,0,53,10,360,0,53298,1
2,31000,29854,31419,79723,17843,-4589,-520,-515,-10,-8,22,188,498,-164,1,0,53,10,400,0,53298,1
2,31001,29853,31422,79724,17852,-4587,-525,-512,-5,-19,28,185,503,-163,1,0,53,10,440,0,53298,1
2,31000,29854,31423,79725,17863,-4584,-523,-511,-13,-14,35,184,494,-160,1,0,53,10,480,0,53298,1
2,31001,29865,31422,79726,17872,-4592,-521,-517,-11,-8,28,181,501,-155,1,0,53,10,520,0,53298,1
2,31001,29855,31418,79727,17881,-4584,-517,-526,-10,-12,22,190,504,-172,1,0,53,10,560,0,53298,1
2,31002,29851,31417,79728,17891,-4595,-520,-516,-9,-2,15,190,494,-160,1,0,53,10,600,0,53298,1
2,31000,29853,31421,79729,17900,-4578,-515,-524,-16,-19,17,188,500,-172,1,0,53,10,640,0,53298,1
2,30999,29847,31418,79730,17910,-4579,-522,-523,-18,-28,15,190,496,-168,1,0,53,10,680,0,53298,1
2,31000,29866,31420,79731,17919,-4577,-526,-508,-3,-27,27,185,499,-163,1,0,53,10,720,0,53298,1
2,31000,29855,31421,79732,17929,-4597,-535,-521,-14,-7,25,187,497,-157,1,0,53,10,760,0,53298,1
2,31002,29865,31423,79733,17939,-4579,-523,-501,-11,-14,27,192,504,-162,1,0,53,10,800,0,53298,1
2,31000,29858,31416,79734,17950,-4582,-522,-512,-1,-11,27,183,505,-151,1,0,53,10,840,0,53298,1
2,31000,29896,31424,79735,17959,-4595,-521,-504,-13,-9,15,186,498,-160,1,0,53,10,880,0,53298,1
2,31003,29896,31422,79736,17970,-4580,-527,-520,-12,-20,27,184,504,-158,1,0,53,10,920,0,53298,1
2,31000,29887,31418,79737,17980,-4586,-523,-528,-11,-7,31,185,501,-165,1,0,53,10,960,0,53298,1
1,31000,29888,31423,79738,0,-4585,-518,-526,-10,-9,19,187,501,-163,1,0,53,11,0,0,53298,1
2,31001,29905,31421,79739,17297,-4578,-520,-536,-13,-14,15,183,493,-171,1,0,53,11,40,0,53298,1
2,31005,29888,31421,79740,17308,-4586,-531,-517,-18,-9,17,192,506,-166,1,0,53,11,80,0,53298,1
2,31003,29884,31422,79741,17317,-4580,-518,-509,-8,-21,24,188,488,-164,1,0,53,11,120,0,53298,1
2,31003,29905,31418,79742,17327,-4585,-517,-507,-6,-16,37,189,499,-165,1,0,53,11,160,0,53298,1
2,31002,29911,31418,79743,17337,-4580,-516,-519,-8,-3,31,192,498,-164,1,0,53,11,200,0,53298,1
2,31005,29946,31421,79744,17348,-4590,-521,-532,-6,-9,26,186,496,-156,1,0,53,11,240,0,53298,1
2,31004,29950,31423,79745,17358,-4582,-520,-519,4,-25,26,179,501,-163,1,0,53,11,280,0,53298,1
2,31004,29949,31423,79746,17368,-4591,-529,-517,-15,-34,23,191,499,-165,1,0,53,11,320,0,53298,1
2,31001,29935,31421,79747,17377,-4595,-534,-513,-17,-32,29,185,501,-151,1,0,53,11,360,0,53298,1
2,31002,29938,31422,79748,17387,-4592,-525,-521,-8,-15,28,182,494,-160,1,0,53,11,400,0,53298,1
2,31003,29948,31417,79749,17398,-4589,-528,-518,-4,-6,24,185,501,-159,1,0,53,11,440,0,53298,1
2,31005,29945,31426,79750,17408,-4572,-507,-529,-10,3,24,186,502,-164,1,0,53,11,480,0,53298,1
2,31008,29967,31429,79751,17418,-4589,-515,-517,-1,-13,22,188,494,-164,1,0,53,11,520,0,53298,1
2,31007,29963,31429,79752,17428,-4595,-528,-527,-5,-21,21,174,496,-156,1,0,53,11,560,0,53298,1
2,31009,29985,31429,79753,17438,-4594,-522,-505,-12,-18,32,177,499,-155,1,0,53,11,600,0,53298,1
2,31004,29982,31426,79754,17448,-4588,-524,-531,-8,-11,26,179,505,-171,1,0,53,11,640,0,53298,1
2,31006,29987,31429,79755,17459,-4586,-523,-518,-20,-2,12,188,492,-164,1,0,53,11,680,0,53298,1
2,31005,29961,31425,79756,17468,-4589,-527,-513,-14,-11,8,194,498,-166,1,0,53,11,720,0,53298,1
2,31004,29963,31428,79757,17478,-4573,-508,-512,-21,-7,13,194,498,-164,1,0,53,11,760,0,53298,1
2,31006,29985,31424,79758,17488,-4597,-525,-525,-4,-16,27,174,498,-166,1,0,53,11,800,0,53298,1
2,31008,29981,31424,79759,17499,-4580,-526,-533,-8,-7,38,187,503,-159,1,0,53,11,840,0,53298,1
2,31005,29998,31423,79760,17510,-4576,-515,-516,-13,-14,41,186,498,-164,1,0,53,11,880,0,53298,1
2,31002,29985,31427,79761,17520,-4580,-521,-528,-9,-13,21,181,501,-169,1,0,53,11,920,0,53298,1
2,31006,29981,31424,79762,17530,-4592,-521,-523,-1,-23,11,181,507,-165,1,0,53,11,960,0,53298,1
1,31006,29998,31428,79763,0,-4581,-516,-526,-8,-24,19,192,494,-166,1,0,53,12,0,1,53298,1
2,31005,30005,31422,79764,16842,-4590,-514,-520,-12,-22,25,183,501,-153,1,0,53,12,40,1,53298,1
2,31004,29996,31429,79765,16853,-4583,-522,-503,-7,-16,22,191,497,-165,1,0,53,12,80,1,53298,1
2,31004,29963,31425,79766,16863,-4576,-504,-517,-12,-22,30,186,496,-154,1,0,53,12,120,1,53298,1
2,31005,29977,31423,79767,16874,-4585,-531,-511,-7,-11,20,184,494,-162,1,0,53,12,160,1,53298,1
2,31006,29983,31423,79768,16886,-4589,-527,-517,-2,-15,21,191,499,-169,1,0,53,12,200,1,53298,1
2,31005,30006,31424,79769,16896,-4576,-515,-527,-5,-17,27,191,507,-163,1,0,53,12,240,1,53298,1
2,31004,29989,31425,79770,16907,-4585,-529,-507,-14,-15,24,187,499,-161,1,0,53,12,280,1,53298,1
2,31008,29994,31425,79771,16917,-4590,-524,-523,-17,-14,21,188,500,-164,1,0,53,12,320,1,53298,1
2,31008,30009,31424,79772,16927,-4580,-513,-520,-13,-23,11,185,499,-157,1,0,53,12,360,1,53298,1
2,31005,30016,31427,79773,16937,-4580,-511,-519,-12,-29,20,185,495,-161,1,0,53,12,400,1,53298,1
2,31005,30008,31425,79774,16948,-4572,-506,-515,-6,-24,30,187,509,-167,1,0,53,12,440,1,53298,1
2,31004,30019,31426,79775,16957,-4585,-524,-520,0,-6,33,187,493,-163,1,0,53,12,480,1,53298,1
2,31002,30009,31424,79776,16967,-4591,-529,-524,-3,7,40,181,503,-161,1,0,53,12,520,1,53298,1
2,31005,30021,31427,79777,16977,-4578,-513,-511,-18,-6,33,187,505,-163,1,0,53,12,560,1,53298,1
2,31006,30004,31422,79778,16988,-4590,-523,-515,-7,-21,20,178,498,-160,1,0,53,12,600,1,53298,1
2,31004,30010,31424,79779,16998,-4579,-519,-502,-15,-28,19,183,499,-167,1,0,53,12,640,1,53298,1
2,31006,30036,31424,79780,17009,-4584,-522,-529,-7,-30,25,189,501,-155,1,0,53,12,680,1,53298,1
2,31005,30037,31425,79781,17020,-4589,-516,-512,-16,-38,32,195,495,-161,1,0,53,12,720,1,53298,1
2,31006,30030,31421,79782,17031,-4590,-530,-520,-11,-34,49,195,501,-165,1,0,53,12,760,1,53298,1
2,31004,30023,31420,79783,17042,-4597,-534,-520,-4,-32,52,191,493,-165,1,0,53,12,800,1,53298,1
2,31005,29991,31419,79784,17052,-4593,-524,-510,-7,-36,48,169,499,-155,1,0,53,12,840,1,53298,1
2,31004,29992,31421,79785,17064,-4583,-511,-521,-3,-38,44,187,503,-159,1,0,53,12,880,1,53298,1
2,31005,29984,31423,79786,17075,-4588,-518,-513,2,-39,40,197,497,-169,1,0,53,12,920,1,53298,1
2,31005,29998,31422,79787,17086,-4577,-510,-514,-19,-45,40,187,503,-157,1,0,53,12,960,1,53298,1
1,31001,29995,31421,79788,0,-4580,-517,-518,-4,-47,38,183,503,-153,1,0,53,13,0,1,53298,1
2,31003,29995,31425,79789,16389,-4594,-523,-527,-7,-30,23,184,504,-170,1,0,53,13,40,1,53298,1
2,31004,29980,31425,79790,16399,-4573,-508,-518,-27,-21,13,185,501,-163,1,0,53,13,80,1,53298,1
2,31002,29990,31417,79791,16409,-4583,-513,-522,-17,-14,10,184,488,-160,1,0,53,13,120,1,53298,1
2,31003,29996,31421,79792,16419,-4582,-509,-515,1,-14,16,185,501,-161,1,0,53,13,160,1,53298,1
2,31002,30011,31419,79793,16431,-4586,-520,-519,-15,-14,17,180,506,-156,1,0,53,13,200,1,53298,1
2,31005,30007,31421,79794,16441,-4592,-528,-505,-14,-18,19,176,504,-154,1,0,53,13,240,1,53298,1
2,31000,30006,31420,79795,16451,-4584,-513,-504,4,-25,27,181,501,-163,1,0,53,13,280,1,53298,1
2,31000,29997,31418,79796,16461,-4587,-528,-507,-14,-16,17,188,500,-166,1,0,53,13,320,1,53298,1
2,31004,29995,31422,79797,16472,-4587,-523,-522,-20,-13,16,189,503,-155,1,0,53,13,360,1,53298,1
2,31003,29995,31422,79798,16482,-4584,-513,-509,-5,-13,20,183,501,-167,1,0,53,13,400,1,53298,1
2,31001,30007,31420,79799,16491,-4591,-517,-502,-9,-13,21,185,503,-165,1,0,53,13,440,1,53298,1
2,31000,29995,31423,79800,16502,-4593,-517,-514,-8,-10,22,191,497,-163,1,0,53,13,480,1,53298,1
2,31001,30014,31423,79801,16512,-4580,-514,-517,-8,-24,26,182,498,-168,1,0,53,13,520,1,53298,1
2,30999,29993,31418,79802,16522,-4593,-522,-504,-3,-32,31,181,503,-167,1,0,53,13,560,1,53298,1
2,31001,29988,31422,79803,16533,-4578,-512,-521,-13,-24,29,184,504,-158,1,0,53,13,600,1,53298,1
2,31004,30003,31418,79804,16545,-4591,-513,-507,-16,-12,15,183,491,-165,1,0,53,13,640,1,53298,1
2,31002,30012,31422,79805,16556,-4579,-506,-501,-8,0,22,186,500,-160,1,0,53,13,680,1,53298,1
2,31004,30000,31419,79806,16566,-4577,-512,-509,-5,-8,23,191,499,-159,1,0,53,13,720,1,53298,1
2,31002,30004,31421,79807,16577,-4589,-524,-520,-16,-16,15,191,501,-167,1,0,53,13,760,1,53298,1
2,31001,30012,31420,79808,16587,-4585,-521,-514,-10,-29,24,183,503,-167,1,0,53,13,800,1,53298,1
2,31002,30013,31421,79809,16598,-4588,-517,-523,-6,-22,22,182,500,-162,1,0,53,13,840,1,53298,1
2,31000,30008,31420,79810,16608,-4596,-510,-510,-6,-4,19,181,495,-161,1,0,53,13,880,1,53298,1
2,31000,29991,31422,79811,16619,-4577,-523,-522,-7,5,23,185,507,-167,1,0,53,13,920,1,53298,1
2,31002,29987,31417,79812,16630,-4575,-516,-518,-18,-7,30,186,494,-168,1,0,53,13,960,1,53298,1
1,31000,30025,31420,79813,0,-4593,-527,-503,-5,-12,27,182,498,-160,1,0,53,14,0,0,53298,1
2,31000,30028,31420,79814,15935,-4577,-515,-516,-16,-24,26,187,501,-159,1,0,53,14,40,0,53298,1
2,31003,30032,31421,79815,15946,-4587,-522,-503,-17,-26,21,184,492,-166,1,0,53,14,80,0,53298,1
2,31000,30034,31420,79816,15957,-4591,-513,-516,-3,-18,30,188,504,-166,1,0,53,14,120,0,53298,1
2,31002,30036,31420,79817,15967,-4588,-515,-507,-11,-10,28,190,496,-154,1,0,53,14,160,0,53298,1
2,31004,30038,31423,79818,15977,-4580,-517,-520,-21,-5,27,188,492,-168,1,0,53,14,200,0,53298,1
2,30999,30021,31420,79819,15989,-4583,-527,-514,-4,-17,26,187,499,-165,1,0,53,14,240,0,53298,1
2,31003,30015,31425,79820,16000,-4570,-503,-496,-7,-28,23,181,493,-167,1,0,53,14,280,0,53298,1
2,31002,30001,31422,79821,16011,-4585,-510,-520,-12,-16,19,189,497,-159,1,0,53,14,320,0,53298,1
2,31002,30033,31421,79822,16022,-4586,-518,-509,-10,-11,22,189,497,-173,1,0,53,14,360,0,53298,1
2,30999,30033,31422,79823,16033,-4583,-516,-520,-10,-7,21,189,505,-165,1,0,53,14,400,0,53298,1
2,31000,30037,31416,79824,16044,-4575,-524,-514,-8,-2,19,186,508,-156,1,0,53,14,440,0,53298,1
2,31001,30033,31421,79825,16055,-4580,-519,-512,-6,-8,16,189,503,-165,1,0,53,14,480,0,53298,1
2,31004,30038,31425,79826,16068,-4592,-530,-519,-14,-11,14,190,496,-168,1,0,53,14,520,0,53298,1
2,31000,30032,31423,79827,16079,-4576,-515,-518,-7,-20,30,182,506,-170,1,0,53,14,560,0,53298,1
2,31001,30023,31417,79828,16091,-4586,-515,-498,4,-10,32,193,497,-161,1,0,53,14,600,0,53298,1
2,31000,30048,31419,79829,16103,-4593,-524,-505,-9,-3,27,188,490,-166,1,0,53,14,640,0,53298,1
2,30999,30051,31416,79830,16115,-4579,-525,-532,8,-10,38,193,503,-161,1,0,53,14,680,0,53298,1
2,31000,30059,31418,79831,16126,-4587,-501,-513,-21,-28,43,190,506,-160,1,0,53,14,720,0,53298,1
2,30996,30049,31415,79832,16138,-4615,-501,-555,-21,-108,54,187,503,-167,1,0,53,14,760,0,53298,1
2,30995,30040,31418,79833,16149,-4578,-524,-541,-125,-284,161,180,504,-152,1,0,53,14,800,0,53298,1
2,30992,30046,31413,79834,16159,-4671,-495,-617,-241,-541,366,193,499,-151,1,0,53,14,840,0,53298,1
2,30981,30041,31415,79835,16170,-4697,-497,-683,-699,-853,848,187,499,-159,1,0,53,14,880,0,53298,1
2,30969,30148,31413,79836,16182,-4602,-412,-623,-1169,-1127,1471,174,498,-164,1,0,53,14,920,0,53298,1
2,30939,29879,31406,79837,16193,-4540,46,-826,-1657,-1000,1962,178,500,-154,1,0,53,14,960,0,53298,1
1,30951,29989,31408,79838,0,-4323,350,-1251,-2896,-180,2867,171,501,-155,1,0,53,15,0,1,53298,1
2,30942,29827,31395,79839,15480,-4623,576,-1647,-4334,2209,3745,167,501,-159,1,0,53,15,40,1,53298,1
2,30945,29869,31396,79840,15491,-4417,712,-1423,-2918,4408,4860,161,507,-171,1,0,53,15,80,1,53298,1
2,30940,29885,31389,79841,15502,-4445,873,-1235,-1480,6456,6275,139,517,-179,1,0,53,15,120,1,53298,1
2,30930,29817,31377,79842,15512,-4248,914,-1078,-1458,7537,8026,111,517,-197,1,0,53,15,160,1,53298,1
2,30906,29824,31367,79843,15522,-4146,702,-1090,-1341,8214,9649,98,502,-226,1,0,53,15,200,1,53298,1
2,30893,29849,31364,79844,15533,-4579,659,-969,-759,8861,10622,62,500,-226,1,0,53,15,240,1,53298,1
2,30876,29837,31353,79845,15543,-4775,936,-1019,-1019,8656,10854,48,500,-244,1,0,53,15,280,1,53298,1
2,30856,30054,31333,79846,15554,-4694,1069,-966,-1627,7425,10619,31,473,-273,1,0,53,15,320,1,53298,1
2,30857,30266,31325,79847,15564,-4557,1045,-1007,-3234,6006,10136,15,463,-273,1,0,53,15,360,1,53298,1
2,30840,30208,31305,79848,15574,-4214,1279,-1349,-4210,4759,9570,3,437,-291,1,0,53,15,400,1,53298,1
2,30858,29881,31318,79849,15585,-3877,1082,-1323,-3511,3763,9143,-13,427,-285,1,0,53,15,440,1,53298,1
2,30856,29838,31311,79850,15596,-3721,1107,-1320,-1253,3044,7951,-10,422,-282,1,0,53,15,480,1,53298,1
2,30863,29875,31319,79851,15607,-3264,1357,-1399,-949,2390,7351,-23,409,-279,1,0,53,15,520,1,53298,1
2,30862,30031,31317,79852,15619,-3408,1298,-1601,-2564,2147,6668,-24,400,-296,1,0,53,15,560,1,53298,1
2,30859,30050,31304,79853,15630,-3210,1492,-1633,-1353,1808,4958,-31,377,-305,1,0,53,15,600,1,53298,1
2,30849,30054,31293,79854,15642,-3066,1723,-1877,-972,1747,3869,-41,387,-287,1,0,53,15,640,1,53298,1
2,30841,30039,31286,79855,15654,-3056,1764,-1786,-229,2144,3546,-45,381,-299,1,0,53,15,680,1,53298,1
2,30835,29915,31265,79856,15666,-2975,2341,-1913,712,2417,2977,-35,371,-309,1,0,53,15,720,1,53298,1
2,30817,29799,31242,79857,15677,-2932,2454,-1729,2368,2643,3104,-32,362,-318,1,0,53,15,760,1,53298,1
2,30816,29845,31229,79858,15689,-2880,2344,-1529,2583,2170,3253,-39,357,-323,1,0,53,15,800,1,53298,1
2,30818,29850,31226,79859,15701,-2665,2046,-1389,6,1039,2848,-30,354,-312,1,0,53,15,840,1,53298,1
2,30825,29860,31220,79860,15714,-2515,1963,-1651,-3976,994,2837,-36,352,-304,1,0,53,15,880,1,53298,1
2,30825,29843,31227,79861,15726,-2539,1791,-1722,-3029,1853,2751,-44,354,-306,1,0,53,15,920,1,53298,1
2,30830,29843,31231,79862,15738,-2508,1757,-1545,14,1791,1825,-39,337,-305,1,0,53,15,960,1,53298,1
1,30820,29839,31233,79863,0,-2359,2605,-1711,1496,1221,1105,-36,344,-312,1,0,53,16,0,1,53298,1
2,30824,29859,31234,79864,15027,-2459,2141,-1406,1002,934,1442,-38,346,-308,1,0,53,16,40,1,53298,1
2,30824,29883,31235,79865,15038,-2409,2277,-1792,-852,376,469,-41,337,-309,1,0,53,16,80,1,53298,1
2,30824,29887,31234,79866,15049,-2398,1970,-1568,194,-355,-134,-35,341,-315,1,0,53,16,120,1,53298,1
2,30822,29905,31230,79867,15059,-2390,2119,-1741,379,-641,-452,-27,345,-307,1,0,53,16,160,1,53298,1
2,30822,29920,31231,79868,15070,-2474,2320,-1725,487,-826,-939,-49,339,-303,1,0,53,16,200,1,53298,1
2,30820,29907,31231,79869,15081,-2480,2506,-1765,217,-1331,-1198,-34,346,-308,1,0,53,16,240,1,53298,1
2,30822,29932,31227,79870,15093,-2512,2491,-1815,-947,-1398,-907,-35,351,-309,1,0,53,16,280,1,53298,1
2,30822,29908,31222,79871,15104,-2557,2610,-1905,-816,-1131,-587,-37,349,-311,1,0,53,16,320,1,53298,1
2,30822,29915,31217,79872,15116,-2581,2363,-1839,-183,-1068,-247,-44,342,-308,1,0,53,16,360,1,53298,1
2,30817,29917,31219,79873,15129,-2548,2428,-1912,-133,-862,-125,-43,349,-305,1,0,53,16,400,1,53298,1
2,30819,29913,31215,79874,15140,-2560,2297,-1833,601,-443,147,-37,347,-307,1,0,53,16,440,1,53298,1
2,30817,29877,31220,79875,15154,-2558,2377,-1818,629,-214,108,-39,347,-313,1,0,53,16,480,1,53298,1
2,30816,29883,31217,79876,15166,-2540,2341,-1774,464,-254,140,-40,346,-306,1,0,53,16,520,1,53298,1
2,30818,29918,31215,79877,15178,-2541,2313,-1731,-34,-314,196,-39,345,-295,1,0,53,16,560,1,53298,1
2,30821,29940,31216,79878,15191,-2529,2326,-1774,-215,-420,149,-43,345,-307,1,0,53,16,600,1,53298,1
2,30824,29983,31216,79879,15203,-2545,2268,-1780,-194,-471,169,-41,353,-307,1,0,53,16,640,1,53298,1
2,30825,30015,31220,79880,15215,-2549,2223,-1758,-176,-403,60,-41,345,-307,1,0,53,16,680,1,53298,1
2,30826,30045,31221,79881,15227,-2556,2276,-1747,69,-329,-116,-41,353,-299,1,0,53,16,720,1,53298,1
2,30824,30064,31217,79882,15240,-2572,2245,-1729,197,-357,-203,-38,344,-298,1,0,53,16,760,1,53298,1
2,30825,30080,31219,79883,15252,-2568,2322,-1763,-130,-433,-341,-43,347,-303,1,0,53,16,800,1,53298,1
2,30825,30132,31218,79884,15264,-2593,2277,-1737,-162,-544,-415,-34,348,-304,1,0,53,16,840,1,53298,1
2,30830,30173,31219,79885,15276,-2608,2252,-1706,-309,-610,-515,-38,348,-306,1,0,53,16,880,1,53298,1
2,30829,30171,31217,79886,15288,-2610,2255,-1688,-504,-635,-636,-42,358,-300,1,0,53,16,920,1,53298,1
2,30831,30181,31219,79887,15300,-2654,2145,-1657,-527,-654,-767,-29,357,-301,1,0,53,16,960,1,53298,1
1,30831,30221,31222,79888,0,-2657,2068,-1582,-476,-676,-1041,-31,351,-293,1,0,53,17,0,0,53298,1
2,30833,30217,31220,79889,14574,-2693,2234,-1573,-278,-795,-1403,-31,365,-301,1,0,53,17,40,0,53298,1
2,30829,30213,31216,79890,14586,-2737,2092,-1493,-155,-1043,-1649,-40,366,-296,1,0,53,17,80,0,53298,1
2,30834,30210,31222,79891,14599,-2760,2355,-1606,-535,-1202,-1841,-36,370,-290,1,0,53,17,120,0,53298,1
2,30835,30234,31221,79892,14612,-2822,2360,-1592,-795,-1378,-1758,-35,373,-285,1,0,53,17,160,0,53298,1
2,30834,30222,31217,79893,14625,-2867,2499,-1724,-698,-1312,-1413,-31,375,-285,1,0,53,17,200,0,53298,1
2,30840,30245,31215,79894,14638,-2902,2441,-1700,-743,-1074,-925,-29,369,-287,1,0,53,17,240,0,53298,1
2,30841,30257,31218,79895,14651,-2902,2616,-1770,-740,-614,-467,-35,375,-291,1,0,53,17,280,0,53298,1
2,30839,30244,31222,79896,14664,-2905,2414,-1690,-161,-130,286,-37,365,-293,1,0,53,17,320,0,53298,1
2,30834,30245,31225,79897,14677,-2901,2461,-1680,125,483,711,-36,380,-284,1,0,53,17,360,0,53298,1
2,30834,30252,31222,79898,14690,-2857,2291,-1550,528,680,1009,-35,365,-285,1,0,53,17,400,0,53298,1
2,30835,30266,31223,79899,14702,-2827,2209,-1522,290,795,1170,-30,372,-296,1,0,53,17,440,0,53298,1
2,30831,30273,31223,79900,14714,-2783,2136,-1494,342,693,1046,-36,366,-290,1,0,53,17,480,0,53298,1
2,30830,30288,31227,79901,14725,-2761,2075,-1459,136,515,790,-34,362,-298,1,0,53,17,520,0,53298,1
2,30834,30288,31225,79902,14736,-2755,1935,-1406,102,241,339,-40,352,-292,1,0,53,17,560,0,53298,1
2,30831,30287,31227,79903,14748,-2760,2087,-1460,135,-127,-174,-36,372,-292,1,0,53,17,600,0,53298,1
2,30834,30287,31225,79904,14760,-2780,2185,-1481,-156,-445,-484,-30,362,-296,1,0,53,17,640,0,53298,1
2,30836,30291,31225,79905,14771,-2796,2398,-1624,-500,-566,-696,-35,359,-283,1,0,53,17,680,0,53298,1
2,30839,30297,31224,79906,14783,-2817,2406,-1626,-462,-661,-520,-35,363,-293,1,0,53,17,720,0,53298,1
2,30836,30300,31224,79907,14796,-2853,2426,-1727,-549,-287,-132,-35,369,-293,1,0,53,17,760,0,53298,1
2,30835,30293,31222,79908,14808,-2861,2381,-1619,-60,31,122,-38,372,-290,1,0,53,17,800,0,53298,1
2,30835,30296,31226,79909,14820,-2836,2264,-1581,279,261,417,-35,359,-293,1,0,53,17,840,0,53298,1
2,30833,30284,31225,79910,14831,-2814,2263,-1509,402,381,463,-26,366,-286,1,0,53,17,880,0,53298,1
2,30833,30282,31225,79911,14843,-2795,2148,-1445,280,265,359,-38,364,-296,1,0,53,17,920,0,53298,1
2,30830,30286,31225,79912,14854,-2798,2075,-1444,-46,90,134,-34,368,-286,1,0,53,17,960,0,53298,1
1,30836,30282,31229,79913,0,-2742,2138,-1436,2,-182,-197,-44,370,-288,1,0,53,18,0,1,53298,1
2,30835,30294,31225,79914,14120,-2769,2180,-1477,-54,-389,-423,-27,367,-293,1,0,53,18,40,1,53298,1
2,30835,30290,31228,79915,14132,-2824,2259,-1549,-219,-459,-585,-37,365,-291,1,0,53,18,80,1,53298,1
2,30838,30289,31229,79916,14143,-2822,2331,-1570,-168,-567,-645,-37,373,-289,1,0,53,18,120,1,53298,1
2,30840,30286,31227,79917,14155,-2879,2288,-1613,-359,-410,-445,-40,370,-284,1,0,53,18,160,1,53298,1
2,30839,30290,31232,79918,14166,-2898,2314,-1588,-64,-244,-367,-35,369,-293,1,0,53,18,200,1,53298,1
2,30837,30288,31228,79919,14177,-2881,2118,-1477,142,-172,-276,-38,374,-290,1,0,53,18,240,1,53298,1
2,30843,30295,31237,79920,14188,-2901,1903,-1397,264,-92,-457,-37,377,-291,1,0,53,18,280,1,53298,1
2,30840,30296,31234,79921,14199,-2899,1694,-1256,548,-374,-1164,-44,360,-288,1,0,53,18,320,1,53298,1
2,30840,30289,31235,79922,14210,-2908,1644,-1173,556,-885,-2088,-34,380,-286,1,0,53,18,360,1,53298,1
2,30840,30290,31236,79923,14220,-2969,2067,-1268,373,-1613,-2955,-27,389,-295,1,0,53,18,400,1,53298,1
2,30849,30290,31237,79924,14231,-3092,2029,-1285,-591,-2437,-3388,-30,388,-274,1,0,53,18,440,1,53298,1
2,30851,30283,31235,79925,14242,-3163,2143,-1487,-1827,-2609,-3546,-19,395,-279,1,0,53,18,480,1,53298,1
2,30853,30278,31237,79926,14253,-3257,2131,-1511,-1787,-2510,-3501,-34,396,-266,1,0,53,18,520,1,53298,1
2,30859,30291,31239,79927,14264,-3340,1759,-1420,-714,-2052,-3355,-19,405,-271,1,0,53,18,560,1,53298,1
2,30856,30289,31245,79928,14274,-3476,1323,-1257,923,-1490,-3591,-15,415,-267,1,0,53,18,600,1,53298,1
2,30856,30292,31255,79929,14284,-3625,687,-1045,2080,-1440,-4885,-10,422,-264,1,0,53,18,640,1,53298,1
2,30852,30292,31260,79930,14294,-3677,1377,-1497,3095,-1519,-6735,-7,437,-257,1,0,53,18,680,1,53298,1
2,30851,30296,31268,79931,14304,-3914,1751,-1535,6065,-2032,-7512,4,450,-266,1,0,53,18,720,1,53298,1
2,30857,30298,31273,79932,14314,-4075,1895,-1569,5186,-2504,-7493,15,463,-265,1,0,53,18,760,1,53298,1
2,30864,30303,31282,79933,14325,-4141,1735,-1771,1548,-2425,-6796,31,467,-261,1,0,53,18,800,1,53298,1
2,30880,30302,31287,79934,14336,-4097,523,-1516,209,-1399,-5961,35,483,-251,1,0,53,18,840,1,53298,1
2,30888,30294,31295,79935,14347,-4587,601,-1611,1572,31,-6843,59,487,-257,1,0,53,18,880,1,53298,1
2,30884,30276,31300,79936,14357,-4498,1026,-1622,3803,81,-8079,62,508,-260,1,0,53,18,920,1,53298,1
2,30881,30280,31306,79937,14367,-4249,942,-1250,7661,-734,-8099,79,517,-265,1,0,53,18,960,1,53298,1
1,30887,30259,31310,79938,0,-4104,1122,-1045,5278,-1300,-7214,96,512,-260,1,0,53,19,0,1,53298,1
2,30900,30224,31315,79939,13667,-4088,711,-1081,1490,-1830,-6049,114,532,-254,1,0,53,19,40,1,53298,1
2,30914,30202,31321,79940,13677,-4105,624,-1270,-1472,-2140,-5231,115,517,-253,1,0,53,19,80,1,53298,1
2,30927,30130,31329,79941,13689,-4311,108,-1192,-1391,-2371,-4603,129,529,-251,1,0,53,19,120,1,53298,1
2,30930,30050,31334,79942,13700,-4672,-270,-1245,-1198,-2561,-4683,142,532,-238,1,0,53,19,160,1,53298,1
2,30929,29937,31337,79943,13711,-4660,-336,-1403,170,-2724,-5333,167,523,-227,1,0,53,19,200,1,53298,1
2,30933,29849,31340,79944,13722,-4521,-795,-1341,1815,-2426,-5872,182,526,-234,1,0,53,19,240,1,53298,1
2,30945,29882,31352,79945,13733,-4441,-925,-1303,2900,-1796,-6572,190,522,-230,1,0,53,19,280,1,53298,1
2,30945,30405,31365,79946,13744,-4327,-807,-1357,3649,-1056,-7182,212,538,-226,1,0,53,19,320,1,53298,1
2,30950,30363,31387,79947,13754,-4284,-766,-1045,4646,-748,-7441,232,534,-224,1,0,53,19,360,1,53298,1
2,30966,30451,31392,79948,13764,-4219,-480,-829,4363,-1196,-7315,261,529,-219,1,0,53,19,400,1,53298,1
2,30967,30617,31404,79949,13774,-4406,-299,-701,3721,-1954,-6513,265,529,-215,1,0,53,19,440,1,53298,1
2,30970,30570,31411,79950,13785,-4459,-688,-765,2454,-3142,-5519,284,532,-210,1,0,53,19,480,1,53298,1
2,30965,30577,31416,79951,13795,-4412,-869,-945,1994,-3697,-4729,304,514,-202,1,0,53,19,520,1,53298,1
2,30952,30407,31420,79952,13806,-4269,-1142,-881,2218,-3729,-4199,312,514,-198,1,0,53,19,560,1,53298,1
2,30961,30529,31428,79953,13818,-4353,-1054,-1023,1926,-3610,-3753,321,517,-189,1,0,53,19,600,1,53298,1
2,30958,30207,31427,79954,13829,-4381,-771,-835,1571,-3042,-3259,328,502,-182,1,0,53,19,640,1,53298,1
2,30970,30342,31441,79955,13842,-4597,-924,-355,-1256,-2790,-2078,333,509,-185,1,0,53,19,680,1,53298,1
2,30983,29887,31447,79956,13854,-5349,-354,-1472,-7013,-3025,-758,341,505,-179,1,0,53,19,720,1,53298,1
2,31020,30439,31440,79957,13865,-5079,-1951,-1038,-7381,-2644,101,336,504,-182,1,0,53,19,760,1,53298,1
2,31024,30474,31451,79958,13876,-4452,-2262,-1074,-5514,-1748,-325,342,498,-186,1,0,53,19,800,1,53298,1
2,31032,30049,31460,79959,13886,-4382,-1617,-916,-1113,-377,-648,341,505,-177,1,0,53,19,840,1,53298,1
2,31033,30103,31438,79960,13898,-4598,-1564,-448,407,117,-397,331,501,-181,1,0,53,19,880,1,53298,1
2,31027,29913,31456,79961,13908,-4692,-1502,-457,619,32,-140,334,506,-180,1,0,53,19,920,1,53298,1
2,31015,33529,31436,79962,13919,-4488,-1555,-486,323,-72,-122,338,496,-176,1,0,53,19,960,1,53298,1
1,31033,29906,31459,79963,0,-4494,-1609,-534,-11,18,-126,343,505,-179,1,0,53,20,0,1,53298,1
2,31017,32241,31427,79964,13214,-4541,-1603,-564,232,177,-137,339,509,-179,1,0,53,20,40,1,53298,1
2,31027,33916,31449,79965,13223,-4520,-1558,-493,411,198,-239,335,501,-179,1,0,53,20,80,1,53298,1
2,31005,32946,31423,79966,13234,-4514,-1601,-510,126,164,-269,342,500,-184,1,0,53,20,120,1,53298,1
2,31010,31439,31428,79967,13243,-4503,-1614,-541,-131,102,-210,341,501,-181,1,0,53,20,160,1,53298,1
2,31030,29845,31450,79968,13253,-4511,-1631,-564,-73,-43,-72,338,498,-178,1,0,53,20,200,1,53298,1
2,31041,29919,31456,79969,13263,-4536,-1595,-516,77,-243,66,334,508,-178,1,0,53,20,240,1,53298,1
2,31036,29840,31456,79970,13273,-4571,-1471,-391,-277,-511,77,339,493,-175,1,0,53,20,280,1,53298,1
2,31016,31351,31432,79971,13282,-4645,-1441,-612,-2657,-849,-392,344,508,-188,1,0,53,20,320,1,53298,1
2,31006,33067,31433,79972,13291,-4660,-1506,-240,-3846,-1248,-462,334,502,-192,1,0,53,20,360,1,53298,1
2,31002,33421,31429,79973,13300,-4619,-1427,-168,-4654,-2183,-114,342,498,-182,1,0,53,20,400,1,53298,1
2,31008,33558,31430,79974,13310,-4381,-1561,-370,-4619,-2646,284,343,497,-179,1,0,53,20,440,1,53298,1
2,31019,33648,31431,79975,13321,-4362,-1858,-847,-4327,-2227,299,339,497,-187,1,0,53,20,480,1,53298,1
2,31021,33700,31436,79976,13332,-4322,-1903,-807,-2085,-987,108,339,489,-179,1,0,53,20,520,1,53298,1
2,31026,33721,31443,79977,13342,-4408,-1623,-374,709,-6,99,333,485,-185,1,0,53,20,560,1,53298,1
2,31030,33754,31446,79978,13353,-4523,-1579,-358,1572,256,285,341,491,-173,1,0,53,20,600,1,53298,1
2,31033,33740,31450,79979,13364,-4645,-1463,-326,1257,183,283,337,497,-191,1,0,53,20,640,1,53298,1
2,31030,33720,31446,79980,13375,-4607,-1560,-384,561,44,214,341,491,-173,1,0,53,20,680,1,53298,1
2,31036,33785,31449,79981,13385,-4507,-1570,-418,542,-22,111,337,499,-175,1,0,53,20,720,1,53298,1
2,31039,33754,31450,79982,13395,-4533,-1554,-378,613,84,152,336,498,-170,1,0,53,20,760,1,53298,1
2,31040,33770,31450,79983,13406,-4551,-1539,-357,549,129,149,333,501,-177,1,0,53,20,800,1,53298,1
2,31041,33755,31450,79984,13417,-4517,-1626,-426,384,266,272,339,495,-179,1,0,53,20,840,1,53298,1
2,31040,33778,31448,79985,13427,-4546,-1526,-397,836,393,379,336,498,-174,1,0,53,20,880,1,53298,1
2,31041,33701,31445,79986,13438,-4551,-1502,-365,1021,451,320,335,497,-177,1,0,53,20,920,1,53298,1
2,31029,33219,31424,79987,13448,-4564,-1471,-375,773,469,116,340,494,-176,1,0,53,20,960,1,53298,1
1,31022,32751,31422,79988,0,-4532,-1523,-388,343,511,-78,335,493,-187,1,0,53,21,0,1,53298,1
2,31022,32741,31422,79989,12760,-4520,-1550,-432,174,569,-122,330,500,-176,1,0,53,21,40,1,53298,1
2,31023,32186,31420,79990,12771,-4544,-1548,-455,238,564,-83,338,494,-180,1,0,53,21,80,1,53298,1
2,31023,31353,31423,79991,12781,-4533,-1529,-453,289,477,-71,335,495,-187,1,0,53,21,120,1,53298,1
2,31026,31022,31428,79992,12792,-4525,-1555,-466,193,346,-55,328,502,-178,1,0,53,21,160,1,53298,1
2,31033,30289,31429,79993,12802,-4535,-1549,-478,53,192,-31,339,503,-181,1,0,53,21,200,1,53298,1
2,31030,30489,31432,79994,12814,-4527,-1550,-464,53,79,5,334,502,-176,1,0,53,21,240,1,53298,1
2,31029,30597,31429,79995,12825,-4523,-1542,-470,90,10,33,334,500,-186,1,0,53,21,280,1,53298,1
2,31038,29948,31440,79996,12835,-4511,-1532,-460,68,16,57,339,505,-183,1,0,53,21,320,1,53298,1
2,31037,30075,31432,79997,12844,-4517,-1552,-452,41,71,42,325,505,-193,1,0,53,21,360,1,53298,1
2,31033,30125,31432,79998,12855,-4539,-1553,-464,33,101,22,339,507,-185,1,0,53,21,400,1,53298,1
2,31041,29911,31434,79999,12865,-4529,-1538,-473,23,99,1,329,499,-177,1,0,53,21,440,1,53298,1
2,31043,29842,31442,80000,12876,-4525,-1551,-481,13,70,-6,331,497,-187,1,0,53,21,480,1,53298,1
2,31045,29856,31441,80001,12887,-4519,-1546,-480,8,24,-2,336,502,-176,1,0,53,21,520,1,53298,1
2,31046,29834,31441,80002,12897,-4531,-1548,-472,13,-4,23,331,497,-183,1,0,53,21,560,1,53298,1
2,31048,29906,31446,80003,12908,-4528,-1543,-466,15,-22,36,329,501,-179,1,0,53,21,600,1,53298,1
2,31052,29955,31446,80004,12919,-4522,-1544,-462,2,-15,33,339,497,-189,1,0,53,21,640,1,53298,1
2,31050,30028,31450,80005,12930,-4534,-1566,-462,-3,-2,36,334,498,-186,1,0,53,21,680,1,53298,1
2,31053,30103,31454,80006,12941,-4534,-1544,-459,8,-4,30,328,494,-190,1,0,53,21,720,1,53298,1
2,31057,30199,31456,80007,12951,-4515,-1538,-478,-3,-11,29,333,495,-185,1,0,53,21,760,1,53298,1
2,31061,30288,31459,80008,12963,-4532,-1550,-449,-6,8,28,333,501,-181,1,0,53,21,800,1,53298,1
2,31060,30324,31455,80009,12973,-4534,-1549,-474,2,10,13,332,504,-182,1,0,53,21,840,1,53298,1
2,31058,30366,31457,80010,12985,-4524,-1549,-475,-10,19,3,338,498,-190,1,0,53,21,880,1,53298,1
2,31056,30391,31454,80011,12996,-4536,-1553,-479,-1,27,11,336,500,-182,1,0,53,21,920,1,53298,1
2,31058,30389,31454,80012,13008,-4527,-1539,-467,8,28,7,328,496,-180,1,0,53,21,960,1,53298,1
1,31060,30389,31459,80013,0,-4513,-1547,-475,-10,36,12,329,501,-173,1,0,53,22,0,1,53298,1
2,31058,30403,31460,80014,12308,-4522,-1539,-477,-8,34,11,336,496,-180,1,0,53,22,40,1,53298,1
2,31059,30439,31455,80015,12319,-4529,-1552,-485,7,31,8,331,501,-183,1,0,53,22,80,1,53298,1
2,31059,30436,31458,80016,12330,-4526,-1544,-480,-7,13,15,334,500,-194,1,0,53,22,120,1,53298,1
2,31062,30458,31455,80017,12340,-4528,-1553,-489,4,-6,22,329,507,-181,1,0,53,22,160,1,53298,1
2,31057,30451,31456,80018,12352,-4524,-1551,-478,6,-14,31,334,500,-184,1,0,53,22,200,1,53298,1
2,31058,30439,31455,80019,12363,-4531,-1547,-478,1,-14,34,332,500,-194,1,0,53,22,240,1,53298,1
2,31057,30464,31457,80020,12374,-4523,-1547,-470,-12,-17,36,327,495,-181,1,0,53,22,280,1,53298,1
2,31059,30474,31457,80021,12385,-4515,-1547,-470,-6,-12,25,339,499,-179,1,0,53,22,320,1,53298,1
2,31057,30472,31454,80022,12396,-4530,-1546,-472,-8,-19,32,329,499,-177,1,0,53,22,360,1,53298,1
2,31058,30487,31458,80023,12406,-4522,-1552,-495,-13,-15,37,335,503,-183,1,0,53,22,400,1,53298,1
2,31057,30479,31456,80024,12417,-4513,-1545,-473,-8,-17,37,329,495,-181,1,0,53,22,440,1,53298,1
2,31060,30446,31460,80025,12428,-4526,-1545,-482,-14,-24,18,330,504,-186,1,0,53,22,480,1,53298,1
2,31060,30458,31457,80026,12439,-4528,-1551,-506,-11,-16,23,340,508,-186,1,0,53,22,520,1,53298,1
2,31059,30431,31455,80027,12451,-4532,-1558,-477,-4,-31,28,334,498,-188,1,0,53,22,560,1,53298,1
2,31057,30417,31454,80028,12463,-4523,-1544,-466,-4,-25,31,334,500,-188,1,0,53,22,600,1,53298,1
2,31058,30407,31457,80029,12474,-4528,-1546,-475,-12,-8,35,330,500,-182,1,0,53,22,640,1,53298,1
2,31055,30371,31455,80030,12484,-4525,-1554,-473,-13,-9,31,327,499,-183,1,0,53,22,680,1,53298,1
2,31056,30378,31455,80031,12494,-4513,-1531,-470,-11,2,23,330,500,-180,1,0,53,22,720,1,53298,1
2,31057,30375,31456,80032,12504,-4526,-1551,-475,-19,-22,14,328,504,-190,1,0,53,22,760,1,53298,1
2,31055,30392,31457,80033,12514,-4526,-1554,-478,-18,-28,44,334,498,-188,1,0,53,22,800,1,53298,1
2,31057,30399,31449,80034,12525,-4537,-1551,-493,-143,-75,156,335,501,-185,1,0,53,22,840,1,53298,1
2,31032,30176,31414,80035,12535,-4559,-1604,-480,-551,-304,461,334,496,-184,1,0,53,22,880,1,53298,1
2,31021,30163,31430,80036,12545,-4533,-1446,-637,-1250,-942,899,336,498,-178,1,0,53,22,920,1,53298,1
2,31007,30707,31401,80037,12556,-4676,-1573,-558,-662,-921,852,317,503,-175,1,0,53,22,960,1,53298,1
1,30992,30563,31408,80038,0,-4646,-1528,-716,376,-731,1243,326,500,-182,1,0,53,23,0,0,53298,1
2,30985,30279,31406,80039,11855,-4356,406,-1291,1016,-133,2245,321,509,-185,1,0,53,23,40,0,53298,1
2,30998,30027,31421,80040,11867,-4635,983,-1718,-2121,1650,5084,312,520,-180,1,0,53,23,80,0,53298,1
2,30996,29959,31420,80041,11878,-4565,705,-1873,-4571,4628,8399,285,535,-199,1,0,53,23,120,0,53298,1
2,30990,29891,31422,80042,11890,-4377,699,-1613,-2787,7478,11644,243,537,-197,1,0,53,23,160,0,53298,1
2,31010,30610,31416,80043,11902,-4141,442,-896,-1479,9147,14485,195,559,-217,1,0,53,23,200,0,53298,1
2,31081,32234,31477,80044,11913,-4127,261,-706,-955,9645,17399,145,559,-235,1,0,53,23,240,0,53298,1
2,31259,30420,31622,80045,11926,-5416,209,-733,-70,9075,19089,84,544,-256,1,0,53,23,280,0,53298,1
2,31710,31628,31918,80046,11938,-6121,623,-571,-150,6985,19250,44,520,-254,1,0,53,23,320,0,53298,1
2,31891,34369,32034,80047,11952,-6089,-497,-891,-1113,4174,17174,22,502,-270,1,0,53,23,360,0,53298,1
2,32429,32151,32838,80048,11967,-4474,-256,-993,-906,2146,12146,2,480,-278,1,0,53,23,400,0,53298,1
2,33023,35527,33045,80049,11982,-3255,-464,-1216,-893,1349,8270,1,483,-271,1,0,53,23,440,0,53298,1
2,31394,30590,31835,80050,11998,-3986,-764,-769,2074,1480,5759,-17,473,-287,1,0,53,23,480,0,53298,1
2,31494,31610,31844,80051,12013,-4524,-362,-429,3853,-427,2034,0,474,-280,1,0,53,23,520,0,53298,1
2,32755,31107,32979,80052,12029,-4059,253,-781,515,-3342,-2153,-15,469,-259,1,0,53,23,560,0,53298,1
2,32749,35713,32950,80053,12045,-3795,820,-1582,-2668,-4942,-4241,-1,485,-253,1,0,53,23,600,0,53298,1
2,32522,30960,32891,80054,12060,-3754,1703,-2468,-1983,-4650,-4135,9,483,-233,1,0,53,23,640,0,53298,1
2,32833,31149,32971,80055,12075,-3944,911,-1169,2120,-852,592,2,478,-244,1,0,53,23,680,0,53298,1
2,32918,34098,32867,80056,12089,-3258,379,-1056,-581,359,73,4,486,-250,1,0,53,23,720,0,53298,1
2,32979,31036,32911,80057,12102,-3467,197,-1083,-1241,331,-438,6,490,-242,1,0,53,23,760,0,53298,1
2,32927,32558,32837,80058,12116,-4163,2638,-1238,623,-6,-877,-3,493,-241,1,0,53,23,800,0,53298,1
2,33079,31196,32939,80059,12129,-3949,964,-932,80,-244,-147,7,495,-241,1,0,53,23,840,0,53298,1
2,33130,31202,32945,80060,12143,-3526,756,-1460,-750,-305,-742,5,495,-239,1,0,53,23,880,0,53298,1
2,33104,31083,32920,80061,12155,-3990,1438,-1278,1732,178,-436,7,487,-241,1,0,53,23,920,0,53298,1
2,33156,31077,32933,80062,12168,-3950,1086,-1344,2162,105,-455,-1,489,-243,1,0,53,23,960,0,53298,1
1,33025,34318,32818,80063,0,-3719,1120,-1413,2445,41,-556,-1,497,-251,1,0,53,24,0,0,53298,1
2,33051,34350,32862,80064,11405,-3931,1052,-1493,3263,153,-211,1,491,-255,1,0,53,24,40,0,53298,1
2,33048,31851,32810,80065,11418,-3905,1033,-1635,2411,-9,-148,1,495,-247,1,0,53,24,80,0,53298,1
2,33067,31261,32869,80066,11431,-3831,1026,-1714,528,-92,-126,6,494,-248,1,0,53,24,120,0,53298,1
2,32980,31178,32859,80067,11444,-3928,968,-1548,-696,-104,4,13,489,-247,1,0,53,24,160,0,53298,1
2,32764,31115,32895,80068,11456,-3896,1071,-1515,-1350,-285,89,5,487,-249,1,0,53,24,200,0,53298,1
2,32670,31413,32940,80069,11469,-3858,1064,-1490,-1563,-402,92,1,481,-247,1,0,53,24,240,0,53298,1
2,32572,31309,32883,80070,11482,-3874,1097,-1479,-1596,-419,91,-2,498,-240,1,0,53,24,280,0,53298,1
2,32533,31351,32855,80071,11494,-3910,1111,-1389,-1573,-371,30,8,490,-248,1,0,53,24,320,0,53298,1
2,32546,31126,32867,80072,11506,-3871,1111,-1399,-1511,-339,23,4,488,-240,1,0,53,24,360,0,53298,1
2,32500,31097,32845,80073,11519,-3897,1130,-1388,-1376,-323,76,8,492,-238,1,0,53,24,400,0,53298,1
2,32513,31075,32847,80074,11531,-3902,1108,-1396,-1454,-319,119,7,489,-241,1,0,53,24,440,0,53298,1
2,32500,31041,32855,80075,11544,-3875,1158,-1332,-1451,-270,115,3,491,-225,1,0,53,24,480,0,53298,1
2,32485,31031,32821,80076,11557,-3888,1171,-1260,-1192,-179,70,9,493,-237,1,0,53,24,520,0,53298,1
2,32466,31024,32799,80077,11569,-3866,1173,-1271,-681,-72,59,6,486,-238,1,0,53,24,560,0,53298,1
2,32448,31067,32785,80078,11582,-3891,1142,-1270,131,86,42,9,489,-235,1,0,53,24,600,0,53298,1
2,32436,31049,32788,80079,11595,-3919,1125,-1327,753,151,55,8,486,-232,1,0,53,24,640,0,53298,1
2,32427,31027,32768,80080,11608,-3903,1111,-1393,838,126,55,9,485,-237,1,0,53,24,680,0,53298,1
2,32457,31036,32797,80081,11621,-3885,1147,-1379,494,70,71,7,485,-239,1,0,53,24,720,0,53298,1
2,32443,31103,32785,80082,11634,-3912,1145,-1374,88,13,72,8,490,-234,1,0,53,24,760,0,53298,1
2,32430,31013,32762,80083,11647,-3886,1147,-1324,-79,-51,73,19,491,-239,1,0,53,24,800,0,53298,1
2,32430,31020,32773,80084,11659,-3888,1133,-1360,-193,-92,116,11,489,-235,1,0,53,24,840,0,53298,1
2,32439,31019,32768,80085,11672,-3881,1164,-1392,-249,-84,107,2,480,-228,1,0,53,24,880,0,53298,1
2,32435,31015,32784,80086,11685,-3904,1147,-1333,-249,-55,69,7,489,-235,1,0,53,24,920,0,53298,1
2,32437,31014,32770,80087,11698,-3889,1115,-1322,-233,-59,57,0,488,-236,1,0,53,24,960,0,53298,1
1,32441,31021,32774,80088,0,-3905,1156,-1358,-152,-44,57,14,486,-236,1,0,53,25,0,0,53298,1
2,32452,31018,32797,80089,10953,-3892,1149,-1330,-139,-4,30,9,485,-235,1,0,53,25,40,0,53298,1
2,32439,31012,32803,80090,10967,-3884,1154,-1304,-193,39,16,11,489,-235,1,0,53,25,80,0,53298,1
2,32438,31015,32770,80091,10980,-3904,1141,-1321,63,47,31,9,477,-239,1,0,53,25,120,0,53298,1
2,32446,31012,32770,80092,10992,-3876,1136,-1360,217,21,29,1,485,-231,1,0,53,25,160,0,53298,1
2,32442,31009,32800,80093,11005,-3882,1170,-1351,43,23,26,9,487,-239,1,0,53,25,200,0,53298,1
2,32419,30990,32766,80094,11018,-3894,1169,-1351,-92,-5,57,-2,492,-238,1,0,53,25,240,0,53298,1
2,32425,30992,32788,80095,11030,-3892,1149,-1318,-91,1,43,9,491,-235,1,0,53,25,280,0,53298,1
2,32419,30996,32757,80096,11043,-3886,1152,-1351,47,4,41,4,488,-230,1,0,53,25,320,0,53298,1
2,32408,30989,32762,80097,11055,-3895,1153,-1355,87,10,38,-4,490,-240,1,0,53,25,360,0,53298,1
2,32398,31010,32753,80098,11068,-3896,1136,-1339,3,23,25,7,489,-235,1,0,53,25,400,0,53298,1
2,32412,31008,32761,80099,11081,-3878,1167,-1351,-65,-6,40,11,495,-229,1,0,53,25,440,0,53298,1
2,32410,31011,32743,80100,11094,-3889,1171,-1318,-61,2,26,5,487,-233,1,0,53,25,480,0,53298,1
2,32380,31053,32723,80101,11107,-3888,1159,-1360,-121,-5,21,9,485,-231,1,0,53,25,520,0,53298,1
2,32384,31023,32708,80102,11120,-3892,1155,-1357,-140,-6,22,0,490,-236,1,0,53,25,560,0,53298,1
2,32381,31018,32710,80103,11134,-3889,1147,-1344,-20,-15,40,12,490,-228,1,0,53,25,600,0,53298,1
2,32364,30999,32693,80104,11146,-3887,1162,-1357,-17,-21,49,9,481,-241,1,0,53,25,640,0,53298,1
2,32325,30996,32650,80105,11160,-3883,1154,-1340,-52,-16,35,-1,493,-231,1,0,53,25,680,0,53298,1
2,32345,30991,32679,80106,11174,-3887,1149,-1355,-43,0,35,2,486,-234,1,0,53,25,720,0,53298,1
2,32378,31026,32714,80107,11188,-3881,1155,-1333,32,8,22,8,490,-236,1,0,53,25,760,0,53298,1
2,32405,31050,32732,80108,11201,-3895,1144,-1354,152,15,20,8,482,-242,1,0,53,25,800,0,53298,1
2,32395,31034,32717,80109,11214,-3878,1173,-1359,141,16,35,7,485,-239,1,0,53,25,840,0,53298,1
2,32423,31038,32760,80110,11228,-3898,1133,-1356,-14,7,20,4,490,-250,1,0,53,25,880,0,53298,1
2,32403,31029,32738,80111,11241,-3889,1170,-1338,-68,-14,29,7,491,-239,1,0,53,25,920,0,53298,1
2,32400,31018,32740,80112,11254,-3884,1141,-1352,-2,-11,27,8,488,-232,1,0,53,25,960,0,53298,1
1,32398,31000,32740,80113,0,-3898,1160,-1349,33,-1,39,-1,495,-233,1,0,53,26,0,1,53298,1
2,32378,31007,32712,80114,10501,-3893,1138,-1355,-66,-1,32,3,487,-239,1,0,53,26,40,1,53298,1
2,32366,30988,32722,80115,10514,-3876,1160,-1360,-79,0,38,15,489,-243,1,0,53,26,80,1,53298,1
2,32361,30973,32691,80116,10527,-3887,1212,-1370,-99,5,54,6,484,-234,1,0,53,26,120,1,53298,1
2,32330,30950,32666,80117,10540,-3868,1126,-1335,-299,36,137,-5,497,-231,1,0,53,26,160,1,53298,1
2,32343,30962,32668,80118,10554,-3892,1192,-1359,-530,61,112,8,496,-234,1,0,53,26,200,1,53298,1
2,32351,30952,32682,80119,10567,-3867,1137,-1343,-543,13,155,4,490,-238,1,0,53,26,240,1,53298,1
2,32351,30954,32686,80120,10581,-3892,1171,-1315,-410,37,142,0,490,-232,1,0,53,26,280,1,53298,1
2,32339,30945,32670,80121,10594,-3885,1187,-1347,-321,6,151,7,489,-241,1,0,53,26,320,1,53298,1
2,32330,30944,32670,80122,10607,-3713,1685,-1484,-404,50,262,5,487,-231,1,0,53,26,360,1,53298,1
2,32315,30935,32658,80123,10620,-3839,1812,-1343,-1703,444,1299,3,479,-231,1,0,53,26,400,1,53298,1
2,32320,30959,32722,80124,10632,-4166,1499,-1413,-2238,701,2271,7,483,-237,1,0,53,26,440,1,53298,1
2,32303,30934,32651,80125,10644,-3891,1361,-1388,-1108,609,2248,2,470,-228,1,0,53,26,480,1,53298,1
2,32294,30933,32663,80126,10656,-3732,1072,-1334,-491,829,2160,-3,467,-247,1,0,53,26,520,1,53298,1
2,32292,30930,32646,80127,10668,-3723,1223,-1342,17,1059,1974,-4,462,-254,1,0,53,26,560,1,53298,1
2,32281,30935,32647,80128,10681,-3827,1345,-1354,177,1193,1952,-17,459,-253,1,0,53,26,600,1,53298,1
2,32289,30940,32659,80129,10693,-3715,1466,-1298,112,1016,1673,-24,464,-232,1,0,53,26,640,1,53298,1
2,32286,30947,32650,80130,10705,-3551,1571,-1403,-218,842,1686,-20,456,-250,1,0,53,26,680,1,53298,1
2,32266,30940,32642,80131,10717,-3736,1314,-1281,-87,934,1868,-8,456,-250,1,0,53,26,720,1,53298,1
2,32278,30934,32638,80132,10730,-3627,1282,-1210,327,597,1359,-15,457,-259,1,0,53,26,760,1,53298,1
2,32273,30934,32639,80133,10741,-3622,1117,-1106,239,225,819,-12,446,-260,1,0,53,26,800,1,53298,1
2,32281,30949,32660,80134,10753,-3596,1149,-1173,-76,-318,130,-5,453,-257,1,0,53,26,840,1,53298,1
2,32275,30935,32637,80135,10766,-3574,1302,-1288,-340,-768,-476,-16,450,-258,1,0,53,26,880,1,53298,1
2,32276,30940,32660,80136,10779,-3569,1591,-1504,-532,-896,-757,-12,452,-254,1,0,53,26,920,1,53298,1
2,32258,30937,32632,80137,10792,-3705,1695,-1605,-399,-636,-574,-12,450,-248,1,0,53,26,960,1,53298,1
1,32261,30937,32644,80138,0,-3643,1804,-1608,7,-362,-391,-8,456,-242,1,0,53,27,0,0,53298,1
2,32246,30931,32625,80139,10049,-3641,1759,-1570,56,23,115,-9,449,-253,1,0,53,27,40,0,53298,1
2,32241,30932,32614,80140,10061,-3703,1588,-1451,67,343,561,-12,454,-250,1,0,53,27,80,0,53298,1
2,32220,30920,32605,80141,10073,-3627,1453,-1357,122,376,587,-9,443,-259,1,0,53,27,120,0,53298,1
2,32204,30916,32572,80142,10084,-3584,1345,-1320,87,366,509,-13,449,-247,1,0,53,27,160,0,53298,1
2,32171,30894,32553,80143,10095,-3617,1355,-1273,138,286,327,-17,453,-261,1,0,53,27,200,0,53298,1
2,32185,30897,32552,80144,10106,-3625,1384,-1262,4,62,-53,-9,453,-251,1,0,53,27,240,0,53298,1
2,32198,30908,32577,80145,10117,-3544,1530,-1367,-203,-164,-314,-16,458,-252,1,0,53,27,280,0,53298,1
2,32195,30905,32568,80146,10128,-3679,1494,-1355,-102,-172,-267,-13,451,-257,1,0,53,27,320,0,53298,1
2,32175,30889,32567,80147,10139,-3630,1578,-1418,22,-286,-447,-11,453,-251,1,0,53,27,360,0,53298,1
2,32186,30897,32548,80148,10150,-3683,1421,-1424,-19,-213,-402,-9,453,-255,1,0,53,27,400,0,53298,1
2,32185,30900,32549,80149,10161,-3740,1351,-1391,341,-203,-594,-7,449,-253,1,0,53,27,440,0,53298,1
2,32193,30914,32565,80150,10173,-3586,1674,-1505,496,-195,-762,-19,463,-255,1,0,53,27,480,0,53298,1
2,32197,30905,32559,80151,10184,-3870,1567,-1444,686,78,-361,-7,461,-257,1,0,53,27,520,0,53298,1
2,32168,30909,32548,80152,10195,-3952,1601,-1174,1195,-327,-511,-13,457,-253,1,0,53,27,560,0,53298,1
2,32141,30902,32520,80153,10206,-3710,1595,-1279,-504,-1190,-871,0,460,-252,1,0,53,27,600,0,53298,1
2,32161,30923,32545,80154,10217,-3735,1393,-1464,-2160,-1261,-735,-1,457,-249,1,0,53,27,640,0,53298,1
2,32165,30997,32544,80155,10229,-3987,931,-1475,-966,-913,-911,4,464,-250,1,0,53,27,680,0,53298,1
2,32187,30932,32545,80156,10241,-3823,931,-1377,1831,-654,-2123,6,462,-244,1,0,53,27,720,0,53298,1
2,32168,30899,32538,80157,10253,-3604,1207,-1284,2609,-355,-2910,14,472,-258,1,0,53,27,760,0,53298,1
2,32221,30949,32615,80158,10264,-3808,979,-1247,1890,-100,-2856,28,474,-252,1,0,53,27,800,0,53298,1
2,32115,30975,32485,80159,10275,-4160,813,-1305,1521,-309,-3149,23,477,-259,1,0,53,27,840,0,53298,1
2,31957,30895,32356,80160,10286,-4098,806,-1251,2026,-726,-4227,25,483,-253,1,0,53,27,880,0,53298,1
2,31955,30861,32340,80161,10298,-4281,795,-1255,2420,-974,-4836,35,497,-255,1,0,53,27,920,0,53298,1
2,31885,30772,32280,80162,10310,-4340,817,-1272,2410,-1415,-5419,46,512,-244,1,0,53,27,960,0,53298,1
1,31850,30720,32242,80163,0,-4637,473,-1349,2328,-1686,-5640,59,517,-235,1,0,53,28,0,0,53298,1
2,31832,30691,32196,80164,9596,-4513,258,-1296,3181,-2052,-6260,83,517,-241,1,0,53,28,40,0,53298,1
2,31805,30698,32158,80165,9609,-4557,86,-1098,3473,-2496,-7115,95,531,-243,1,0,53,28,80,0,53298,1
2,31760,30628,32153,80166,9620,-4538,-206,-839,2702,-3165,-8145,133,527,-237,1,0,53,28,120,0,53298,1
2,31364,30300,31755,80167,9631,-4607,-221,-707,1340,-4250,-9493,157,535,-227,1,0,53,28,160,0,53298,1
2,31870,31739,32307,80168,9642,-4316,-222,-608,-376,-5555,-10436,182,534,-206,1,0,53,28,200,0,53298,1
2,31917,31974,32420,80169,9653,-4107,-139,-596,-1028,-6166,-10353,204,542,-196,1,0,53,28,240,0,53298,1
2,31942,32977,32491,80170,9664,-4194,-36,-961,-1728,-6072,-9854,231,529,-197,1,0,53,28,280,0,53298,1
2,31885,32127,32227,80171,9674,-4380,-613,-743,-874,-5546,-9349,259,521,-183,1,0,53,28,320,0,53298,1
2,32113,30990,32601,80172,9685,-4316,-121,-892,754,-5222,-8838,268,512,-174,1,0,53,28,360,0,53298,1
2,31947,30812,32085,80173,9694,-4324,176,-827,2194,-4710,-7124,297,509,-175,1,0,53,28,400,0,53298,1
2,31859,35165,32252,80174,9704,-4496,-12,-709,836,-4347,-4754,296,504,-168,1,0,53,28,440,0,53298,1
2,32040,31047,32560,80175,9715,-4545,-472,-854,-1325,-3684,-2698,296,502,-154,1,0,53,28,480,0,53298,1
2,32075,31046,32550,80176,9725,-4622,-772,-485,-880,-2817,-1260,294,488,-154,1,0,53,28,520,0,53298,1
2,32093,30916,32557,80177,9734,-5711,241,-1646,-1333,-1009,-298,293,503,-155,1,0,53,28,560,0,53298,1
2,32044,30912,32505,80178,9742,-4943,-2157,-968,-4025,-1243,-288,284,500,-154,1,0,53,28,600,0,53298,1
2,32046,30984,32514,80179,9751,-4233,-1323,-449,-2001,-312,-978,291,501,-159,1,0,53,28,640,0,53298,1
2,31856,30798,32315,80180,9761,-4766,-1296,-142,-1117,372,-613,297,497,-161,1,0,53,28,680,0,53298,1
2,31833,30898,32292,80181,9771,-4946,-1246,-172,682,836,-236,302,500,-164,1,0,53,28,720,0,53298,1
2,31653,30827,32103,80182,9780,-4487,-1374,-320,629,619,-295,293,497,-161,1,0,53,28,760,0,53298,1
2,31517,30750,31931,80183,9789,-4553,-1387,-345,-74,377,-21,291,497,-157,1,0,53,28,800,0,53298,1
2,31420,30724,31860,80184,9799,-4665,-1386,-339,91,242,117,292,500,-158,1,0,53,28,840,0,53298,1
2,31401,30716,31831,80185,9808,-4554,-1335,-258,595,159,-41,294,498,-154,1,0,53,28,880,0,53298,1
2,31386,30712,31802,80186,9817,-4585,-1324,-238,256,209,-143,290,494,-162,1,0,53,28,920,0,53298,1
2,31379,30709,31806,80187,9826,-4579,-1360,-307,-165,219,-146,294,498,-160,1,0,53,28,960,0,53298,1
1,31379,30713,31810,80188,0,-4570,-1391,-305,-100,227,-103,298,492,-162,1,0,53,29,0,0,53298,1
2,31392,30706,31825,80189,9145,-4560,-1372,-303,173,267,-58,289,495,-161,1,0,53,29,40,0,53298,1
2,31416,30714,31849,80190,9154,-4571,-1352,-291,259,321,-36,295,509,-161,1,0,53,29,80,0,53298,1
2,31432,30729,31870,80191,9163,-4579,-1371,-308,103,352,2,291,491,-159,1,0,53,29,120,0,53298,1
2,31458,30740,31892,80192,9172,-4583,-1375,-337,70,323,-37,303,499,-169,1,0,53,29,160,0,53298,1
2,31474,30730,31906,80193,9182,-4562,-1373,-332,109,234,-69,294,494,-166,1,0,53,29,200,0,53298,1
2,31516,30731,31945,80194,9191,-4584,-1378,-342,37,149,-36,298,502,-160,1,0,53,29,240,0,53298,1
2,31590,30752,32030,80195,9199,-4569,-1376,-354,27,47,5,288,496,-162,1,0,53,29,280,0,53298,1
2,31593,30751,32031,80196,9209,-4568,-1373,-326,61,1,41,297,497,-161,1,0,53,29,320,0,53298,1
2,31650,30782,32095,80197,9218,-4570,-1372,-334,61,-7,58,298,504,-148,1,0,53,29,360,0,53298,1
2,31707,30792,32150,80198,9227,-4568,-1360,-326,39,52,63,297,501,-151,1,0,53,29,400,0,53298,1
2,31787,30818,32242,80199,9235,-4576,-1362,-318,28,113,37,296,502,-170,1,0,53,29,440,0,53298,1
2,31785,30805,32239,80200,9244,-4589,-1369,-344,18,174,9,295,497,-163,1,0,53,29,480,0,53298,1
2,31787,30796,32235,80201,9254,-4571,-1366,-347,-7,201,-42,294,494,-164,1,0,53,29,520,0,53298,1
2,31780,30790,32241,80202,9264,-4574,-1380,-356,-48,165,-54,299,503,-167,1,0,53,29,560,0,53298,1
2,31762,30775,32220,80203,9274,-4584,-1398,-365,-34,90,-11,296,502,-166,1,0,53,29,600,0,53298,1
2,31745,30755,32207,80204,9283,-4574,-1374,-364,9,4,31,297,497,-155,1,0,53,29,640,0,53298,1
2,31734,30758,32199,80205,9293,-4578,-1372,-351,17,-52,43,298,504,-164,1,0,53,29,680,0,53298,1
2,31767,30760,32220,80206,9303,-4574,-1376,-357,8,-70,41,299,509,-161,1,0,53,29,720,0,53298,1
2,31745,30763,32192,80207,9313,-4582,-1376,-341,10,-38,19,297,497,-157,1,0,53,29,760,0,53298,1
2,31691,30743,32125,80208,9322,-4560,-1367,-348,-7,3,-1,294,514,-158,1,0,53,29,800,0,53298,1
2,31618,30715,32118,80209,9332,-4570,-1373,-355,-18,63,-15,295,503,-163,1,0,53,29,840,0,53298,1
2,31601,30699,32038,80210,9341,-4559,-1369,-354,-11,98,-2,307,495,-163,1,0,53,29,880,0,53298,1
2,31574,30663,32011,80211,9350,-4567,-1377,-366,-2,102,6,301,501,-163,1,0,53,29,920,0,53298,1
2,31554,30649,31996,80212,9360,-4576,-1385,-366,12,103,17,297,499,-161,1,0,53,29,960,0,53298,1
1,31550,30634,31987,80213,0,-4561,-1365,-368,26,74,19,296,498,-150,1,0,53,30,0,0,53298,1
2,31530,30513,31977,80214,8693,-4576,-1382,-364,28,90,30,298,494,-164,1,0,53,30,40,0,53298,1
2,31514,30418,31955,80215,8702,-4570,-1372,-368,52,128,17,295,503,-165,1,0,53,30,80,0,53298,1
2,31505,30387,31954,80216,8712,-4566,-1389,-366,47,177,6,288,506,-166,1,0,53,30,120,0,53298,1
2,31513,30426,31949,80217,8721,-4556,-1371,-374,50,215,-13,301,503,-167,1,0,53,30,160,0,53298,1
2,31487,30722,31925,80218,8731,-4577,-1388,-387,55,239,-26,300,504,-170,1,0,53,30,200,0,53298,1
2,31469,31836,31914,80219,8741,-4555,-1369,-402,60,238,-35,292,498,-168,1,0,53,30,240,0,53298,1
2,31476,32530,31918,80220,8751,-4568,-1384,-381,44,212,-44,295,507,-169,1,0,53,30,280,0,53298,1
2,31508,33743,31924,80221,8762,-4575,-1390,-398,44,169,-33,296,498,-172,1,0,53,30,320,0,53298,1
2,31524,33961,31948,80222,8771,-4560,-1385,-397,32,121,-18,292,498,-166,1,0,53,30,360,0,53298,1
2,31510,34107,31948,80223,8781,-4561,-1378,-403,14,83,-10,301,507,-171,1,0,53,30,400,0,53298,1
2,31515,34385,31951,80224,8790,-4562,-1385,-400,-2,28,-4,301,495,-163,1,0,53,30,440,0,53298,1
2,31495,34210,31940,80225,8798,-4570,-1401,-402,0,-20,8,300,496,-170,1,0,53,30,480,0,53298,1
2,31501,34275,31941,80226,8808,-4561,-1396,-393,-1,-40,32,298,504,-168,1,0,53,30,520,0,53298,1
2,31511,34203,31957,80227,8818,-4565,-1380,-397,-8,-32,39,293,501,-161,1,0,53,30,560,0,53298,1
2,31511,34397,31947,80228,8828,-4567,-1378,-392,-32,-21,20,296,494,-168,1,0,53,30,600,0,53298,1
2,31519,34490,31953,80229,8838,-4565,-1377,-394,-31,6,13,296,502,-160,1,0,53,30,640,0,53298,1
2,31500,34474,31944,80230,8848,-4569,-1392,-417,-15,20,13,295,501,-157,1,0,53,30,680,0,53298,1
2,31501,34285,31937,80231,8858,-4563,-1393,-399,-7,5,17,294,498,-158,1,0,53,30,720,0,53298,1
2,31491,34336,31947,80232,8868,-4557,-1377,-400,-11,2,8,301,501,-169,1,0,53,30,760,0,53298,1
2,31483,33987,31923,80233,8877,-4562,-1391,-388,-2,3,8,287,495,-173,1,0,53,30,800,0,53298,1
2,31471,33584,31910,80234,8887,-4551,-1377,-401,-11,18,16,280,508,-158,1,0,53,30,840,0,53298,1
2,31467,33395,31911,80235,8896,-4562,-1386,-405,-1,30,34,297,501,-173,1,0,53,30,880,0,53298,1
2,31455,33088,31896,80236,8905,-4558,-1371,-399,7,26,35,302,508,-168,1,0,53,30,920,0,53298,1
2,31448,32431,31885,80237,8914,-4568,-1388,-407,-5,13,17,297,495,-173,1,0,53,30,960,0,53298,1
1,31448,31850,31888,80238,0,-4563,-1396,-397,-15,0,11,303,495,-167,1,0,53,31,0,1,53298,1
2,31439,31955,31875,80239,8241,-4564,-1383,-397,-7,-19,18,302,498,-178,1,0,53,31,40,1,53298,1
2,31443,32024,31883,80240,8249,-4562,-1385,-413,-4,-49,21,298,498,-170,1,0,53,31,80,1,53298,1
2,31448,31845,31887,80241,8258,-4563,-1385,-404,-11,-35,34,299,503,-161,1,0,53,31,120,1,53298,1
2,31446,31849,31877,80242,8268,-4566,-1383,-392,-10,-18,28,293,503,-173,1,0,53,31,160,1,53298,1
2,31445,31699,31881,80243,8277,-4564,-1387,-383,-6,-12,22,301,499,-167,1,0,53,31,200,1,53298,1
2,31447,31904,31880,80244,8286,-4560,-1387,-417,1,-22,36,296,492,-170,1,0,53,31,240,1,53298,1
2,31438,31681,31870,80245,8295,-4568,-1375,-410,25,-52,77,295,503,-167,1,0,53,31,280,1,53298,1
2,31437,31519,31870,80246,8304,-4561,-1374,-392,43,-80,80,292,498,-170,1,0,53,31,320,1,53298,1
2,31435,31355,31866,80247,8314,-4570,-1374,-385,19,-98,54,296,494,-166,1,0,53,31,360,1,53298,1
2,31425,31088,31861,80248,8323,-4557,-1381,-398,2,-82,23,294,508,-168,1,0,53,31,400,1,53298,1
2,31440,31085,31870,80249,8332,-4561,-1384,-375,1,-46,12,294,494,-170,1,0,53,31,440,1,53298,1
2,31441,31124,31870,80250,8342,-4559,-1380,-379,-15,2,13,289,503,-159,1,0,53,31,480,1,53298,1
2,31438,30974,31875,80251,8352,-4560,-1383,-387,-22,31,25,301,505,-167,1,0,53,31,520,1,53298,1
2,31437,30863,31873,80252,8363,-4576,-1375,-406,0,30,31,297,499,-165,1,0,53,31,560,1,53298,1
2,31443,30855,31873,80253,8372,-4566,-1386,-407,-8,10,34,301,501,-171,1,0,53,31,600,1,53298,1
2,31443,30690,31879,80254,8381,-4554,-1379,-407,-9,-26,26,306,500,-160,1,0,53,31,640,1,53298,1
2,31446,30666,31876,80255,8391,-4562,-1387,-399,3,-56,39,303,501,-161,1,0,53,31,680,1,53298,1
2,31445,30785,31878,80256,8401,-4571,-1383,-381,8,-53,40,301,503,-171,1,0,53,31,720,1,53298,1
2,31431,30811,31866,80257,8410,-4563,-1376,-393,-4,-40,20,293,489,-169,1,0,53,31,760,1,53298,1
2,31434,30779,31865,80258,8420,-4571,-1384,-389,-9,-16,16,298,498,-160,1,0,53,31,800,1,53298,1
2,31438,30852,31874,80259,8431,-4566,-1382,-400,14,-23,44,292,494,-162,1,0,53,31,840,1,53298,1
2,31442,30848,31872,80260,8441,-4557,-1386,-400,10,-58,65,299,499,-175,1,0,53,31,880,1,53298,1
2,31445,30810,31874,80261,8452,-4570,-1379,-403,13,-68,85,294,502,-172,1,0,53,31,920,1,53298,1
2,31437,30866,31865,80262,8461,-4573,-1376,-392,45,-83,82,299,497,-163,1,0,53,31,960,1,53298,1
1,31431,30620,31863,80263,0,-4584,-1379,-401,26,-86,86,297,501,-173,1,0,53,32,0,0,53298,1
2,31439,30808,31865,80264,7790,-4573,-1380,-386,48,-100,111,302,496,-170,1,0,53,32,40,0,53298,1
2,31430,30890,31862,80265,7800,-4562,-1387,-383,109,-126,175,290,500,-172,1,0,53,32,80,0,53298,1
2,31429,30862,31852,80266,7810,-4597,-1355,-355,122,-169,216,298,500,-172,1,0,53,32,120,0,53298,1
2,31425,31003,31856,80267,7819,-4721,-1359,-363,-183,-391,509,296,496,-166,1,0,53,32,160,0,53298,1
2,31420,30580,31878,80268,7830,-4567,-1424,-428,-528,-941,1277,289,497,-169,1,0,53,32,200,0,53298,1
2,31397,32369,31832,80269,7841,-4659,-1318,-495,-900,-1037,1365,293,503,-161,1,0,53,32,240,0,53298,1
2,31402,30873,31849,80270,7851,-4600,-1075,-569,-546,-889,1484,290,498,-164,1,0,53,32,280,0,53298,1
2,31406,30503,31864,80271,7862,-4690,-376,-1015,-905,-286,2226,278,500,-166,1,0,53,32,320,0,53298,1
2,31404,30415,31860,80272,7873,-4603,-229,-1055,-1455,786,3333,283,513,-161,1,0,53,32,360,0,53298,1
2,31402,30387,31865,80273,7884,-4559,-230,-1034,-2020,2175,4503,264,510,-172,1,0,53,32,400,0,53298,1
2,31385,33045,31838,80274,7895,-4373,-75,-1002,-1960,3728,5831,249,531,-171,1,0,53,32,440,0,53298,1
2,31393,31510,31836,80275,7906,-4211,67,-951,-1007,5206,7408,217,525,-187,1,0,53,32,480,0,53298,1
2,31372,31284,31829,80276,7917,-4246,269,-685,217,6373,9016,195,537,-199,1,0,53,32,520,0,53298,1
2,31369,30908,31819,80277,7928,-4362,251,-625,-697,6474,10392,164,540,-188,1,0,53,32,560,0,53298,1
2,31365,30331,31807,80278,7939,-4487,-71,-687,-2471,5831,11323,139,543,-213,1,0,53,32,600,0,53298,1
2,31357,30321,31807,80279,7951,-4320,-281,-740,-2092,5347,11348,111,537,-211,1,0,53,32,640,0,53298,1
2,31350,30360,31795,80280,7962,-4599,238,-817,-1314,5076,11275,85,521,-233,1,0,53,32,680,0,53298,1
2,31320,34073,31782,80281,7974,-5182,-186,-855,-55,4324,10818,52,518,-230,1,0,53,32,720,0,53298,1
2,31291,33477,31764,80282,7985,-5407,229,-1002,-384,3458,9027,53,515,-237,1,0,53,32,760,0,53298,1
2,31273,33570,31745,80283,7996,-4934,470,-1189,-820,2185,6497,33,501,-245,1,0,53,32,800,0,53298,1
2,31265,32235,31739,80284,8006,-4152,941,-1405,-1275,1177,4814,25,495,-245,1,0,53,32,840,0,53298,1
2,31263,31718,31738,80285,8017,-3791,881,-1364,-1923,1215,4843,19,479,-255,1,0,53,32,880,0,53298,1
2,31260,31443,31742,80286,8026,-3945,443,-1258,-1026,1556,4732,17,473,-261,1,0,53,32,920,0,53298,1
2,31251,33383,31736,80287,8036,-3936,431,-1123,175,1170,3385,16,466,-264,1,0,53,32,960,0,53298,1
1,31251,30580,31765,80288,7338,-3545,750,-1118,341,430,1797,12,470,-254,1,0,53,33,0,1,53298,1
2,31160,30369,31669,80289,7349,-3693,770,-1020,194,218,961,14,464,-254,1,0,53,33,40,1,53298,1
2,31112,31836,31616,80290,7359,-3843,904,-1358,-814,-183,418,8,474,-256,1,0,53,33,80,1,53298,1
2,31128,33534,31611,80291,7371,-3860,1049,-1391,-172,-466,-497,7,477,-243,1,0,53,33,120,1,53298,1
2,31112,33987,31601,80292,7383,-3802,1691,-1414,650,-735,-917,18,476,-246,1,0,53,33,160,1,53298,1
2,31186,34195,31677,80293,7394,-3840,1584,-1416,-519,-896,-329,6,472,-248,1,0,53,33,200,1,53298,1
2,31281,34482,31781,80294,7407,-3874,1632,-1579,-1165,-624,713,15,471,-241,1,0,53,33,240,1,53298,1
2,31716,31481,32580,80295,7420,-3931,942,-1146,-754,-290,1243,3,469,-245,1,0,53,33,280,1,53298,1
2,32230,35565,32611,80296,7435,-3662,1640,-1651,404,-790,1702,-3,467,-241,1,0,53,33,320,1,53298,1
2,32429,34097,32735,80297,7449,-3769,1181,-1295,1043,-1044,1331,-1,477,-243,1,0,53,33,360,1,53298,1
2,32657,36351,33015,80298,7465,-3828,1234,-1191,181,-956,748,-8,474,-230,1,0,53,33,400,1,53298,1
2,32580,35950,32915,80299,7480,-3727,1219,-1302,-525,-860,-20,-8,472,-238,1,0,53,33,440,1,53298,1
2,32487,31434,32778,80300,7495,-3602,1385,-1298,-790,-548,-494,-6,482,-236,1,0,53,33,480,1,53298,1
2,32525,32199,32833,80301,7509,-3763,1451,-1358,-545,-283,-422,6,474,-236,1,0,53,33,520,1,53298,1
2,31721,31717,31989,80302,7523,-3851,1486,-1266,78,9,-466,-5,475,-231,1,0,53,33,560,1,53298,1
2,31640,32507,31942,80303,7537,-3731,1512,-1192,336,72,-523,-4,480,-228,1,0,53,33,600,1,53298,1
2,31563,31826,31832,80304,7551,-3794,1443,-1158,458,124,-17,-2,484,-222,1,0,53,33,640,1,53298,1
2,31520,32757,31806,80305,7565,-3922,1341,-969,1062,-52,200,-3,479,-237,1,0,53,33,680,1,53298,1
2,31524,33311,31794,80306,7579,-3796,1277,-1044,947,-602,100,4,468,-232,1,0,53,33,720,1,53298,1
2,31517,32333,31807,80307,7593,-3839,1192,-1204,378,-892,-1,1,473,-227,1,0,53,33,760,1,53298,1
2,31558,33033,31841,80308,7608,-3884,1149,-1335,78,-1052,-315,8,480,-236,1,0,53,33,800,1,53298,1
2,31575,33249,31862,80309,7608,-3701,1687,-2077,520,-721,-339,1,475,-229,1,0,53,33,840,1,53298,1
2,31575,32665,31870,80310,7624,-3855,1531,-1384,1331,267,347,-13,469,-235,1,0,53,33,880,1,53298,1
2,31613,32560,31900,80311,7638,-3808,1425,-1152,-101,257,447,2,472,-226,1,0,53,33,920,1,53298,1
2,31629,32530,31926,80312,7654,-3779,1266,-1249,-1046,-53,724,-2,476,-222,1,0,53,33,960,1,53298,1
1,31651,31772,31940,80313,6889,-3829,1125,-1158,-512,-62,648,5,473,-233,1,0,53,34,0,1,53298,1
2,31629,31075,31907,80314,6903,-3831,1146,-1099,142,-100,168,4,464,-220,1,0,53,34,40,1,53298,1
2,31610,30967,31908,80315,6917,-3828,1244,-1128,-90,-319,-236,4,476,-236,1,0,53,34,80,1,53298,1
2,31583,30958,31884,80316,6932,-3829,1411,-1189,-434,-512,-447,11,465,-229,1,0,53,34,120,1,53298,1
2,31570,31216,31870,80317,6946,-3822,1628,-1470,-285,-429,-308,6,476,-224,1,0,53,34,160,1,53298,1
2,31555,31632,31850,80318,6961,-3820,1478,-1242,280,-78,8,15,469,-229,1,0,53,34,200,1,53298,1
2,31601,30418,31893,80319,6975,-3819,1274,-1179,-214,-78,271,8,470,-220,1,0,53,34,240,1,53298,1
2,31601,30446,31890,80320,6989,-3786,1106,-1221,-407,-190,162,3,471,-231,1,0,53,34,280,1,53298,1
2,31596,30474,31878,80321,7003,-3771,1186,-1215,149,-143,-104,14,464,-234,1,0,53,34,320,1,53298,1
2,31587,30571,31873,80322,7018,-3817,1472,-1302,400,-106,-230,3,473,-231,1,0,53,34,360,1,53298,1
2,31593,30720,31890,80323,7032,-3858,1498,-1329,319,17,-78,-8,468,-222,1,0,53,34,400,1,53298,1
2,31605,30406,31895,80324,7046,-3842,1354,-1196,322,101,180,-1,467,-217,1,0,53,34,440,1,53298,1
2,31580,30408,31877,80325,7062,-3839,1280,-1175,-76,7,292,7,467,-229,1,0,53,34,480,1,53298,1
2,31578,30633,31866,80326,7076,-3831,1236,-1192,-271,-119,229,6,470,-234,1,0,53,34,520,1,53298,1
2,31562,30788,31851,80327,7091,-3791,1247,-1270,-191,-141,72,-7,473,-233,1,0,53,34,560,1,53298,1
2,31562,30644,31850,80328,7106,-3816,1389,-1256,62,-49,-26,9,473,-225,1,0,53,34,600,1,53298,1
2,31583,30442,31868,80329,7121,-3834,1414,-1263,34,27,46,5,469,-225,1,0,53,34,640,1,53298,1
2,31591,30420,31880,80330,7136,-3842,1371,-1233,32,65,99,5,465,-225,1,0,53,34,680,1,53298,1
2,31567,32044,31850,80331,7149,-3803,1389,-1226,-140,1,144,1,463,-227,1,0,53,34,720,1,53298,1
2,31551,33670,31837,80332,7163,-3841,1287,-1242,-205,25,195,6,470,-236,1,0,53,34,760,1,53298,1
2,31546,33779,31836,80333,7177,-3780,1352,-1242,-91,17,123,7,469,-215,1,0,53,34,800,1,53298,1
2,31533,33624,31826,80334,7190,-3809,1328,-1244,-37,78,166,8,466,-224,1,0,53,34,840,1,53298,1
2,31540,33256,31824,80335,7203,-3841,1331,-1213,18,94,135,2,464,-226,1,0,53,34,880,1,53298,1
2,31521,32375,31809,80336,7217,-3839,1331,-1168,4,3,86,0,470,-224,1,0,53,34,920,1,53298,1
2,31533,32115,31819,80337,7217,-3820,1373,-1176,-163,-118,44,-2,462,-224,1,0,53,34,960,1,53298,1
1,31531,31535,31822,80338,6438,-3783,1328,-1252,-318,-160,81,3,465,-237,1,0,53,35,0,1,53298,1
2,31536,31236,31828,80339,6452,-3807,1341,-1232,105,-41,111,-3,469,-225,1,0,53,35,40,1,53298,1
2,31531,30902,31821,80340,6466,-3826,1363,-1224,205,-31,87,6,472,-232,1,0,53,35,80,1,53298,1
2,31535,30661,31829,80341,6479,-3791,1335,-1291,-109,-88,19,2,464,-230,1,0,53,35,120,1,53298,1
2,31528,30528,31828,80342,6493,-3830,1300,-1269,-73,14,28,4,462,-222,1,0,53,35,160,1,53298,1
2,31533,30438,31829,80343,6507,-3839,1304,-1173,140,42,-52,8,470,-232,1,0,53,35,200,1,53298,1
2,31539,30393,31833,80344,6521,-3827,1328,-1133,-28,-77,-158,-5,467,-217,1,0,53,35,240,1,53298,1
2,31545,30391,31834,80345,6535,-3822,1370,-1124,-194,-206,-172,5,465,-223,1,0,53,35,280,1,53298,1
2,31529,30377,31829,80346,6549,-3833,1375,-1191,-130,-296,-153,3,475,-225,1,0,53,35,320,1,53298,1
2,31511,30362,31818,80347,6564,-3816,1420,-1267,100,-248,-86,11,467,-229,1,0,53,35,360,1,53298,1
2,31514,30402,31808,80348,6578,-3821,1446,-1272,143,-144,78,1,473,-229,1,0,53,35,400,1,53298,1
2,31510,30385,31813,80349,6593,-3821,1408,-1284,-24,-66,212,10,462,-232,1,0,53,35,440,1,53298,1
2,31499,30480,31801,80350,6607,-3829,1402,-1295,-72,67,318,18,460,-222,1,0,53,35,480,1,53298,1
2,31485,30547,31793,80351,6622,-3819,1368,-1256,111,191,424,6,468,-226,1,0,53,35,520,1,53298,1
2,31493,30474,31793,80352,6636,-3814,1337,-1197,154,251,419,10,460,-234,1,0,53,35,560,1,53298,1
2,31481,30668,31785,80353,6649,-3797,1289,-1165,198,226,307,9,471,-219,1,0,53,35,600,1,53298,1
2,31479,30542,31783,80354,6662,-3801,1342,-1152,281,91,258,8,466,-230,1,0,53,35,640,1,53298,1
2,31467,30731,31770,80355,6676,-3799,1417,-1216,60,-17,211,10,464,-232,1,0,53,35,680,1,53298,1
2,31468,30602,31770,80356,6688,-3838,1424,-1256,-153,-94,234,-7,463,-225,1,0,53,35,720,1,53298,1
2,31470,30612,31780,80357,6702,-3755,1431,-1342,-217,-68,285,11,457,-225,1,0,53,35,760,1,53298,1
2,31465,30638,31775,80358,6714,-3801,1358,-1323,91,189,397,8,456,-230,1,0,53,35,800,1,53298,1
2,31470,30550,31775,80359,6727,-3822,1363,-1235,445,287,366,5,455,-233,1,0,53,35,840,1,53298,1
2,31469,30587,31780,80360,6740,-3806,1369,-1212,111,202,295,8,454,-236,1,0,53,35,880,1,53298,1
2,31467,30941,31778,80361,6754,-3857,1313,-1244,-307,39,186,7,461,-233,1,0,53,35,920,1,53298,1
2,31458,31145,31781,80362,6754,-3941,1334,-1320,-344,-68,-78,11,455,-239,1,0,53,35,960,1,53298,1
1,31452,31275,31776,80363,5988,-4019,1410,-1352,170,-65,-382,7,463,-243,1,0,53,36,0,0,53298,1
2,31446,31529,31774,80364,6001,-3915,1149,-1307,52,-205,-734,4,470,-226,1,0,53,36,40,0,53298,1
2,31445,31606,31781,80365,6014,-3971,777,-1205,276,-219,-1297,10,472,-236,1,0,53,36,80,0,53298,1
2,31424,31944,31769,80366,6026,-4210,711,-1173,857,-447,-2471,22,468,-240,1,0,53,36,120,0,53298,1
2,31430,30754,31771,80367,6039,-4255,938,-1079,833,-685,-3897,24,478,-232,1,0,53,36,160,0,53298,1
2,31425,30760,31769,80368,6052,-4496,932,-1167,538,-968,-4602,35,479,-227,1,0,53,36,200,0,53298,1
2,31395,30580,31747,80369,6065,-4617,757,-1098,1051,-1412,-5437,54,492,-226,1,0,53,36,240,0,53298,1
2,31388,30289,31743,80370,6077,-4450,675,-903,1773,-2098,-6508,73,499,-231,1,0,53,36,280,0,53298,1
2,31466,30566,31852,80371,6089,-4305,529,-965,1405,-2608,-7427,86,510,-230,1,0,53,36,320,0,53298,1
2,32192,31925,32688,80372,6099,-4370,122,-985,245,-2789,-8608,107,507,-219,1,0,53,36,360,0,53298,1
2,31988,31518,32488,80373,6110,-4245,172,-414,1583,-3500,-9644,138,512,-216,1,0,53,36,400,0,53298,1
2,32132,34548,32502,80374,6121,-3938,140,-293,3188,-5194,-10023,155,511,-203,1,0,53,36,440,0,53298,1
2,31943,32644,32472,80375,6131,-3849,-365,-404,153,-6026,-9578,183,515,-187,1,0,53,36,480,0,53298,1
2,31785,30811,32326,80376,6141,-4092,-550,-571,-2361,-5979,-9751,203,503,-187,1,0,53,36,520,0,53298,1
2,31859,34919,32359,80377,6151,-4134,-183,-890,-892,-5413,-9955,229,501,-171,1,0,53,36,560,0,53298,1
2,31935,30805,32438,80378,6162,-4422,-178,-665,565,-4824,-9293,241,501,-169,1,0,53,36,600,0,53298,1
2,32013,30996,32501,80379,6172,-4609,21,-781,742,-4394,-8233,267,503,-167,1,0,53,36,640,0,53298,1
2,31457,30426,31906,80380,6183,-4522,60,-854,-1,-3788,-6684,276,502,-150,1,0,53,36,680,0,53298,1
2,31280,30416,31797,80381,6194,-4558,-53,-839,-40,-2812,-4666,279,501,-143,1,0,53,36,720,0,53298,1
2,31342,30710,31861,80382,6204,-4362,-2120,369,125,-1893,-2749,278,496,-148,1,0,53,36,760,0,53298,1
2,31600,30463,32075,80383,6214,-5006,-996,-345,-760,719,-245,279,497,-155,1,0,53,36,800,0,53298,1
2,32081,31443,32573,80384,6224,-5187,-2140,-120,-2329,-594,62,274,492,-152,1,0,53,36,840,0,53298,1
2,32159,32350,32653,80385,6233,-4536,-812,-348,-325,89,-688,276,498,-152,1,0,53,36,880,0,53298,1
2,32154,32418,32643,80386,6243,-4194,-1299,-69,-395,-131,-820,282,498,-156,1,0,53,36,920,0,53298,1
2,31961,32179,32466,80387,6243,-4997,-1078,-337,-1036,332,-513,282,494,-150,1,0,53,36,960,0,53298,1
1,31946,31840,32424,80388,5536,-4868,-1145,-336,95,805,-224,284,496,-164,1,0,53,37,0,0,53298,1
2,31906,31311,32393,80389,5546,-4462,-1219,-215,418,576,-471,279,497,-159,1,0,53,37,40,0,53298,1
2,31872,31211,32343,80390,5557,-4579,-1236,-284,115,594,-231,281,497,-151,1,0,53,37,80,0,53298,1
2,31835,31210,32329,80391,5567,-4685,-1220,-283,412,641,-129,286,496,-156,1,0,53,37,120,0,53298,1
2,31816,33168,32303,80392,5579,-4581,-1203,-254,577,609,-217,288,500,-152,1,0,53,37,160,0,53298,1
2,31818,33102,32302,80393,5589,-4602,-1236,-273,251,682,-263,287,499,-159,1,0,53,37,200,0,53298,1
2,31792,33538,32286,80394,5601,-4604,-1250,-305,91,741,-217,277,503,-169,1,0,53,37,240,0,53298,1
2,31797,34441,32293,80395,5611,-4579,-1249,-335,151,747,-190,287,499,-159,1,0,53,37,280,0,53298,1
2,31786,34455,32275,80396,5622,-4596,-1231,-323,366,731,-185,279,495,-159,1,0,53,37,320,0,53298,1
2,31752,33413,32233,80397,5633,-4610,-1229,-302,431,639,-115,281,499,-173,1,0,53,37,360,0,53298,1
2,31751,32942,32227,80398,5645,-4600,-1254,-413,316,447,-2,283,501,-169,1,0,53,37,400,0,53298,1
2,31766,31239,32246,80399,5656,-4570,-1287,-458,241,173,50,274,502,-162,1,0,53,37,440,0,53298,1
2,31775,30673,32252,80400,5667,-4576,-1271,-393,224,-40,78,280,488,-150,1,0,53,37,480,0,53298,1
2,31774,30616,32251,80401,5679,-4580,-1238,-382,225,-133,89,280,500,-162,1,0,53,37,520,0,53298,1
2,31780,30621,32252,80402,5689,-4579,-1238,-357,165,-116,73,283,503,-161,1,0,53,37,560,0,53298,1
2,31761,30622,32235,80403,5700,-4588,-1245,-356,36,-57,23,278,502,-158,1,0,53,37,600,0,53298,1
2,31768,30621,32234,80404,5711,-4594,-1259,-368,-28,0,3,279,499,-143,1,0,53,37,640,0,53298,1
2,31762,30618,32228,80405,5721,-4586,-1249,-366,-6,5,13,286,492,-162,1,0,53,37,680,0,53298,1
2,31730,30597,32205,80406,5732,-4588,-1250,-367,-14,-46,29,284,498,-158,1,0,53,37,720,0,53298,1
2,31726,30591,32195,80407,5742,-4577,-1245,-377,-7,-142,50,278,508,-160,1,0,53,37,760,0,53298,1
2,31735,30602,32211,80408,5753,-4587,-1248,-350,9,-188,63,290,506,-168,1,0,53,37,800,0,53298,1
2,31736,30613,32206,80409,5763,-4595,-1241,-363,12,-195,67,281,499,-163,1,0,53,37,840,0,53298,1
2,31749,30616,32225,80410,5772,-4588,-1247,-349,-14,-164,59,287,493,-167,1,0,53,37,880,0,53298,1
2,31745,30609,32216,80411,5783,-4575,-1233,-336,-23,-138,37,283,505,-165,1,0,53,37,920,0,53298,1
2,31735,30603,32210,80412,5783,-4599,-1258,-340,-26,-126,21,284,496,-160,1,0,53,37,960,0,53298,1
1,31732,30598,32200,80413,5085,-4583,-1246,-347,-42,-145,38,277,505,-161,1,0,53,38,0,1,53298,1
2,31741,30605,32215,80414,5096,-4592,-1239,-342,-36,-175,56,278,504,-154,1,0,53,38,40,1,53298,1
2,31736,30607,32209,80415,5106,-4592,-1251,-338,8,-179,71,281,495,-161,1,0,53,38,80,1,53298,1
2,31729,30602,32202,80416,5117,-4589,-1232,-323,14,-161,69,289,497,-161,1,0,53,38,120,1,53298,1
2,31714,30594,32189,80417,5128,-4601,-1241,-330,-14,-127,57,286,492,-162,1,0,53,38,160,1,53298,1
2,31721,30586,32193,80418,5139,-4591,-1254,-315,-3,-83,32,281,497,-161,1,0,53,38,200,1,53298,1
2,31717,30585,32190,80419,5150,-4597,-1236,-325,-6,-33,10,281,505,-159,1,0,53,38,240,1,53298,1
2,31717,30579,32187,80420,5160,-4596,-1240,-319,-12,-7,15,283,509,-171,1,0,53,38,280,1,53298,1
2,31707,30571,32179,80421,5171,-4583,-1237,-332,-21,11,24,279,497,-157,1,0,53,38,320,1,53298,1
2,31717,30572,32192,80422,5181,-4589,-1236,-333,-6,16,28,290,504,-162,1,0,53,38,360,1,53298,1
2,31708,30565,32178,80423,5192,-4591,-1243,-327,0,1,28,279,503,-163,1,0,53,38,400,1,53298,1
2,31702,30564,32182,80424,5202,-4587,-1238,-324,-15,-20,24,275,495,-159,1,0,53,38,440,1,53298,1
2,31717,30575,32192,80425,5213,-4599,-1245,-336,-15,-24,24,278,496,-162,1,0,53,38,480,1,53298,1
2,31715,30569,32181,80426,5223,-4589,-1231,-329,-7,-20,21,283,503,-157,1,0,53,38,520,1,53298,1
2,31720,30574,32186,80427,5233,-4598,-1245,-330,-4,-24,28,276,490,-162,1,0,53,38,560,1,53298,1
2,31720,30574,32190,80428,5243,-4584,-1242,-337,-2,-20,32,281,499,-165,1,0,53,38,600,1,53298,1
2,31729,30578,32197,80429,5255,-4594,-1233,-334,-1,-11,28,280,506,-158,1,0,53,38,640,1,53298,1
2,31719,30573,32182,80430,5265,-4584,-1243,-317,-8,-6,19,281,497,-163,1,0,53,38,680,1,53298,1
2,31715,30565,32180,80431,5276,-4595,-1235,-335,-11,-5,6,281,497,-165,1,0,53,38,720,1,53298,1
2,31722,30576,32189,80432,5286,-4586,-1241,-337,-12,-21,31,280,502,-154,1,0,53,38,760,1,53298,1
2,31725,30571,32190,80433,5297,-4593,-1230,-321,0,-20,29,274,504,-156,1,0,53,38,800,1,53298,1
2,31726,30570,32194,80434,5307,-4577,-1245,-335,-11,-15,24,284,498,-164,1,0,53,38,840,1,53298,1
2,31737,30578,32200,80435,5318,-4598,-1246,-329,-20,-18,20,285,491,-167,1,0,53,38,880,1,53298,1
2,31746,30588,32206,80436,5329,-4594,-1241,-332,-2,-24,23,279,499,-159,1,0,53,38,920,1,53298,1
2,31747,30587,32213,80437,5329,-4602,-1243,-335,-2,-33,25,268,494,-166,1,0,53,38,960,1,53298,1
1,31742,30584,32212,80438,4635,-4591,-1239,-331,-13,-25,17,286,490,-172,1,0,53,39,0,1,53298,1
2,31745,30586,32212,80439,4645,-4588,-1232,-321,-2,-17,30,280,502,-160,1,0,53,39,40,1,53298,1
2,31746,30589,32212,80440,4656,-4595,-1247,-343,-6,-17,19,279,495,-163,1,0,53,39,80,1,53298,1
2,31753,30598,32223,80441,4666,-4586,-1232,-322,-13,-20,30,275,503,-161,1,0,53,39,120,1,53298,1
2,31746,30589,32212,80442,4677,-4597,-1240,-330,-1,-20,28,282,498,-164,1,0,53,39,160,1,53298,1
2,31741,30585,32210,80443,4688,-4597,-1247,-319,-3,-20,25,284,502,-164,1,0,53,39,200,1,53298,1
2,31742,30594,32208,80444,4699,-4591,-1240,-306,-10,-24,22,278,496,-168,1,0,53,39,240,1,53298,1
2,31738,30594,32211,80445,4711,-4597,-1249,-320,-4,-30,41,280,500,-162,1,0,53,39,280,1,53298,1
2,31759,30604,32223,80446,4722,-4593,-1261,-339,7,-29,52,280,496,-162,1,0,53,39,320,1,53298,1
2,31753,30605,32221,80447,4733,-4596,-1238,-339,2,-53,48,275,497,-169,1,0,53,39,360,1,53298,1
2,31767,30605,32227,80448,4745,-4596,-1232,-315,1,-42,34,281,491,-161,1,0,53,39,400,1,53298,1
2,31762,30606,32220,80449,4756,-4583,-1240,-322,-17,-39,31,282,496,-158,1,0,53,39,440,1,53298,1
2,31752,30604,32222,80450,4767,-4590,-1232,-322,-7,-35,45,271,505,-163,1,0,53,39,480,1,53298,1
2,31760,30605,32221,80451,4778,-4606,-1251,-319,12,-41,64,279,499,-161,1,0,53,39,520,1,53298,1
2,31765,30605,32226,80452,4789,-4602,-1237,-318,-5,-55,64,273,499,-155,1,0,53,39,560,1,53298,1
2,31755,30597,32219,80453,4800,-4585,-1246,-341,-17,-58,45,277,501,-155,1,0,53,39,600,1,53298,1
2,31755,30609,32219,80454,4811,-4599,-1231,-321,-13,-49,42,280,496,-156,1,0,53,39,640,1,53298,1
2,31760,30611,32230,80455,4822,-4596,-1249,-319,-29,-27,25,282,498,-164,1,0,53,39,680,1,53298,1
2,31762,30623,32235,80456,4833,-4600,-1243,-312,-13,-31,25,281,495,-159,1,0,53,39,720,1,53298,1
2,31759,30621,32230,80457,4844,-4590,-1242,-329,-3,-18,26,280,508,-166,1,0,53,39,760,1,53298,1
2,31756,30615,32222,80458,4854,-4589,-1240,-322,-13,-29,29,279,499,-157,1,0,53,39,800,1,53298,1
2,31759,30614,32226,80459,4865,-4592,-1235,-316,-13,-32,29,281,499,-167,1,0,53,39,840,1,53298,1
2,31760,30615,32229,80460,4875,-4589,-1234,-314,-6,-29,24,284,494,-154,1,0,53,39,880,1,53298,1
2,31763,30622,32228,80461,4885,-4584,-1235,-320,-17,-21,22,285,507,-155,1,0,53,39,920,1,53298,1
2,31766,30620,32230,80462,4885,-4576,-1231,-330,-15,-24,20,280,494,-162,1,0,53,39,960,1,53298,1
1,31762,30625,32231,80463,4184,-4597,-1239,-329,-8,-24,32,286,494,-154,1,0,53,40,0,1,53298,1
2,31779,30625,32238,80464,4194,-4594,-1234,-323,-4,-30,31,276,498,-156,1,0,53,40,40,1,53298,1
2,31777,30626,32248,80465,4204,-4591,-1231,-317,-23,-41,49,274,494,-154,1,0,53,40,80,1,53298,1
2,31777,30624,32238,80466,4215,-4609,-1245,-303,-21,-80,79,288,500,-158,1,0,53,40,120,1,53298,1
2,31784,30630,32250,80467,4227,-4611,-1207,-320,18,-152,193,280,492,-162,1,0,53,40,160,1,53298,1
2,31782,30634,32250,80468,4239,-4592,-1240,-306,184,-297,487,273,499,-161,1,0,53,40,200,1,53298,1
2,31746,33474,32218,80469,4251,-4738,-1199,-353,-151,-583,861,286,504,-162,1,0,53,40,240,1,53298,1
2,31731,35047,32211,80470,4264,-4680,-1278,-206,-1638,-1384,1480,276,492,-156,1,0,53,40,280,1,53298,1
2,31613,32092,32104,80471,4276,-4654,-1020,-100,-3261,-1758,1452,272,498,-150,1,0,53,40,320,1,53298,1
2,31604,33726,32098,80472,4288,-4699,-517,-436,-1715,-1774,1666,271,497,-159,1,0,53,40,360,1,53298,1
2,31601,32476,32095,80473,4301,-4735,143,-871,-2964,-1021,2529,257,501,-151,1,0,53,40,400,1,53298,1
2,31553,32292,32041,80474,4314,-4651,122,-951,-1735,528,3883,246,502,-160,1,0,53,40,440,1,53298,1
2,31541,32731,32042,80475,4325,-4636,234,-621,484,2421,5651,246,506,-156,1,0,53,40,480,1,53298,1
2,31511,32951,32016,80476,4338,-4625,181,-497,281,3656,7263,219,507,-165,1,0,53,40,520,1,53298,1
2,31493,32803,31999,80477,4349,-4366,114,-560,-836,4153,8541,202,514,-174,1,0,53,40,560,1,53298,1
2,31505,33121,32010,80478,4362,-4415,-111,-595,-1419,4456,9727,166,508,-178,1,0,53,40,600,1,53298,1
2,31487,32785,32001,80479,4374,-4386,-170,-719,-1091,4803,10503,142,514,-184,1,0,53,40,640,1,53298,1
2,31505,33903,32020,80480,4386,-4575,-6,-713,636,5152,10752,125,501,-191,1,0,53,40,680,1,53298,1
2,31506,34742,32022,80481,4398,-4561,214,-710,1352,5145,10580,105,497,-203,1,0,53,40,720,1,53298,1
2,31522,34389,32051,80482,4410,-4517,377,-854,594,4945,10108,80,494,-216,1,0,53,40,760,1,53298,1
2,31521,33916,32043,80483,4422,-4538,596,-913,93,4755,9488,64,488,-234,1,0,53,40,800,1,53298,1
2,31577,34880,32060,80484,4435,-4210,1081,-820,183,4501,9033,56,470,-234,1,0,53,40,840,1,53298,1
2,31491,31291,32002,80485,4447,-4114,1019,-880,634,4238,9134,29,457,-249,1,0,53,40,880,1,53298,1
2,31574,34908,32078,80486,4458,-4484,537,-799,1302,3910,8654,31,449,-247,1,0,53,40,920,1,53298,1
2,31554,34933,32066,80487,4458,-4733,766,-979,-82,2738,7082,12,440,-254,1,0,53,40,960,1,53298,1
1,31537,34882,32065,80488,3733,-4156,971,-1135,459,924,5222,12,434,-266,1,0,53,41,0,0,53298,1
2,31550,34830,32045,80489,3745,-3595,1220,-1479,196,38,4006,4,428,-270,1,0,53,41,40,0,53298,1
2,31544,34812,32084,80490,3758,-3586,1409,-1768,-876,536,3615,-1,429,-263,1,0,53,41,80,0,53298,1
2,31566,34892,32080,80491,3769,-3657,1588,-1739,-779,1270,3516,3,421,-271,1,0,53,41,120,0,53298,1
2,31555,34903,32062,80492,3780,-3609,1603,-1768,-218,1523,3122,-1,409,-281,1,0,53,41,160,0,53298,1
2,31537,34811,32046,80493,3791,-3349,1629,-1559,711,1804,2720,-10,418,-282,1,0,53,41,200,0,53298,1
2,31540,34806,32053,80494,3801,-3394,1864,-1507,682,2205,2716,-15,403,-285,1,0,53,41,240,0,53298,1
2,31555,34811,32079,80495,3811,-3431,1647,-1238,743,2083,2773,-18,402,-288,1,0,53,41,280,0,53298,1
2,31580,34862,32094,80496,3822,-3352,1697,-1271,23,1730,2361,-13,403,-283,1,0,53,41,320,0,53298,1
2,31580,34863,32091,80497,3833,-3287,1724,-1248,-377,1265,1956,-24,400,-286,1,0,53,41,360,0,53298,1
2,31574,34856,32082,80498,3843,-3164,1723,-1357,-313,749,1677,-28,398,-294,1,0,53,41,400,0,53298,1
2,31581,34835,32092,80499,3854,-3237,1751,-1478,-100,556,1456,-27,391,-289,1,0,53,41,440,0,53298,1
2,31610,34905,32110,80500,3864,-3133,1808,-1519,-64,199,951,-31,393,-293,1,0,53,41,480,0,53298,1
2,31589,34741,32061,80501,3874,-3203,1851,-1679,-428,278,871,-21,387,-289,1,0,53,41,520,0,53298,1
2,31583,34405,32051,80502,3885,-3129,1865,-1620,-201,274,638,-31,385,-297,1,0,53,41,560,0,53298,1
2,31572,34218,32048,80503,3896,-3211,1706,-1576,-217,326,362,-37,393,-289,1,0,53,41,600,0,53298,1
2,31578,34310,32061,80504,3906,-3071,1797,-1439,389,130,-152,-32,390,-290,1,0,53,41,640,0,53298,1
2,31589,34334,32061,80505,3916,-3084,1870,-1397,407,119,-175,-27,399,-289,1,0,53,41,680,0,53298,1
2,31585,34329,32063,80506,3927,-3239,1690,-1389,442,-141,-376,-33,393,-287,1,0,53,41,720,0,53298,1
2,31601,34346,32069,80507,3936,-3082,1946,-1523,356,-726,-1057,-18,386,-286,1,0,53,41,760,0,53298,1
2,31593,34293,32064,80508,3947,-3203,1900,-1583,178,-660,-881,-24,394,-294,1,0,53,41,800,0,53298,1
2,31616,34025,32079,80509,3958,-3254,1764,-1600,68,-707,-890,-18,398,-290,1,0,53,41,840,0,53298,1
2,31635,34299,32082,80510,3969,-3134,1992,-1650,434,-719,-1172,-27,403,-289,1,0,53,41,880,0,53298,1
2,31656,34239,32129,80511,3980,-3284,1968,-1633,668,-451,-716,-19,401,-285,1,0,53,41,920,0,53298,1
2,31696,34336,32162,80512,3980,-3336,2080,-1678,252,-484,-531,-14,404,-290,1,0,53,41,960,0,53298,1
1,31730,34397,32175,80513,3283,-3275,2077,-1720,-428,-501,-458,-29,403,-289,1,0,53,42,0,0,53298,1
2,31743,34132,32208,80514,3295,-3287,1950,-1757,-763,-225,54,-25,401,-279,1,0,53,42,40,0,53298,1
2,31789,33797,32261,80515,3306,-3318,1896,-1658,-289,99,215,-25,403,-281,1,0,53,42,80,0,53298,1
2,31877,33828,32332,80516,3318,-3219,1956,-1579,-13,192,269,-28,400,-296,1,0,53,42,120,0,53298,1
2,31953,34016,32456,80517,3329,-3282,1880,-1500,-137,346,413,-29,403,-287,1,0,53,42,160,0,53298,1
2,31974,33528,32463,80518,3341,-3238,1877,-1502,-255,208,241,-29,399,-285,1,0,53,42,200,0,53298,1
2,31989,34056,32484,80519,3353,-3220,1869,-1521,-463,116,192,-22,400,-284,1,0,53,42,240,0,53298,1
2,32015,35168,32511,80520,3364,-3231,1839,-1500,-227,87,202,-22,394,-286,1,0,53,42,280,0,53298,1
2,32015,35444,32508,80521,3374,-3235,1802,-1473,-69,20,51,-21,399,-287,1,0,53,42,320,0,53298,1
2,31991,35164,32480,80522,3385,-3208,1813,-1499,-40,-74,-85,-24,404,-284,1,0,53,42,360,0,53298,1
2,32009,35586,32492,80523,3396,-3255,1939,-1562,-143,-100,-48,-25,399,-283,1,0,53,42,400,0,53298,1
2,32005,35558,32497,80524,3407,-3268,1954,-1577,-204,-64,88,-25,399,-287,1,0,53,42,440,0,53298,1
2,32011,35627,32509,80525,3418,-3221,2006,-1621,-146,-48,92,-22,404,-282,1,0,53,42,480,0,53298,1
2,31970,35553,32472,80526,3428,-3205,2025,-1643,-143,93,349,-28,396,-288,1,0,53,42,520,0,53298,1
2,31973,35398,32443,80527,3439,-3280,1904,-1581,-50,257,578,-21,389,-283,1,0,53,42,560,0,53298,1
2,31964,35527,32452,80528,3450,-3198,1920,-1549,78,208,435,-23,395,-291,1,0,53,42,600,0,53298,1
2,31917,35332,32420,80529,3462,-3216,1775,-1499,-137,237,468,-25,403,-287,1,0,53,42,640,0,53298,1
2,31933,35527,32421,80530,3474,-3199,1762,-1467,-75,106,219,-27,401,-283,1,0,53,42,680,0,53298,1
2,31962,35561,32454,80531,3485,-3179,1828,-1464,-152,-32,-17,-23,401,-289,1,0,53,42,720,0,53298,1
2,31974,35623,32461,80532,3496,-3221,1874,-1491,-315,-129,-83,-16,400,-284,1,0,53,42,760,0,53298,1
2,31969,35582,32451,80533,3506,-3247,1905,-1508,-275,-218,-191,-19,395,-287,1,0,53,42,800,0,53298,1
2,31970,35581,32463,80534,3517,-3211,1957,-1540,-185,-270,-242,-25,393,-283,1,0,53,42,840,0,53298,1
2,31917,35475,32425,80535,3529,-3256,1932,-1546,-147,-195,-110,-31,391,-289,1,0,53,42,880,0,53298,1
2,31921,35477,32410,80536,3540,-3223,1947,-1552,10,-212,-167,-27,405,-289,1,0,53,42,920,0,53298,1
2,31911,35397,32401,80537,3540,-3221,1922,-1553,-142,-180,-95,-25,389,-281,1,0,53,42,960,0,53298,1
1,31899,35365,32385,80538,2834,-3236,1897,-1535,-152,-137,-103,-18,396,-284,1,0,53,43,0,0,53298,1
2,31891,35266,32381,80539,2845,-3217,1925,-1530,-44,-137,-66,-24,398,-286,1,0,53,43,40,0,53298,1
2,31868,34907,32348,80540,2856,-3235,1899,-1512,-89,-61,-31,-18,406,-280,1,0,53,43,80,0,53298,1
2,31831,33986,32315,80541,2867,-3212,1993,-1505,-36,-94,48,-19,401,-279,1,0,53,43,120,0,53298,1
2,31845,33658,32329,80542,2878,-3263,1945,-1458,-229,-103,43,-32,394,-294,1,0,53,43,160,0,53298,1
2,31840,34362,32317,80543,2890,-3205,1907,-1511,-372,-211,59,-25,401,-287,1,0,53,43,200,0,53298,1
2,31861,34469,32340,80544,2901,-3263,1819,-1532,-71,-100,-99,-24,396,-280,1,0,53,43,240,0,53298,1
2,31826,34281,32309,80545,2912,-3237,1913,-1516,200,-94,-142,-23,399,-287,1,0,53,43,280,0,53298,1
2,31835,34198,32318,80546,2923,-3262,1927,-1514,-65,-108,-167,-30,404,-268,1,0,53,43,320,0,53298,1
2,31814,34350,32298,80547,2934,-3293,1846,-1479,-353,-178,-475,-27,395,-277,1,0,53,43,360,0,53298,1
2,31798,33957,32270,80548,2946,-3346,1708,-1397,-366,-336,-1076,-19,397,-277,1,0,53,43,400,0,53298,1
2,31795,33786,32271,80549,2957,-3300,1695,-1287,-417,-717,-1660,-28,404,-268,1,0,53,43,440,0,53298,1
2,31815,34188,32286,80550,2967,-3329,1647,-1339,-852,-1150,-1972,-13,407,-263,1,0,53,43,480,0,53298,1
2,31853,33755,32304,80551,2978,-3341,1585,-1321,-606,-1230,-2476,-14,412,-284,1,0,53,43,520,0,53298,1
2,31847,33844,32310,80552,2989,-3513,1313,-1191,257,-1286,-3489,-3,409,-267,1,0,53,43,560,0,53298,1
2,31852,32918,32313,80553,3001,-3384,1489,-1281,1101,-1685,-3809,-12,424,-256,1,0,53,43,600,0,53298,1
2,31848,32075,32307,80554,3012,-3598,1515,-1413,1368,-1495,-4179,2,432,-266,1,0,53,43,640,0,53298,1
2,31843,31359,32318,80555,3023,-3852,1732,-1539,1362,-1535,-4161,8,436,-252,1,0,53,43,680,0,53298,1
2,31821,32823,32298,80556,3034,-3630,2140,-1703,801,-1872,-4218,5,439,-257,1,0,53,43,720,0,53298,1
2,31864,35194,32353,80557,3044,-3885,2213,-1747,385,-1157,-2880,6,438,-256,1,0,53,43,760,0,53298,1
2,31756,32768,32235,80558,3056,-4429,1719,-1624,-607,-773,-2265,19,447,-253,1,0,53,43,800,0,53298,1
2,31757,34620,32245,80559,3067,-4735,976,-1377,-506,-1046,-3001,23,447,-261,1,0,53,43,840,0,53298,1
2,31715,34179,32186,80560,3078,-4503,452,-1142,1184,-1692,-4726,34,464,-252,1,0,53,43,880,0,53298,1
2,31721,34238,32197,80561,3089,-4698,96,-688,3929,-1939,-6773,58,464,-254,1,0,53,43,920,0,53298,1
2,31720,34702,32198,80562,3089,-4469,105,-480,4008,-3923,-9066,80,470,-246,1,0,53,43,960,0,53298,1
1,31737,34720,32217,80563,2384,-3989,137,-569,1706,-5131,-11220,112,492,-230,1,0,53,44,0,0,53298,1
2,31797,34969,32260,80564,2395,-3926,200,-644,170,-5422,-11478,134,496,-234,1,0,53,44,40,0,53298,1
2,31743,34843,32206,80565,2405,-4025,-4,-668,-314,-5602,-11638,152,504,-208,1,0,53,44,80,0,53298,1
2,31749,34883,32204,80566,2416,-4167,-12,-770,150,-5516,-11696,180,502,-210,1,0,53,44,120,0,53298,1
2,31759,34845,32206,80567,2427,-4216,-16,-922,547,-4954,-11409,202,500,-206,1,0,53,44,160,0,53298,1
2,31763,34739,32195,80568,2438,-4153,209,-1072,1094,-3785,-10072,227,495,-179,1,0,53,44,200,0,53298,1
2,31726,34753,32180,80569,2448,-4265,82,-1041,1503,-2735,-8190,237,497,-175,1,0,53,44,240,0,53298,1
2,31725,34925,32161,80570,2459,-4507,120,-1096,2108,-1824,-6288,257,497,-177,1,0,53,44,280,0,53298,1
2,31680,34859,32123,80571,2470,-4506,134,-810,3056,-1481,-4330,271,499,-181,1,0,53,44,320,0,53298,1
2,31629,34580,32080,80572,2482,-4779,-477,-709,1625,-1164,-3039,272,494,-174,1,0,53,44,360,0,53298,1
2,31563,33833,32001,80573,2493,-4904,-551,-629,1392,-1459,-2300,280,500,-164,1,0,53,44,400,0,53298,1
2,31495,33891,31980,80574,2503,-4336,-609,-506,-341,-2068,-1754,284,500,-168,1,0,53,44,440,0,53298,1
2,31426,31583,31910,80575,2514,-4139,-485,-484,-4439,-1222,-971,291,501,-163,1,0,53,44,480,0,53298,1
2,31469,31698,31939,80576,2525,-3917,-3398,-1148,-7138,825,50,295,501,-161,1,0,53,44,520,0,53298,1
2,31444,31519,31899,80577,2536,-7214,-557,561,-3562,-350,-650,294,504,-160,1,0,53,44,560,0,53298,1
2,31420,31453,31889,80578,2547,-4472,-1575,-330,502,-135,-778,285,495,-163,1,0,53,44,600,0,53298,1
2,31454,31679,31900,80579,2557,-4210,-1163,-276,851,-217,-234,286,506,-154,1,0,53,44,640,0,53298,1
2,31453,32365,31895,80580,2568,-4782,-1286,-163,468,640,-349,279,513,-157,1,0,53,44,680,0,53298,1
2,31459,32906,31877,80581,2579,-4712,-1264,-430,560,902,-505,295,497,-159,1,0,53,44,720,0,53298,1
2,31449,32157,31874,80582,2590,-4492,-1287,-396,574,850,-337,281,503,-175,1,0,53,44,760,0,53298,1
2,31462,33370,31899,80583,2601,-4582,-1352,-428,12,912,-145,285,493,-173,1,0,53,44,800,0,53298,1
2,31456,33459,31880,80584,2611,-4612,-1326,-453,268,674,-78,292,504,-166,1,0,53,44,840,0,53298,1
2,31448,33472,31879,80585,2620,-4563,-1285,-420,690,272,6,294,506,-174,1,0,53,44,880,0,53298,1
2,31454,33844,31882,80586,2630,-4616,-1285,-301,589,301,155,282,504,-170,1,0,53,44,920,0,53298,1
2,31465,34165,31875,80587,2630,-4594,-1277,-393,644,159,113,289,505,-173,1,0,53,44,960,0,53298,1
1,31463,34136,31878,80588,1934,-4530,-1341,-571,409,-196,48,294,496,-170,1,0,53,45,0,0,53298,1
2,31461,34482,31942,80589,1944,-4571,-1313,-391,352,-255,69,291,505,-159,1,0,53,45,40,0,53298,1
2,31461,33882,31868,80590,1954,-4573,-1323,-425,256,-302,85,292,502,-168,1,0,53,45,80,0,53298,1
2,31440,33834,31849,80591,1963,-4569,-1318,-443,106,-319,66,288,496,-162,1,0,53,45,120,0,53298,1
2,31445,33997,31853,80592,1973,-4565,-1301,-393,37,-303,52,294,506,-174,1,0,53,45,160,0,53298,1
2,31453,34166,31861,80593,1983,-4572,-1295,-374,22,-279,35,291,493,-165,1,0,53,45,200,0,53298,1
2,31444,34005,31849,80594,1993,-4577,-1312,-367,-42,-235,35,287,501,-161,1,0,53,45,240,0,53298,1
2,31434,33940,31836,80595,2003,-4567,-1289,-374,-40,-228,32,291,507,-163,1,0,53,45,280,0,53298,1
2,31429,33588,31831,80596,2013,-4589,-1297,-370,-26,-237,25,287,505,-163,1,0,53,45,320,0,53298,1
2,31423,33772,31823,80597,2023,-4585,-1304,-357,-24,-266,40,287,501,-161,1,0,53,45,360,0,53298,1
2,31406,33787,31804,80598,2033,-4583,-1306,-373,-23,-297,60,291,503,-159,1,0,53,45,400,0,53298,1
2,31390,33310,31791,80599,2044,-4583,-1315,-361,-12,-311,76,297,503,-173,1,0,53,45,440,0,53298,1
2,31391,32988,31787,80600,2055,-4595,-1297,-351,-15,-301,79,289,501,-153,1,0,53,45,480,0,53298,1
2,31396,33665,31792,80601,2065,-4585,-1312,-340,-19,-278,90,293,499,-159,1,0,53,45,520,0,53298,1
2,31376,33730,31770,80602,2075,-4579,-1285,-312,-37,-244,80,285,489,-153,1,0,53,45,560,0,53298,1
2,31360,33536,31751,80603,2086,-4583,-1292,-325,-25,-218,68,292,502,-164,1,0,53,45,600,0,53298,1
2,31355,33195,31744,80604,2097,-4587,-1290,-307,-35,-189,62,292,498,-166,1,0,53,45,640,0,53298,1
2,31347,33279,31738,80605,2108,-4575,-1302,-314,-6,-152,57,287,497,-163,1,0,53,45,680,0,53298,1
2,31341,32978,31735,80606,2119,-4578,-1291,-319,-244,-112,51,291,499,-161,1,0,53,45,720,0,53298,1
2,31337,33124,31727,80607,2130,-4593,-1297,-315,15,-62,33,291,503,-163,1,0,53,45,760,0,53298,1
2,31344,33861,31735,80608,2141,-4595,-1300,-311,247,-3,19,293,497,-157,1,0,53,45,800,0,53298,1
2,31335,33740,31721,80609,2151,-4585,-1291,-301,-21,30,-1,288,498,-154,1,0,53,45,840,0,53298,1
2,31320,33391,31707,80610,2161,-4592,-1284,-300,-16,29,-1,284,502,-158,1,0,53,45,880,0,53298,1
2,31315,33476,31706,80611,2172,-4600,-1318,-328,-16,5,0,289,507,-161,1,0,53,45,920,0,53298,1
2,31310,33061,31698,80612,2172,-4589,-1295,-315,-2,-21,19,297,497,-161,1,0,53,45,960,0,53298,1
1,31307,32844,31689,80613,1484,-4585,-1301,-316,3,-48,28,288,504,-162,1,0,53,46,0,0,53298,1
2,31310,33317,31695,80614,1495,-4583,-1307,-311,0,-58,24,291,497,-165,1,0,53,46,40,0,53298,1
2,31309,33372,31696,80615,1505,-4594,-1297,-328,-14,-64,20,292,498,-162,1,0,53,46,80,0,53298,1
2,31308,32955,31691,80616,1516,-4584,-1298,-313,8,-72,36,284,496,-156,1,0,53,46,120,0,53298,1
2,31300,32968,31687,80617,1527,-4592,-1295,-292,26,-71,61,298,502,-156,1,0,53,46,160,0,53298,1
2,31302,32613,31689,80618,1538,-4592,-1293,-291,21,-43,67,282,500,-160,1,0,53,46,200,0,53298,1
2,31301,32842,31689,80619,1550,-4591,-1284,-312,-16,-30,45,298,500,-158,1,0,53,46,240,0,53298,1
2,31303,32720,31689,80620,1561,-4590,-1274,-293,-19,-12,-15,285,493,-151,1,0,53,46,280,0,53298,1
2,31300,32446,31683,80621,1571,-4582,-1282,-308,-45,39,-44,291,505,-159,1,0,53,46,320,0,53298,1
2,31299,32866,31681,80622,1582,-4583,-1303,-312,-45,61,-22,293,497,-153,1,0,53,46,360,0,53298,1
2,31296,32789,31680,80623,1593,-4590,-1300,-321,-30,43,19,286,498,-166,1,0,53,46,400,0,53298,1
2,31293,32772,31679,80624,1603,-4575,-1298,-317,13,-14,57,297,495,-161,1,0,53,46,440,0,53298,1
2,31295,32848,31677,80625,1614,-4605,-1307,-312,32,-88,88,292,504,-158,1,0,53,46,480,0,53298,1
2,31292,32809,31675,80626,1625,-4580,-1279,-300,37,-143,94,300,500,-162,1,0,53,46,520,0,53298,1
2,31289,32812,31672,80627,1636,-4587,-1301,-296,31,-159,74,289,501,-157,1,0,53,46,560,0,53298,1
2,31294,33388,31676,80628,1647,-4593,-1293,-294,-12,-144,69,292,500,-162,1,0,53,46,600,0,53298,1
2,31292,33294,31670,80629,1658,-4590,-1285,-294,-29,-125,70,293,499,-159,1,0,53,46,640,0,53298,1
2,31293,33088,31674,80630,1669,-4600,-1280,-292,-72,-133,84,286,492,-164,1,0,53,46,680,0,53298,1
2,31297,32985,31680,80631,1680,-4594,-1301,-300,-70,-131,107,282,496,-168,1,0,53,46,720,0,53298,1
2,31293,32758,31670,80632,1692,-4589,-1294,-296,-19,-119,122,287,499,-159,1,0,53,46,760,0,53298,1
2,31285,32657,31670,80633,1704,-4582,-1290,-291,5,-107,123,279,495,-157,1,0,53,46,800,0,53298,1
2,31286,32757,31664,80634,1715,-4581,-1266,-294,-21,-139,109,293,505,-167,1,0,53,46,840,0,53298,1
2,31287,32693,31669,80635,1726,-4592,-1274,-278,-30,-166,89,291,495,-161,1,0,53,46,880,0,53298,1
2,31284,32932,31665,80636,1737,-4586,-1273,-289,-4,-144,60,291,505,-157,1,0,53,46,920,0,53298,1
2,31287,33243,31669,80637,1737,-4595,-1272,-274,-10,-81,39,290,496,-152,1,0,53,46,960,0,53298,1
1,31282,32980,31658,80638,1036,-4595,-1285,-263,-17,1,33,281,489,-163,1,0,53,47,0,1,53298,1
2,31282,32802,31661,80639,1046,-4609,-1285,-279,-36,33,35,280,500,-158,1,0,53,47,40,1,53298,1
2,31273,32314,31655,80640,1057,-4605,-1288,-306,-71,1,42,285,499,-165,1,0,53,47,80,1,53298,1
2,31285,32180,31668,80641,1067,-4600,-1531,-297,-15,-52,53,286,496,-162,1,0,53,47,120,1,53298,1
2,31284,32071,31664,80642,1078,-4591,-1273,-281,-4,-115,79,294,494,-150,1,0,53,47,160,1,53298,1
2,31281,32006,31665,80643,1089,-4596,-1273,-271,4,-164,143,284,494,-156,1,0,53,47,200,1,53298,1
2,31283,31953,31663,80644,1101,-4615,-1234,-244,112,-236,383,280,502,-152,1,0,53,47,240,1,53298,1
2,31275,32417,31663,80645,1111,-4620,-1245,-144,-13,-556,1128,286,498,-148,1,0,53,47,280,1,53298,1
2,31275,32804,31661,80646,1122,-4859,-1115,-589,-559,-1279,1933,281,499,-151,1,0,53,47,320,1,53298,1
2,31258,32747,31659,80647,1134,-4704,-1213,-411,-1311,-1220,1916,283,499,-151,1,0,53,47,360,1,53298,1
2,31250,32655,31655,80648,1146,-4583,-294,-957,-1570,-334,3329,276,506,-156,1,0,53,47,400,1,53298,1
2,31250,32763,31655,80649,1157,-4917,-93,-1109,-2461,1345,5177,261,503,-151,1,0,53,47,440,1,53298,1
2,31242,32726,31650,80650,1167,-4774,100,-962,-780,3265,6885,251,509,-157,1,0,53,47,480,1,53298,1
2,31237,32692,31643,80651,1178,-4492,356,-858,-125,5030,8808,225,513,-167,1,0,53,47,520,1,53298,1
2,31227,32869,31636,80652,1188,-4201,568,-731,-419,6299,10832,208,522,-180,1,0,53,47,560,1,53298,1
2,31213,32820,31629,80653,1199,-4294,439,-761,-806,7015,12459,159,511,-173,1,0,53,47,600,1,53298,1
2,31204,32745,31618,80654,1211,-4402,331,-803,-543,7339,13648,145,515,-201,1,0,53,47,640,1,53298,1
2,31190,32385,31611,80655,1222,-4669,270,-936,-514,7374,14192,110,524,-214,1,0,53,47,680,1,53298,1
2,31169,32395,31603,80656,1234,-4846,376,-1165,-614,7147,13820,78,506,-228,1,0,53,47,720,1,53298,1
2,31140,32820,31585,80657,1244,-4974,556,-1290,-724,6943,13209,60,488,-246,1,0,53,47,760,1,53298,1
2,31120,32404,31564,80658,1255,-4839,1218,-1289,-1808,6628,13031,38,468,-256,1,0,53,47,800,1,53298,1
2,31107,32283,31547,80659,1266,-4645,1178,-1365,-2293,6290,12858,7,457,-273,1,0,53,47,840,1,53298,1
2,31089,32515,31530,80660,1276,-4398,1282,-1130,-1465,5968,12360,-3,431,-285,1,0,53,47,880,1,53298,1
2,31082,32314,31522,80661,1287,-4247,1078,-1028,204,4894,10977,-21,411,-289,1,0,53,47,920,1,53298,1
2,31071,33408,31501,80662,1287,-4076,983,-635,1171,2939,8602,-31,393,-299,1,0,53,47,960,1,53298,1
1,31068,33006,31491,80663,586,-3450,1540,-1634,-2888,1715,7059,-37,379,-287,1,0,53,48,0,0,53298,1
2,31067,33090,31490,80664,596,-3298,1476,-1666,-2495,1663,6186,-32,368,-300,1,0,53,48,40,0,53298,1
2,31066,33035,31488,80665,606,-3000,1673,-1665,567,1424,4852,-40,358,-300,1,0,53,48,80,0,53298,1
2,31072,33141,31493,80666,617,-2729,2054,-1813,1684,1630,3843,-42,362,-298,1,0,53,48,120,0,53298,1
2,31072,33104,31496,80667,628,-2636,2063,-1079,2370,1493,3456,-39,349,-315,1,0,53,48,160,0,53298,1
2,31089,32940,31513,80668,639,-2700,2833,-2315,-1742,1236,3262,-43,347,-307,1,0,53,48,200,0,53298,1
2,31095,33026,31519,80669,650,-2787,1996,-1498,-823,1070,3242,-45,337,-311,1,0,53,48,240,0,53298,1
2,31107,33042,31530,80670,661,-2593,1967,-1978,-15,401,2175,-49,337,-299,1,0,53,48,280,0,53298,1
2,31098,33038,31527,80671,671,-2701,1988,-1698,1905,793,1689,-44,336,-306,1,0,53,48,320,0,53298,1
2,31100,33066,31525,80672,682,-2488,2124,-1657,1943,700,989,-42,334,-314,1,0,53,48,360,0,53298,1
2,31108,33111,31537,80673,694,-2427,2015,-1641,196,20,-130,-48,332,-318,1,0,53,48,400,0,53298,1
2,31104,33058,31535,80674,706,-2427,1973,-1709,-1031,-577,-912,-45,337,-313,1,0,53,48,440,0,53298,1
2,31100,33024,31520,80675,718,-2294,2109,-1787,-906,-495,-1147,-55,333,-299,1,0,53,48,480,0,53298,1
2,31095,33018,31518,80676,730,-2467,2332,-1765,-193,-623,-1502,-48,332,-316,1,0,53,48,520,0,53298,1
2,31096,32892,31515,80677,741,-2516,2633,-1809,-253,-633,-1516,-46,338,-304,1,0,53,48,560,0,53298,1
2,31090,32930,31510,80678,752,-2507,2562,-1867,-874,-475,-1099,-45,337,-297,1,0,53,48,600,0,53298,1
2,31088,32877,31510,80679,763,-2607,2637,-1891,-630,-459,-895,-44,342,-310,1,0,53,48,640,0,53298,1
2,31088,32847,31515,80680,774,-2570,2562,-1896,-304,-26,-235,-46,342,-300,1,0,53,48,680,0,53298,1
2,31095,32827,31516,80681,784,-2631,2328,-1764,31,226,68,-44,346,-304,1,0,53,48,720,0,53298,1
2,31093,32833,31515,80682,795,-2634,2404,-1761,370,156,-34,-51,341,-305,1,0,53,48,760,0,53298,1
2,31090,32798,31512,80683,805,-2527,2225,-1650,93,411,272,-38,342,-306,1,0,53,48,800,0,53298,1
2,31094,32706,31514,80684,816,-2593,2192,-1560,-21,122,-66,-46,342,-306,1,0,53,48,840,0,53298,1
2,31090,32674,31510,80685,827,-2565,2228,-1652,-96,-228,-323,-46,350,-298,1,0,53,48,880,0,53298,1
2,31090,32694,31507,80686,837,-2482,2178,-1668,-166,-102,-236,-53,341,-297,1,0,53,48,920,0,53298,1
2,31090,32587,31508,80687,837,-2624,2328,-1707,122,-429,-578,-49,349,-293,1,0,53,48,960,0,53298,1
1,31089,32532,31508,80688,137,-2616,2394,-1776,-233,-437,-566,-43,351,-301,1,0,53,49,0,1,53298,1
1,31087,32507,31507,80689,148,-2651,2383,-1751,-347,-357,-370,-38,350,-308,1,0,53,49,40,1,53298,1
1,31089,32394,31508,80690,159,-2655,2416,-1788,-345,-388,-353,-46,344,-306,1,0,53,49,80,1,53298,1
1,31089,32451,31510,80691,170,-2637,2349,-1796,-254,-262,-164,-44,350,-292,1,0,53,49,120,1,53298,1
1,31088,32374,31511,80692,180,-2677,2255,-1724,33,-48,-4,-47,353,-301,1,0,53,49,160,1,53298,1
1,31084,32384,31510,80693,191,-2609,2286,-1663,290,-146,-163,-50,348,-300,1,0,53,49,200,1,53298,1
1,31084,32345,31506,80694,202,-2622,2236,-1687,-34,-126,-134,-44,346,-300,1,0,53,49,240,1,53298,1
1,31089,32432,31506,80695,212,-2655,2190,-1636,-54,-179,-290,-42,346,-302,1,0,53,49,280,1,53298,1
1,31085,32326,31504,80696,223,-2593,2310,-1665,19,-372,-477,-42,338,-304,1,0,53,49,320,1,53298,1
1,31085,32290,31504,80697,233,-2701,2294,-1726,-326,-231,-323,-41,339,-299,1,0,53,49,360,1,53298,1
3,31084,32301,31507,80698,244,-2674,2373,-1727,-123,-357,-425,-47,351,-295,1,0,53,49,400,1,53298,1
3,31084,32245,31500,80699,256,-2685,2412,-1728,-259,-308,-296,-39,345,-299,1,0,53,49,440,1,53298,1
3,31083,32285,31501,80700,267,-2740,2425,-1652,-547,-218,-74,-45,353,-299,1,0,53,49,480,1,53298,1
3,31084,32152,31501,80701,279,-2685,2394,-1671,-875,-341,-3,-37,357,-303,1,0,53,49,520,1,53298,1
0,31084,32175,31505,80702,290,-2685,2394,-1671,-875,-341,-3,-45,349,-299,1,0,53,49,560,1,53298,1
2,31082,32144,31500,80703,301,-2698,2227,-1683,-195,-101,253,-48,360,-298,1,0,53,49,600,1,53298,1
2,31079,32160,31506,80704,312,-2670,2226,-1615,299,-13,188,-43,351,-295,1,0,53,49,640,1,53298,1
2,31083,32167,31500,80705,323,-2693,2173,-1590,227,-33,29,-48,340,-290,1,0,53,49,680,1,53298,1
2,31080,32056,31500,80706,333,-2657,2214,-1598,-47,-177,-178,-44,352,-300,1,0,53,49,720,1,53298,1
2,31081,31972,31495,80707,345,-2694,2277,-1604,-205,-233,-287,-49,355,-285,1,0,53,49,760,1,53298,1
2,31083,31991,31502,80708,356,-2722,2302,-1639,-328,-287,-319,-39,353,-293,1,0,53,49,800,1,53298,1
2,31081,32023,31498,80709,367,-2732,2297,-1636,-290,-301,-361,-37,357,-301,1,0,53,49,840,1,53298,1
2,31082,31971,31502,80710,379,-2701,2331,-1618,-81,-319,-427,-50,352,-298,1,0,53,49,880,1,53298,1
2,31078,31964,31500,80711,391,-2718,2371,-1645,-120,-224,-219,-46,354,-294,1,0,53,49,920,1,53298,1
2,31078,31911,31505,80712,391,-2752,2358,-1644,-92,-136,-73,-52,354,-302,1,0,53,49,960,1,53298,1
1,31083,31897,31501,80713,0,-2729,2439,-1659,26,-88,-6,-39,351,-293,1,0,53,50,0,0,53298,1
2,31080,31936,31500,80714,39700,-2746,2338,-1665,-96,60,249,-40,350,-294,1,0,53,50,40,0,53298,1
2,31080,31887,31496,80715,39712,-2740,2251,-1606,37,104,248,-45,347,-283,1,0,53,50,80,0,53298,1
2,31083,31843,31500,80716,39723,-2706,2225,-1584,112,61,131,-46,358,-288,1,0,53,50,120,0,53298,1
2,31078,31849,31495,80717,39735,-2730,2150,-1543,15,31,56,-42,360,-292,1,0,53,50,160,0,53298,1
2,31080,31829,31499,80718,39746,-2712,2212,-1545,-25,-121,-186,-44,350,-290,1,0,53,50,200,0,53298,1
2,31080,31849,31496,80719,39758,-2704,2266,-1608,-110,-223,-298,-49,351,-285,1,0,53,50,240,0,53298,1
2,31078,31848,31497,80720,39769,-2763,2283,-1603,-176,-209,-308,-49,355,-291,1,0,53,50,280,0,53298,1
2,31079,31873,31494,80721,39781,-2737,2370,-1635,-49,-258,-346,-48,360,-290,1,0,53,50,320,0,53298,1
2,31079,31846,31497,80722,39792,-2757,2355,-1650,-243,-136,-185,-44,362,-296,1,0,53,50,360,0,53298,1
2,31080,31825,31498,80723,39805,-2779,2334,-1597,-85,-112,-125,-43,355,-297,1,0,53,50,400,0,53298,1
2,31082,31816,31497,80724,39817,-2767,2361,-1609,-169,-135,-65,-42,352,-302,1,0,53,50,440,0,53298,1
2,31079,31844,31501,80725,39829,-2798,2215,-1558,-332,-79,43,-43,353,-291,1,0,53,50,480,0,53298,1
2,31080,31807,31495,80726,39841,-2770,2121,-1520,-88,-169,-174,-42,354,-292,1,0,53,50,520,0,53298,1
2,31080,31793,31498,80727,39853,-2833,2000,-1408,140,-353,-626,-44,354,-296,1,0,53,50,560,0,53298,1
2,31082,31749,31495,80728,39865,-2985,2025,-1304,-51,-931,-1502,-41,355,-285,1,0,53,50,600,0,53298,1
2,31080,31592,31497,80729,39876,-3179,1455,-1275,-1504,-1879,-2906,-42,366,-290,1,0,53,50,640,0,53298,1
2,31083,31550,31497,80730,39888,-3538,851,-1309,-825,-2625,-5205,-28,368,-290,1,0,53,50,680,0,53298,1
2,31085,31655,31499,80731,39899,-4018,942,-1394,1805,-3286,-8411,-30,382,-286,1,0,53,50,720,0,53298,1
2,31088,32118,31508,80732,39910,-4310,1276,-1649,3890,-3719,-11209,-19,403,-273,1,0,53,50,760,0,53298,1
2,31098,32970,31515,80733,39921,-4216,1486,-1910,4336,-3224,-12370,-4,422,-274,1,0,53,50,800,0,53298,1
2,31112,33298,31526,80734,39931,-4291,1215,-1367,4625,-2476,-12948,28,440,-280,1,0,53,50,840,0,53298,1
2,31132,33664,31541,80735,39941,-4661,504,-964,3277,-3520,-13865,52,466,-284,1,0,53,50,880,0,53298,1
2,31141,33649,31547,80736,39951,-4394,280,-896,730,-5660,-15221,71,479,-265,1,0,53,50,920,0,53298,1
2,31155,33483,31545,80737,39963,-4066,11,-873,-399,-6382,-16016,103,493,-253,1,0,53,50,960,0,53298,1
1,31157,33543,31549,80738,0,-3840,363,-1015,-414,-6486,-16024,138,504,-242,1,0,53,51,0,1,53298,1
2,31163,33595,31554,80739,39251,-3791,639,-886,41,-5874,-15100,181,517,-227,1,0,53,51,40,1,53298,1
2,31181,33649,31558,80740,39263,-4300,683,-905,417,-5351,-13220,196,522,-216,1,0,53,51,80,1,53298,1
2,31183,33608,31561,80741,39275,-4596,573,-919,789,-5352,-11101,233,523,-205,1,0,53,51,120,1,53298,1
2,31179,33614,31565,80742,39286,-4847,341,-928,1899,-5259,-8912,252,518,-196,1,0,53,51,160,1,53298,1
2,31153,33473,31555,80743,39297,-4740,284,-1068,2470,-4825,-6876,271,517,-185,1,0,53,51,200,1,53298,1
2,31137,32845,31550,80744,39309,-4671,-239,-910,1882,-3906,-4923,282,512,-182,1,0,53,51,240,1,53298,1
2,31139,31280,31554,80745,39320,-4511,-733,-866,321,-2860,-3692,286,508,-174,1,0,53,51,280,1,53298,1
2,31134,31209,31543,80746,39331,-3780,-2876,-1435,-282,-1334,-3300,293,505,-163,1,0,53,51,320,1,53298,1
2,31147,32397,31574,80747,39342,-6009,-850,-742,-3015,1463,-1403,301,511,-171,1,0,53,51,360,1,53298,1
2,31161,32936,31580,80748,39353,-5009,-1373,-280,1231,381,-467,307,513,-169,1,0,53,51,400,1,53298,1
2,31146,32732,31565,80749,39364,-4133,-1344,-416,-1099,-170,-579,298,512,-158,1,0,53,51,440,1,53298,1
2,31156,32996,31567,80750,39376,-4292,-1340,-502,-1028,116,-619,303,507,-169,1,0,53,51,480,1,53298,1
2,31167,32805,31580,80751,39387,-5080,-1292,-477,-391,712,-470,297,511,-169,1,0,53,51,520,1,53298,1
2,31167,32654,31574,80752,39397,-4581,-1326,-396,1039,754,-552,302,512,-174,1,0,53,51,560,1,53298,1
2,31152,32247,31559,80753,39407,-4466,-1330,-470,573,638,-481,301,521,-181,1,0,53,51,600,1,53298,1
2,31154,32489,31560,80754,39418,-4619,-1367,-477,-16,577,-217,300,510,-168,1,0,53,51,640,1,53298,1
2,31153,32413,31555,80755,39428,-4605,-1362,-492,237,444,-77,300,508,-168,1,0,53,51,680,1,53298,1
2,31153,32228,31554,80756,39439,-4557,-1342,-477,479,302,0,302,516,-170,1,0,53,51,720,1,53298,1
2,31150,31891,31544,80757,39450,-4585,-1329,-472,330,161,77,296,504,-166,1,0,53,51,760,1,53298,1
2,31151,31776,31550,80758,39461,-4592,-1339,-474,201,62,69,304,518,-172,1,0,53,51,800,1,53298,1
2,31147,31827,31545,80759,39473,-4547,-1333,-497,235,61,37,303,503,-173,1,0,53,51,840,1,53298,1
2,31142,31801,31540,80760,39484,-4558,-1340,-487,160,139,-11,294,512,-176,1,0,53,51,880,1,53298,1
2,31141,32051,31537,80761,39496,-4563,-1336,-487,73,183,-29,298,514,-174,1,0,53,51,920,1,53298,1
2,31142,32114,31538,80762,39507,-4566,-1354,-491,20,159,-23,308,504,-172,1,0,53,51,960,1,53298,1
1,31143,31820,31535,80763,0,-4571,-1349,-512,34,96,-11,296,510,-170,1,0,53,52,0,0,53298,1
2,31137,31801,31526,80764,38803,-4568,-1353,-489,60,21,10,303,513,-167,1,0,53,52,40,0,53298,1
2,31139,31792,31531,80765,38814,-4560,-1342,-494,44,-19,31,306,506,-176,1,0,53,52,80,0,53298,1
2,31138,31763,31533,80766,38825,-4573,-1337,-492,21,-31,39,300,508,-172,1,0,53,52,120,0,53298,1
2,31139,31752,31526,80767,38836,-4550,-1331,-480,13,-18,26,299,517,-171,1,0,53,52,160,0,53298,1
2,31141,31575,31536,80768,38847,-4570,-1341,-488,15,14,22,291,507,-173,1,0,53,52,200,0,53298,1
2,31139,31486,31533,80769,38858,-4561,-1342,-491,16,44,3,305,505,-169,1,0,53,52,240,0,53298,1
2,31140,31506,31531,80770,38869,-4561,-1343,-490,-6,52,-34,304,502,-170,1,0,53,52,280,0,53298,1
2,31140,31474,31530,80771,38880,-4557,-1351,-486,-20,42,-26,303,515,-171,1,0,53,52,320,0,53298,1
2,31136,31646,31523,80772,38892,-4559,-1347,-493,4,32,8,303,515,-169,1,0,53,52,360,0,53298,1
2,31137,31704,31524,80773,38904,-4579,-1342,-491,33,3,28,306,512,-178,1,0,53,52,400,0,53298,1
2,31137,31662,31526,80774,38915,-4573,-1346,-505,18,-19,36,308,514,-176,1,0,53,52,440,0,53298,1
2,31140,31666,31528,80775,38926,-4556,-1343,-486,-3,-36,18,305,509,-173,1,0,53,52,480,0,53298,1
2,31134,31867,31521,80776,38938,-4562,-1354,-510,12,-36,19,302,510,-182,1,0,53,52,520,0,53298,1
2,31131,32024,31518,80777,38948,-4558,-1330,-492,-7,-31,24,299,509,-181,1,0,53,52,560,0,53298,1
2,31130,31864,31516,80778,38959,-4564,-1343,-503,5,-25,20,298,510,-162,1,0,53,52,600,0,53298,1
2,31132,31855,31522,80779,38970,-4561,-1349,-483,2,-11,28,300,512,-174,1,0,53,52,640,0,53298,1
2,31137,31377,31526,80780,38980,-4573,-1351,-493,-3,3,28,306,514,-178,1,0,53,52,680,0,53298,1
2,31135,31254,31523,80781,38990,-4575,-1350,-492,-5,-9,13,311,507,-175,1,0,53,52,720,0,53298,1
2,31135,31137,31520,80782,39001,-4571,-1345,-489,-7,-25,18,303,507,-175,1,0,53,52,760,0,53298,1
2,31134,31107,31518,80783,39012,-4559,-1347,-488,-1,-43,16,304,512,-170,1,0,53,52,800,0,53298,1
2,31134,31014,31521,80784,39023,-4557,-1346,-488,4,-46,29,308,504,-174,1,0,53,52,840,0,53298,1
2,31138,30972,31521,80785,39034,-4559,-1326,-480,-13,-37,33,302,510,-168,1,0,53,52,880,0,53298,1
2,31133,31013,31519,80786,39045,-4580,-1354,-488,-118,-28,15,300,502,-176,1,0,53,52,920,0,53298,1
2,31135,31411,31520,80787,39056,-4571,-1337,-479,-253,-31,-14,303,517,-171,1,0,53,52,960,0,53298,1
1,31135,31306,31520,80788,0,-4560,-1353,-507,-342,-48,-29,299,509,-181,1,0,53,53,0,0,53298,1
2,31132,31203,31519,80789,38354,-4555,-1355,-497,-238,-45,1,311,509,-181,1,0,53,53,40,0,53298,1
2,31137,31118,31520,80790,38365,-4575,-1355,-492,-91,-31,25,307,511,-167,1,0,53,53,80,0,53298,1
2,31136,31069,31526,80791,38375,-4560,-1336,-501,-79,-37,17,307,515,-175,1,0,53,53,120,0,53298,1
2,31136,31047,31520,80792,38386,-4566,-1360,-497,-43,-41,29,303,507,-177,1,0,53,53,160,0,53298,1
2,31137,30992,31523,80793,38397,-4575,-1340,-497,-58,-35,21,297,515,-175,1,0,53,53,200,0,53298,1
2,31134,30938,31521,80794,38409,-4558,-1353,-492,-145,-59,14,305,503,-175,1,0,53,53,240,0,53298,1
2,31138,30974,31524,80795,38420,-4572,-1348,-488,-113,-64,23,306,510,-172,1,0,53,53,280,0,53298,1
2,31135,31005,31526,80796,38433,-4573,-1345,-490,-106,-74,27,301,513,-179,1,0,53,53,320,0,53298,1
2,31137,30807,31519,80797,38444,-4568,-1336,-483,-89,-75,58,302,510,-164,1,0,53,53,360,0,53298,1
2,31135,30790,31525,80798,38456,-4569,-1338,-485,-97,-118,82,306,506,-180,1,0,53,53,400,0,53298,1
2,31135,30741,31515,80799,38467,-4565,-1342,-480,-52,-178,149,300,514,-172,1,0,53,53,440,0,53298,1
2,31135,30748,31515,80800,38479,-4603,-1334,-488,146,-231,258,301,507,-173,1,0,53,53,480,0,53298,1
2,31137,30800,31510,80801,38490,-4583,-1340,-447,398,-373,456,299,507,-167,1,0,53,53,520,0,53298,1
2,31128,30764,31511,80802,38501,-4584,-1321,-577,178,-631,627,300,508,-174,1,0,53,53,560,0,53298,1
2,31129,30624,31513,80803,38512,-4633,-1288,-503,-342,-918,741,298,520,-168,1,0,53,53,600,0,53298,1
2,31113,33284,31502,80804,38523,-4633,-1287,-349,-257,-1132,912,292,508,-172,1,0,53,53,640,0,53298,1
2,31106,32677,31493,80805,38534,-4712,-1152,-277,-147,-1138,1068,304,504,-166,1,0,53,53,680,0,53298,1
2,31110,31218,31490,80806,38545,-4675,-757,-360,-812,-1432,1329,293,505,-169,1,0,53,53,720,0,53298,1
2,31103,31178,31487,80807,38556,-4734,-296,-565,-1540,-1435,2206,286,508,-164,1,0,53,53,760,0,53298,1
2,31112,31256,31494,80808,38568,-4813,-338,-918,-3337,-471,3708,281,517,-157,1,0,53,53,800,0,53298,1
2,31115,31397,31490,80809,38581,-4673,-302,-911,-2004,959,5001,275,511,-167,1,0,53,53,840,0,53298,1
2,31110,31511,31490,80810,38592,-4481,-231,-761,-782,2197,6082,262,508,-170,1,0,53,53,880,0,53298,1
2,31100,31447,31484,80811,38605,-4151,-37,-775,-198,3058,7265,246,524,-174,1,0,53,53,920,0,53298,1
2,31097,31391,31483,80812,38616,-4037,32,-700,264,3918,8499,218,526,-172,1,0,53,53,960,0,53298,1
1,31090,31840,31479,80813,0,-4130,12,-678,25,4580,9570,199,525,-181,1,0,53,54,0,0,53298,1
2,31086,31777,31474,80814,37907,-4426,-18,-762,-511,4874,10342,167,527,-177,1,0,53,54,40,0,53298,1
2,31074,32095,31467,80815,37919,-4560,176,-775,158,5045,10793,131,525,-199,1,0,53,54,80,0,53298,1
2,31056,32824,31457,80816,37930,-4283,560,-743,-246,4733,10759,108,526,-206,1,0,53,54,120,0,53298,1
2,31043,32937,31444,80817,37941,-4335,451,-1085,-1813,4397,11063,82,516,-210,1,0,53,54,160,0,53298,1
2,31026,33183,31439,80818,37952,-4985,407,-1084,-336,5129,11140,61,499,-229,1,0,53,54,200,0,53298,1
2,31019,33025,31427,80819,37963,-5499,833,-929,1904,5122,9974,41,487,-221,1,0,53,54,240,0,53298,1
2,30999,33098,31409,80820,37975,-5012,1189,-865,1867,3357,8074,28,480,-246,1,0,53,54,280,0,53298,1
2,30987,33036,31402,80821,37986,-4155,1199,-1102,-538,1291,7051,27,465,-253,1,0,53,54,320,0,53298,1
2,30990,33001,31398,80822,37998,-3684,850,-1184,-2937,522,7169,9,453,-249,1,0,53,54,360,0,53298,1
2,31020,33201,31429,80823,38010,-3753,852,-1440,-3289,1015,7391,3,441,-255,1,0,53,54,400,0,53298,1
2,31071,33244,31482,80824,38023,-3697,1116,-1492,-730,1181,6093,1,433,-255,1,0,53,54,440,0,53298,1
2,31183,33541,31604,80825,38036,-3518,1412,-1428,992,1384,4878,1,427,-259,1,0,53,54,480,0,53298,1
2,31434,33998,31817,80826,38049,-3522,1832,-1437,1304,1518,4366,-9,415,-261,1,0,53,54,520,0,53298,1
2,31551,33928,31977,80827,38063,-3500,2103,-1551,404,1471,4165,-19,417,-265,1,0,53,54,560,0,53298,1
2,31610,32927,32062,80828,38077,-3573,2066,-1671,-491,1393,3692,-24,408,-264,1,0,53,54,600,0,53298,1
2,31577,31582,32040,80829,38090,-3410,2524,-1978,-971,1560,3141,-21,403,-275,1,0,53,54,640,0,53298,1
2,31198,32366,31666,80830,38101,-3348,2137,-1593,2441,1538,4613,-34,390,-294,1,0,53,54,680,0,53298,1
2,31155,31128,31590,80831,38113,-2967,1443,-1590,4633,1510,4692,-22,386,-302,1,0,53,54,720,0,53298,1
2,31332,32458,31794,80832,38125,-2930,1165,-739,495,1289,3653,-35,371,-285,1,0,53,54,760,0,53298,1
2,31330,33530,31765,80833,38137,-2710,1913,-2090,-1913,1897,3465,-25,367,-293,1,0,53,54,800,0,53298,1
2,31316,32335,31763,80834,38149,-3147,1980,-1621,2196,3354,3616,-38,356,-296,1,0,53,54,840,0,53298,1
2,31299,31222,31750,80835,38160,-2940,1728,-1298,1898,1557,2300,-39,361,-299,1,0,53,54,880,0,53298,1
2,31260,31837,31707,80836,38171,-2639,1847,-1490,-643,591,1156,-41,353,-307,1,0,53,54,920,0,53298,1
2,31251,32451,31703,80837,38183,-2774,1721,-1369,-1777,841,1024,-34,356,-302,1,0,53,54,960,0,53298,1
1,31239,30978,31683,80838,0,-2782,1764,-1485,-1793,28,107,-36,346,-306,1,0,53,55,0,1,53298,1
2,31231,31761,31670,80839,37459,-2696,2196,-1627,-1239,-564,-808,-37,361,-297,1,0,53,55,40,1,53298,1
2,31224,31902,31659,80840,37471,-2799,2112,-1416,-1472,-515,-617,-46,358,-304,1,0,53,55,80,1,53298,1
2,31234,31781,31664,80841,37484,-2895,2438,-1773,-1354,-386,-797,-40,354,-302,1,0,53,55,120,1,53298,1
2,31235,32009,31666,80842,37496,-2810,2381,-1593,-1062,-693,-863,-42,362,-286,1,0,53,55,160,1,53298,1
2,31241,31925,31670,80843,37508,-2832,2194,-1657,-1458,-486,-447,-40,364,-298,1,0,53,55,200,1,53298,1
2,31249,31951,31672,80844,37521,-2940,2414,-1698,-683,43,-368,-37,355,-291,1,0,53,55,240,1,53298,1
2,31246,31893,31672,80845,37534,-2825,2264,-1540,-159,-201,-216,-42,358,-294,1,0,53,55,280,1,53298,1
2,31245,31808,31666,80846,37547,-2859,2283,-1575,-428,-105,-121,-44,360,-286,1,0,53,55,320,1,53298,1
2,31255,31669,31672,80847,37560,-2854,2195,-1447,-312,-97,-86,-41,355,-295,1,0,53,55,360,1,53298,1
2,31250,31678,31670,80848,37573,-2837,2200,-1492,-174,-219,-90,-34,358,-292,1,0,53,55,400,1,53298,1
2,31254,31715,31675,80849,37586,-2882,2267,-1506,-214,-128,-79,-37,361,-291,1,0,53,55,440,1,53298,1
2,31255,31489,31680,80850,37600,-2881,2282,-1530,-189,-187,-68,-44,368,-292,1,0,53,55,480,1,53298,1
2,31246,31604,31669,80851,37613,-2877,2248,-1542,-250,-172,-21,-41,359,-299,1,0,53,55,520,1,53298,1
2,31248,31457,31674,80852,37626,-2884,2168,-1524,-306,-149,-37,-38,364,-298,1,0,53,55,560,1,53298,1
2,31245,31525,31670,80853,37640,-2876,2249,-1541,-214,-121,-94,-39,357,-291,1,0,53,55,600,1,53298,1
2,31250,31374,31669,80854,37653,-2894,2236,-1487,21,-62,-29,-37,363,-283,1,0,53,55,640,1,53298,1
2,31249,31193,31669,80855,37665,-2884,2253,-1438,-208,-103,-3,-30,366,-290,1,0,53,55,680,1,53298,1
2,31244,31271,31663,80856,37679,-2887,2320,-1534,-530,-155,-49,-41,365,-283,1,0,53,55,720,1,53298,1
2,31236,31161,31661,80857,37692,-2877,2245,-1515,-625,-198,27,-39,357,-293,1,0,53,55,760,1,53298,1
2,31238,31327,31658,80858,37704,-2896,2187,-1504,-222,-82,35,-39,359,-283,1,0,53,55,800,1,53298,1
2,31241,31252,31661,80859,37717,-2878,2216,-1424,140,-73,-67,-43,363,-281,1,0,53,55,840,1,53298,1
2,31242,31411,31663,80860,37730,-2886,2243,-1448,44,-54,-42,-30,362,-282,1,0,53,55,880,1,53298,1
2,31241,31474,31662,80861,37743,-2916,2224,-1460,51,-43,-25,-33,365,-291,1,0,53,55,920,1,53298,1
2,31235,31530,31656,80862,37755,-2869,2281,-1471,109,-120,-100,-48,362,-288,1,0,53,55,960,1,53298,1
1,31239,31682,31660,80863,0,-2910,2244,-1470,29,-55,11,-45,363,-275,1,0,53,56,0,1,53298,1
2,31239,31574,31662,80864,37009,-2894,2267,-1489,46,-87,-3,-38,364,-296,1,0,53,56,40,1,53298,1
2,31242,31326,31664,80865,37022,-2907,2274,-1475,4,-14,44,-38,356,-284,1,0,53,56,80,1,53298,1
2,31238,31217,31663,80866,37035,-2894,2227,-1488,-53,-3,72,-48,364,-274,1,0,53,56,120,1,53298,1
2,31239,31304,31657,80867,37048,-2893,2158,-1490,-14,-4,16,-30,364,-286,1,0,53,56,160,1,53298,1
2,31234,31248,31660,80868,37060,-2870,2188,-1428,55,-48,-88,-34,364,-288,1,0,53,56,200,1,53298,1
2,31236,31569,31657,80869,37073,-2890,2224,-1440,-59,-51,-113,-36,364,-282,1,0,53,56,240,1,53298,1
2,31232,31328,31657,80870,37085,-2919,2202,-1451,-34,-114,-201,-46,360,-284,1,0,53,56,280,1,53298,1
2,31241,31393,31665,80871,37097,-2872,2239,-1479,-106,-175,-271,-42,360,-292,1,0,53,56,320,1,53298,1
2,31238,31360,31665,80872,37109,-2974,2312,-1401,130,-142,-258,-38,376,-288,1,0,53,56,360,1,53298,1
2,31234,31403,31657,80873,37121,-2939,2455,-1475,-272,-357,-199,-44,364,-294,1,0,53,56,400,1,53298,1
2,31233,31343,31656,80874,37132,-3031,2070,-1581,-1193,-513,-180,-36,360,-284,1,0,53,56,440,1,53298,1
2,31245,31445,31668,80875,37143,-3104,1617,-1534,-918,-615,-1038,-31,369,-283,1,0,53,56,480,1,53298,1
2,31237,31493,31660,80876,37155,-3264,1115,-1500,210,-804,-2542,-32,368,-286,1,0,53,56,520,1,53298,1
2,31249,31487,31669,80877,37167,-3855,867,-1602,2063,-1179,-4881,-35,385,-287,1,0,53,56,560,1,53298,1
2,31250,31438,31677,80878,37179,-3842,1218,-1672,3118,-1828,-7760,-23,393,-277,1,0,53,56,600,1,53298,1
2,31262,31475,31679,80879,37191,-3784,1837,-1867,4706,-1566,-9179,-11,415,-283,1,0,53,56,640,1,53298,1
2,31273,31358,31680,80880,37204,-4022,1513,-1537,5651,-863,-9179,2,424,-284,1,0,53,56,680,1,53298,1
2,31282,31252,31682,80881,37216,-4821,929,-793,6105,-1946,-10466,15,443,-291,1,0,53,56,720,1,53298,1
2,31286,31431,31695,80882,37227,-4682,871,-664,3783,-4865,-12840,34,458,-282,1,0,53,56,760,1,53298,1
2,31304,31219,31697,80883,37239,-4230,455,-852,570,-6500,-14132,63,479,-281,1,0,53,56,800,1,53298,1
2,31312,31370,31697,80884,37252,-4050,439,-1025,-321,-6829,-14426,104,492,-260,1,0,53,56,840,1,53298,1
2,31313,31253,31700,80885,37263,-3897,655,-1079,45,-6607,-14161,128,504,-248,1,0,53,56,880,1,53298,1
2,31322,31330,31706,80886,37275,-4012,504,-982,655,-6105,-13088,161,503,-241,1,0,53,56,920,1,53298,1
2,31320,31441,31704,80887,37287,-3956,728,-908,1639,-5810,-11876,184,510,-228,1,0,53,56,960,1,53298,1
1,31334,31491,31716,80888,0,-4109,339,-867,1734,-5670,-10277,208,512,-208,1,0,53,57,0,0,53298,1
2,31336,31393,31721,80889,36561,-4245,532,-1031,2062,-5532,-8717,225,515,-189,1,0,53,57,40,0,53298,1
2,31330,31360,31716,80890,36574,-4387,209,-1024,1694,-4926,-6896,245,511,-193,1,0,53,57,80,0,53298,1
2,31333,31059,31727,80891,36586,-4662,68,-856,1138,-3975,-5170,260,502,-186,1,0,53,57,120,0,53298,1
2,31341,30906,31731,80892,36597,-4767,-363,-1027,-894,-3136,-3744,272,504,-174,1,0,53,57,160,0,53298,1
2,31347,30463,31740,80893,36609,-4881,-846,-664,-172,-1938,-2490,269,507,-173,1,0,53,57,200,0,53298,1
2,31336,31021,31737,80894,36621,-5069,-863,-595,186,-1755,-2037,274,508,-170,1,0,53,57,240,0,53298,1
2,31313,31566,31710,80895,36633,-4578,-732,-578,393,-1673,-1973,272,506,-170,1,0,53,57,280,0,53298,1
2,31271,31859,31669,80896,36645,-4634,-1203,-309,292,-1459,-1357,280,504,-162,1,0,53,57,320,0,53298,1
2,31227,31925,31607,80897,36657,-4057,-3117,-490,967,-1083,-1419,277,509,-145,1,0,53,57,360,0,53298,1
2,31234,31543,31630,80898,36669,-4589,-1113,-522,-4183,-303,-847,291,507,-153,1,0,53,57,400,0,53298,1
2,31261,31416,31650,80899,36681,-5080,-1289,-537,-2803,-465,-870,285,513,-159,1,0,53,57,440,0,53298,1
2,31266,31790,31656,80900,36693,-5100,-1027,-435,-2240,93,-713,282,504,-166,1,0,53,57,480,0,53298,1
2,31250,32249,31645,80901,36705,-4371,-1314,-224,293,37,-882,290,506,-164,1,0,53,57,520,0,53298,1
2,31256,32424,31648,80902,36716,-4486,-1218,-262,284,585,-594,290,506,-158,1,0,53,57,560,0,53298,1
2,31257,31582,31647,80903,36727,-4720,-1237,-346,292,794,-252,296,506,-156,1,0,53,57,600,0,53298,1
2,31258,32534,31649,80904,36738,-4604,-1225,-359,138,589,-173,292,506,-166,1,0,53,57,640,0,53298,1
2,31252,32179,31642,80905,36749,-4568,-1261,-364,5,422,-167,296,496,-164,1,0,53,57,680,0,53298,1
2,31255,31337,31644,80906,36759,-4611,-1245,-362,187,369,-133,286,502,-164,1,0,53,57,720,0,53298,1
2,31259,31084,31646,80907,36772,-4604,-1238,-343,245,306,-130,284,510,-164,1,0,53,57,760,0,53298,1
2,31257,31030,31648,80908,36783,-4586,-1247,-356,84,252,-152,294,506,-154,1,0,53,57,800,0,53298,1
2,31256,31288,31645,80909,36794,-4583,-1258,-351,28,270,-142,289,507,-165,1,0,53,57,840,0,53298,1
2,31251,32087,31634,80910,36806,-4592,-1267,-374,65,308,-118,301,501,-163,1,0,53,57,880,0,53298,1
2,31246,32188,31636,80911,36817,-4604,-1261,-375,85,292,-103,289,507,-163,1,0,53,57,920,0,53298,1
2,31253,31679,31642,80912,36828,-4587,-1257,-386,38,236,-70,292,508,-170,1,0,53,57,960,0,53298,1
1,31252,31012,31640,80913,0,-4587,-1264,-393,17,159,-51,287,509,-163,1,0,53,58,0,1,53298,1
2,31256,30889,31642,80914,36113,-4592,-1264,-398,33,78,-33,292,506,-160,1,0,53,58,40,1,53298,1
2,31259,30887,31640,80915,36125,-4584,-1262,-387,34,12,-20,291,505,-173,1,0,53,58,80,1,53298,1
2,31259,31098,31650,80916,36136,-4574,-1256,-371,16,-24,-9,291,507,-175,1,0,53,58,120,1,53298,1
2,31261,30996,31644,80917,36147,-4587,-1266,-378,11,16,12,287,501,-161,1,0,53,58,160,1,53298,1
2,31260,30938,31648,80918,36158,-4596,-1279,-375,3,48,15,291,513,-165,1,0,53,58,200,1,53298,1
2,31262,30930,31646,80919,36169,-4585,-1267,-398,-17,59,3,291,511,-175,1,0,53,58,240,1,53298,1
2,31248,31383,31640,80920,36179,-4593,-1261,-393,-28,44,-3,286,504,-168,1,0,53,58,280,1,53298,1
2,31250,32376,31637,80921,36191,-4592,-1276,-393,-22,8,-9,296,502,-162,1,0,53,58,320,1,53298,1
2,31245,32095,31628,80922,36202,-4582,-1270,-400,-23,-31,-6,298,508,-162,1,0,53,58,360,1,53298,1
2,31241,31526,31628,80923,36212,-4570,-1274,-400,-13,-60,10,295,503,-165,1,0,53,58,400,1,53298,1
2,31243,32404,31628,80924,36223,-4588,-1254,-403,6,-53,23,288,500,-172,1,0,53,58,440,1,53298,1
2,31244,32308,31625,80925,36235,-4590,-1255,-386,-23,-58,12,286,500,-172,1,0,53,58,480,1,53298,1
2,31250,32625,31630,80926,36246,-4575,-1277,-381,-32,-77,48,294,508,-164,1,0,53,58,520,1,53298,1
2,31243,31822,31629,80927,36257,-4589,-1262,-384,7,-105,60,286,504,-166,1,0,53,58,560,1,53298,1
2,31238,31657,31622,80928,36269,-4571,-1278,-363,42,-127,101,295,507,-167,1,0,53,58,600,1,53298,1
2,31243,31314,31628,80929,36280,-4582,-1254,-402,95,-99,173,296,508,-156,1,0,53,58,640,1,53298,1
2,31243,31049,31628,80930,36292,-4592,-1248,-362,131,-47,154,290,504,-168,1,0,53,58,680,1,53298,1
2,31245,30830,31630,80931,36303,-4583,-1242,-360,115,111,76,290,516,-162,1,0,53,58,720,1,53298,1
2,31250,30700,31630,80932,36314,-4590,-1247,-365,33,309,-68,293,503,-173,1,0,53,58,760,1,53298,1
2,31244,30770,31635,80933,36325,-4585,-1245,-366,-19,517,-174,292,514,-158,1,0,53,58,800,1,53298,1
2,31243,30685,31630,80934,36336,-4579,-1264,-388,97,681,-225,292,512,-168,1,0,53,58,840,1,53298,1
2,31234,30727,31626,80935,36347,-4574,-1284,-431,156,764,-215,296,512,-166,1,0,53,58,880,1,53298,1
2,31233,30644,31623,80936,36359,-4588,-1284,-447,166,752,-176,290,506,-164,1,0,53,58,920,1,53298,1
2,31232,30673,31619,80937,36370,-4569,-1294,-476,128,655,-146,288,506,-172,1,0,53,58,960,1,53298,1
1,31234,30701,31622,80938,0,-4570,-1314,-495,122,516,-82,291,505,-171,1,0,53,59,0,0,53298,1
2,31231,30630,31617,80939,35665,-4593,-1299,-499,180,312,-4,301,517,-177,1,0,53,59,40,0,53298,1
2,31227,30620,31614,80940,35677,-4595,-1297,-496,132,91,22,293,507,-175,1,0,53,59,80,0,53298,1
2,31227,30544,31617,80941,35689,-4574,-1289,-479,25,-105,38,297,507,-171,1,0,53,59,120,0,53298,1
2,31229,30513,31615,80942,35701,-4577,-1290,-485,-37,-245,53,287,507,-163,1,0,53,59,160,0,53298,1
