sensorStatus,cap1,cap2,cap3,counter,microseconds_since_last_tick,accX,accY,accZ,gyroX,gyroY,gyroZ,magnetX,magnetY,magnetZ,day,hour,min,sec,msec,sync,battery_fuel,crc_good
2,31115,29870,31495,81839,19560,-4536,-1340,-610,-9,-24,31,297,511,-175,1,0,54,35,40,0,53298,1
2,31114,29868,31493,81840,19571,-4554,-1350,-605,-7,-14,27,310,506,-184,1,0,54,35,80,0,53298,1
2,31119,29874,31491,81841,19583,-4541,-1342,-612,-14,-11,20,310,506,-184,1,0,54,35,120,0,53298,1
2,31116,29868,31494,81842,19593,-4552,-1359,-616,-13,-6,20,298,518,-178,1,0,54,35,160,0,53298,1
2,31114,29875,31496,81843,19605,-4549,-1352,-587,-18,-14,24,310,514,-182,1,0,54,35,200,0,53298,1
2,31114,29875,31494,81844,19616,-4545,-1344,-593,-15,-1,18,304,514,-184,1,0,54,35,240,0,53298,1
2,31114,29873,31494,81845,19628,-4540,-1340,-618,-10,-7,21,307,517,-185,1,0,54,35,280,0,53298,1
2,31115,29871,31493,81846,19640,-4546,-1350,-605,-7,-9,18,308,514,-192,1,0,54,35,320,0,53298,1
2,31113,29870,31493,81847,19650,-4539,-1334,-620,-13,-14,22,305,513,-187,1,0,54,35,360,0,53298,1
2,31114,29870,31492,81848,19662,-4552,-1351,-597,-2,-27,33,304,512,-180,1,0,54,35,400,0,53298,1
2,31112,29866,31490,81849,19674,-4555,-1339,-601,-2,-21,37,312,512,-186,1,0,54,35,440,0,53298,1
2,31115,29870,31493,81850,19686,-4548,-1344,-591,-10,-12,30,297,513,-181,1,0,54,35,480,0,53298,1
2,31117,29864,31494,81851,19698,-4553,-1345,-604,-12,3,29,307,519,-179,1,0,54,35,520,0,53298,1
2,31112,29868,31488,81852,19709,-4552,-1344,-600,-10,-4,21,307,519,-191,1,0,54,35,560,0,53298,1
2,31115,29868,31495,81853,19720,-4550,-1352,-614,-14,-17,15,307,507,-185,1,0,54,35,600,0,53298,1
2,31114,29867,31490,81854,19731,-4542,-1350,-598,-7,-25,18,306,514,-184,1,0,54,35,640,0,53298,1
2,31111,29871,31494,81855,19743,-4562,-1361,-607,-11,-21,29,302,514,-180,1,0,54,35,680,0,53298,1
2,31114,29869,31491,81856,19754,-4550,-1348,-610,-13,-15,27,301,515,-187,1,0,54,35,720,0,53298,1
2,31113,29872,31492,81857,19765,-4547,-1347,-615,-8,-16,29,296,510,-182,1,0,54,35,760,0,53298,1
2,31114,29872,31495,81858,19776,-4562,-1352,-610,-11,-12,21,306,520,-192,1,0,54,35,800,0,53298,1
2,31115,29868,31490,81859,19787,-4538,-1340,-609,-13,-13,16,313,517,-187,1,0,54,35,840,0,53298,1
2,31114,29869,31489,81860,19799,-4544,-1342,-607,-10,-13,22,316,510,-188,1,0,54,35,880,0,53298,1
2,31112,29863,31490,81861,19810,-4549,-1345,-603,-15,-9,26,314,518,-188,1,0,54,35,920,0,53298,1
2,31112,29863,31488,81862,19821,-4547,-1331,-620,-8,-2,29,307,511,-179,1,0,54,35,960,0,53298,1
1,31112,29875,31493,81863,0,-4540,-1344,-616,-10,-9,18,309,517,-187,1,0,54,36,0,1,53298,1
2,31113,29875,31490,81864,19112,-4557,-1351,-614,-11,-21,24,303,515,-177,1,0,54,36,40,1,53298,1
2,31114,29872,31494,81865,19123,-4540,-1343,-613,-3,-29,17,304,506,-178,1,0,54,36,80,1,53298,1
2,31112,29875,31491,81866,19134,-4539,-1343,-620,-5,-22,27,309,513,-191,1,0,54,36,120,1,53298,1
2,31116,29873,31494,81867,19145,-4540,-1338,-596,-6,-15,34,305,515,-189,1,0,54,36,160,1,53298,1
2,31112,29875,31492,81868,19156,-4554,-1349,-600,-14,-2,22,304,514,-190,1,0,54,36,200,1,53298,1
2,31109,29872,31491,81869,19168,-4541,-1341,-602,-9,-9,25,310,514,-182,1,0,54,36,240,1,53298,1
2,31111,29876,31490,81870,19179,-4556,-1346,-612,-10,-16,17,306,510,-182,1,0,54,36,280,1,53298,1
2,31113,29875,31490,81871,19189,-4549,-1342,-598,-10,-34,20,307,519,-189,1,0,54,36,320,1,53298,1
2,31110,29872,31488,81872,19201,-4531,-1341,-605,-18,-31,29,306,518,-186,1,0,54,36,360,1,53298,1
2,31112,29870,31491,81873,19211,-4552,-1346,-627,-11,-29,43,314,518,-188,1,0,54,36,400,1,53298,1
2,31110,29870,31490,81874,19222,-4544,-1344,-626,0,-26,33,305,513,-191,1,0,54,36,440,1,53298,1
2,31110,29867,31486,81875,19232,-4552,-1342,-616,-19,-28,45,303,511,-185,1,0,54,36,480,1,53298,1
2,31112,29875,31489,81876,19243,-4537,-1336,-612,-8,-42,56,311,507,-179,1,0,54,36,520,1,53298,1
2,31110,29870,31486,81877,19253,-4552,-1346,-593,-5,-45,49,306,520,-174,1,0,54,36,560,1,53298,1
2,31115,29869,31488,81878,19263,-4545,-1339,-602,-21,-48,37,308,506,-176,1,0,54,36,600,1,53298,1
2,31110,29859,31487,81879,19274,-4555,-1337,-597,-24,-42,28,300,512,-188,1,0,54,36,640,1,53298,1
2,31110,29870,31488,81880,19284,-4556,-1344,-609,-12,-35,17,303,507,-185,1,0,54,36,680,1,53298,1
2,31108,29872,31487,81881,19294,-4555,-1361,-597,-19,-25,12,306,518,-176,1,0,54,36,720,1,53298,1
2,31107,29863,31484,81882,19303,-4551,-1346,-602,-24,-37,23,307,521,-191,1,0,54,36,760,1,53298,1
2,31112,29865,31484,81883,19313,-4539,-1341,-597,19,-35,36,308,512,-186,1,0,54,36,800,1,53298,1
2,31113,29869,31490,81884,19323,-4556,-1340,-599,4,-45,47,308,508,-194,1,0,54,36,840,1,53298,1
2,31109,29875,31489,81885,19334,-4550,-1359,-615,-17,-77,77,309,517,-189,1,0,54,36,880,1,53298,1
2,31109,29875,31488,81886,19345,-4568,-1345,-632,43,-104,95,313,517,-191,1,0,54,36,920,1,53298,1
2,31113,29861,31488,81887,19355,-4558,-1342,-595,27,-80,36,312,514,-188,1,0,54,36,960,1,53298,1
1,31111,29865,31490,81888,0,-4561,-1354,-600,-59,-75,-18,306,508,-180,1,0,54,37,0,0,53298,1
2,31110,29868,31490,81889,18663,-4544,-1343,-592,-50,-25,-44,297,513,-181,1,0,54,37,40,0,53298,1
2,31110,29859,31490,81890,18673,-4552,-1347,-597,-25,24,-26,298,518,-178,1,0,54,37,80,0,53298,1
2,31107,29860,31485,81891,18683,-4561,-1352,-588,-36,32,-2,312,518,-186,1,0,54,37,120,0,53298,1
2,31108,29863,31486,81892,18694,-4549,-1351,-610,-42,35,15,310,516,-186,1,0,54,37,160,0,53298,1
2,31110,29858,31488,81893,18704,-4546,-1341,-605,-3,16,26,305,515,-183,1,0,54,37,200,0,53298,1
2,31109,29860,31491,81894,18714,-4554,-1347,-590,-8,-11,31,306,520,-184,1,0,54,37,240,0,53298,1
2,31112,29870,31491,81895,18724,-4550,-1339,-593,-10,-26,20,304,514,-186,1,0,54,37,280,0,53298,1
2,31112,29872,31491,81896,18734,-4557,-1346,-589,-12,-37,27,307,517,-187,1,0,54,37,320,0,53298,1
2,31113,29872,31488,81897,18744,-4556,-1350,-584,-5,-31,27,303,511,-191,1,0,54,37,360,0,53298,1
2,31111,29873,31492,81898,18754,-4555,-1343,-597,-16,-14,23,300,518,-180,1,0,54,37,400,0,53298,1
2,31106,29867,31488,81899,18763,-4553,-1332,-597,-15,6,24,306,508,-174,1,0,54,37,440,0,53298,1
2,31107,29865,31487,81900,18773,-4551,-1354,-595,-6,9,23,304,518,-186,1,0,54,37,480,0,53298,1
2,31111,29865,31487,81901,18782,-4552,-1347,-600,-14,-2,22,311,517,-185,1,0,54,37,520,0,53298,1
2,31109,29873,31485,81902,18791,-4537,-1335,-603,-13,-22,20,312,518,-192,1,0,54,37,560,0,53298,1
2,31110,29865,31487,81903,18801,-4554,-1346,-599,-6,-30,19,307,513,-183,1,0,54,37,600,0,53298,1
2,31111,29867,31486,81904,18811,-4548,-1339,-595,-6,-32,25,304,514,-184,1,0,54,37,640,0,53298,1
2,31108,29867,31489,81905,18821,-4541,-1342,-600,2,-16,31,306,516,-182,1,0,54,37,680,0,53298,1
2,31113,29870,31487,81906,18831,-4566,-1352,-583,-1,-11,35,306,512,-184,1,0,54,37,720,0,53298,1
2,31112,29872,31485,81907,18841,-4545,-1337,-597,-6,2,24,312,512,-190,1,0,54,37,760,0,53298,1
2,31112,29861,31488,81908,18852,-4537,-1351,-611,-15,1,27,310,512,-188,1,0,54,37,800,0,53298,1
2,31112,29865,31488,81909,18862,-4550,-1336,-593,-10,10,26,310,516,-168,1,0,54,37,840,0,53298,1
2,31108,29864,31490,81910,18873,-4545,-1354,-599,-10,0,17,307,511,-187,1,0,54,37,880,0,53298,1
2,31110,29871,31490,81911,18884,-4545,-1338,-599,-11,-18,20,311,515,-187,1,0,54,37,920,0,53298,1
2,31110,29866,31484,81912,18894,-4544,-1336,-603,-1,-24,28,305,505,-191,1,0,54,37,960,0,53298,1
1,31106,29869,31486,81913,0,-4545,-1331,-605,-5,-31,32,308,522,-190,1,0,54,38,0,1,53298,1
2,31108,29871,31486,81914,18213,-4541,-1347,-609,-9,-47,38,305,513,-189,1,0,54,38,40,1,53298,1
2,31108,29865,31480,81915,18224,-4551,-1338,-602,-4,-29,44,306,514,-178,1,0,54,38,80,1,53298,1
2,31108,29875,31484,81916,18234,-4545,-1340,-607,-9,-15,30,306,512,-180,1,0,54,38,120,1,53298,1
2,31107,29867,31486,81917,18244,-4549,-1352,-604,-19,-10,19,303,513,-183,1,0,54,38,160,1,53298,1
2,31109,29862,31485,81918,18254,-4550,-1346,-600,-13,-2,21,300,512,-188,1,0,54,38,200,1,53298,1
2,31106,29860,31487,81919,18264,-4563,-1354,-602,-6,-17,22,306,512,-174,1,0,54,38,240,1,53298,1
2,31107,29870,31484,81920,18274,-4550,-1348,-604,-2,-32,35,307,511,-185,1,0,54,38,280,1,53298,1
2,31106,29865,31485,81921,18283,-4557,-1339,-596,-7,-39,31,301,509,-181,1,0,54,38,320,1,53298,1
2,31107,29860,31480,81922,18293,-4544,-1339,-601,-15,-28,23,302,516,-176,1,0,54,38,360,1,53298,1
2,31109,29869,31484,81923,18303,-4545,-1343,-595,-18,-23,27,306,516,-176,1,0,54,38,400,1,53298,1
2,31107,29872,31483,81924,18315,-4549,-1339,-588,-21,-20,11,317,513,-185,1,0,54,38,440,1,53298,1
2,31106,29859,31486,81925,18326,-4560,-1350,-600,-17,-5,17,313,509,-191,1,0,54,38,480,1,53298,1
2,31110,29866,31485,81926,18336,-4553,-1349,-614,-12,-10,19,311,513,-185,1,0,54,38,520,1,53298,1
2,31111,29870,31483,81927,18347,-4548,-1339,-599,-9,-21,12,310,518,-188,1,0,54,38,560,1,53298,1
2,31105,29863,31484,81928,18359,-4546,-1341,-592,-9,-21,15,298,516,-178,1,0,54,38,600,1,53298,1
2,31106,29865,31482,81929,18370,-4561,-1350,-591,-1,-12,20,306,516,-178,1,0,54,38,640,1,53298,1
2,31102,29866,31482,81930,18380,-4563,-1352,-604,7,-26,39,305,513,-179,1,0,54,38,680,1,53298,1
2,31103,29871,31483,81931,18391,-4554,-1356,-600,14,-61,83,301,515,-187,1,0,54,38,720,1,53298,1
2,31102,29875,31478,81932,18402,-4590,-1312,-583,43,-123,147,308,512,-184,1,0,54,38,760,1,53298,1
2,31100,29873,31477,81933,18414,-4569,-1363,-654,48,-321,390,298,504,-190,1,0,54,38,800,1,53298,1
2,31067,33077,31450,81934,18425,-4924,-1313,-873,-209,-504,921,303,515,-185,1,0,54,38,840,1,53298,1
2,31049,33394,31445,81935,18437,-4467,-1255,-1151,1134,-373,1977,296,514,-182,1,0,54,38,880,1,53298,1
2,31042,31957,31445,81936,18450,-4390,757,-1639,5087,1824,3447,282,522,-182,1,0,54,38,920,1,53298,1
2,31054,30756,31443,81937,18462,-4636,625,-1196,-246,2868,5938,265,533,-189,1,0,54,38,960,1,53298,1
1,31053,30426,31433,81938,0,-4532,267,-1385,-4266,4186,8148,246,544,-198,1,0,54,39,0,1,53298,1
2,31041,31181,31420,81939,17763,-4383,597,-1384,-4049,5458,10571,205,543,-215,1,0,54,39,40,1,53298,1
2,31020,32408,31402,81940,17776,-4384,608,-1312,-2148,6521,12970,172,548,-210,1,0,54,39,80,1,53298,1
2,30997,32999,31392,81941,17787,-4474,614,-1237,-302,7526,15156,136,540,-236,1,0,54,39,120,1,53298,1
2,30973,31440,31379,81942,17799,-4775,573,-1182,138,7985,16787,99,521,-245,1,0,54,39,160,1,53298,1
2,30938,31448,31349,81943,17810,-5304,508,-1226,-1001,7712,17325,50,508,-268,1,0,54,39,200,1,53298,1
2,30923,30299,31344,81944,17822,-5740,16,-945,-1836,6504,16069,37,485,-271,1,0,54,39,240,1,53298,1
2,30916,30965,31330,81945,17832,-5048,-140,-975,-3678,4244,13162,16,464,-284,1,0,54,39,280,1,53298,1
2,30913,31083,31325,81946,17842,-4239,427,-1221,-4877,2412,9750,0,444,-286,1,0,54,39,320,1,53298,1
2,30912,30878,31334,81947,17853,-3570,461,-1037,-4084,1303,7519,3,435,-291,1,0,54,39,360,1,53298,1
2,30922,30451,31335,81948,17863,-3345,821,-1189,-3308,991,6666,-8,426,-280,1,0,54,39,400,1,53298,1
2,30917,30264,31335,81949,17874,-3471,1226,-1319,-2148,852,6017,-7,417,-279,1,0,54,39,440,1,53298,1
2,30916,30184,31335,81950,17884,-3446,1756,-1413,-1380,334,4846,-23,395,-279,1,0,54,39,480,1,53298,1
2,30913,30160,31331,81951,17895,-3279,2001,-1609,-1775,-185,3885,-31,395,-283,1,0,54,39,520,1,53298,1
2,30912,30166,31328,81952,17906,-3179,2028,-1734,-1832,-74,3568,-20,394,-284,1,0,54,39,560,1,53298,1
2,30912,30125,31328,81953,17918,-3084,1911,-1684,-782,334,3481,-24,382,-278,1,0,54,39,600,1,53298,1
2,30910,30138,31325,81954,17929,-3210,1824,-1632,-68,827,3466,-25,377,-287,1,0,54,39,640,1,53298,1
2,30907,30151,31325,81955,17940,-3160,1871,-1437,1229,946,2968,-36,376,-286,1,0,54,39,680,1,53298,1
2,30905,30120,31323,81956,17951,-3013,1993,-1333,1159,853,2477,-37,371,-299,1,0,54,39,720,1,53298,1
2,30909,30132,31324,81957,17963,-2993,1880,-1314,146,641,2133,-32,374,-288,1,0,54,39,760,1,53298,1
2,30912,30105,31320,81958,17973,-2827,1949,-1411,-361,121,1444,-35,359,-279,1,0,54,39,800,1,53298,1
2,30914,30057,31321,81959,17985,-2754,2022,-1482,-339,-118,1009,-33,361,-301,1,0,54,39,840,1,53298,1
2,30911,30105,31322,81960,17996,-2862,1943,-1539,-26,-16,846,-23,359,-297,1,0,54,39,880,1,53298,1
2,30912,30014,31321,81961,18008,-2849,2077,-1496,532,-173,224,-36,374,-300,1,0,54,39,920,1,53298,1
2,30912,30023,31319,81962,18019,-2877,2087,-1529,292,-316,-162,-32,366,-298,1,0,54,39,960,1,53298,1
1,30913,30005,31322,81963,0,-2917,2081,-1522,46,-306,-293,-40,356,-288,1,0,54,40,0,0,53298,1
2,30914,29999,31323,81964,17314,-2896,2190,-1505,94,-394,-578,-37,367,-287,1,0,54,40,40,0,53298,1
2,30914,29992,31324,81965,17325,-2886,2276,-1563,-84,-489,-661,-31,369,-283,1,0,54,40,80,0,53298,1
2,30917,29955,31325,81966,17336,-2931,2232,-1579,-177,-450,-530,-34,366,-296,1,0,54,40,120,0,53298,1
2,30916,29955,31320,81967,17347,-2909,2291,-1610,-87,-390,-484,-32,374,-290,1,0,54,40,160,0,53298,1
2,30920,29949,31321,81968,17358,-2947,2208,-1592,-36,-242,-309,-33,369,-293,1,0,54,40,200,0,53298,1
2,30918,29955,31325,81969,17368,-2957,2248,-1584,16,-86,-202,-36,368,-278,1,0,54,40,240,0,53298,1
2,30920,29954,31323,81970,17380,-2947,2274,-1556,68,-20,-130,-37,373,-287,1,0,54,40,280,0,53298,1
2,30921,29930,31322,81971,17391,-2949,2238,-1512,-109,10,4,-34,380,-288,1,0,54,40,320,0,53298,1
2,30918,29917,31324,81972,17402,-2971,2147,-1465,-79,21,-8,-29,367,-293,1,0,54,40,360,0,53298,1
2,30919,29925,31324,81973,17413,-2919,2154,-1462,80,-77,-82,-38,370,-286,1,0,54,40,400,0,53298,1
2,30919,29913,31321,81974,17425,-2933,2137,-1446,41,-96,-85,-27,367,-289,1,0,54,40,440,0,53298,1
2,30920,29908,31326,81975,17436,-2951,2108,-1475,-38,-164,-192,-33,369,-295,1,0,54,40,480,0,53298,1
2,30920,29902,31322,81976,17447,-2938,2179,-1489,44,-254,-366,-34,372,-284,1,0,54,40,520,0,53298,1
2,30919,29907,31325,81977,17459,-2953,2198,-1549,-119,-221,-279,-22,372,-288,1,0,54,40,560,0,53298,1
2,30920,29918,31325,81978,17470,-2980,2206,-1529,21,-131,-238,-25,361,-283,1,0,54,40,600,0,53298,1
2,30921,29909,31321,81979,17482,-2944,2297,-1545,92,-127,-214,-28,368,-286,1,0,54,40,640,0,53298,1
2,30920,29891,31325,81980,17493,-2981,2282,-1560,-122,3,63,-31,375,-291,1,0,54,40,680,0,53298,1
2,30919,29917,31322,81981,17504,-3000,2302,-1577,-46,133,287,-33,369,-289,1,0,54,40,720,0,53298,1
2,30917,29911,31322,81982,17515,-2953,2271,-1562,50,193,452,-33,361,-291,1,0,54,40,760,0,53298,1
2,30917,29902,31322,81983,17526,-2970,2174,-1501,13,329,595,-31,375,-291,1,0,54,40,800,0,53298,1
2,30917,29885,31325,81984,17537,-2937,2079,-1439,96,266,496,-39,369,-293,1,0,54,40,840,0,53298,1
2,30920,29892,31322,81985,17548,-2925,2025,-1406,-29,157,265,-23,367,-293,1,0,54,40,880,0,53298,1
2,30924,29902,31323,81986,17559,-2897,2051,-1429,-90,21,31,-39,369,-291,1,0,54,40,920,0,53298,1
2,30922,29895,31321,81987,17570,-2929,2026,-1447,-58,-65,-146,-33,369,-291,1,0,54,40,960,0,53298,1
1,30918,29912,31324,81988,0,-2928,2136,-1429,86,-256,-519,-37,375,-283,1,0,54,41,0,0,53298,1
2,30925,29900,31323,81989,16865,-2916,2190,-1502,-137,-349,-609,-35,367,-277,1,0,54,41,40,0,53298,1
2,30922,29906,31321,81990,16875,-3040,2082,-1504,-164,-278,-579,-35,371,-283,1,0,54,41,80,0,53298,1
2,30923,29898,31324,81991,16885,-2974,2127,-1490,220,-403,-838,-29,369,-293,1,0,54,41,120,0,53298,1
2,30920,29891,31328,81992,16896,-3124,1768,-1375,205,-461,-1089,-25,379,-285,1,0,54,41,160,0,53298,1
2,30922,29890,31324,81993,16907,-3083,1786,-1319,374,-885,-1930,-29,383,-285,1,0,54,41,200,0,53298,1
2,30930,29881,31324,81994,16918,-3166,1585,-1327,175,-1158,-2534,-24,374,-276,1,0,54,41,240,0,53298,1
2,30931,29879,31326,81995,16928,-3492,1142,-1222,571,-1567,-3663,-19,393,-285,1,0,54,41,280,0,53298,1
2,30938,29857,31333,81996,16938,-3548,1086,-1311,1434,-2428,-5697,-13,399,-283,1,0,54,41,320,0,53298,1
2,30942,29842,31343,81997,16948,-3815,1082,-1538,2500,-2860,-7381,-11,421,-281,1,0,54,41,360,0,53298,1
2,30946,29825,31355,81998,16959,-3952,1524,-1811,4219,-2482,-8524,17,425,-277,1,0,54,41,400,0,53298,1
2,30946,29859,31350,81999,16969,-4354,1337,-1822,5103,-1708,-8901,27,457,-279,1,0,54,41,440,0,53298,1
2,30949,30126,31350,82000,16980,-4926,600,-1535,5000,-1871,-10038,36,460,-270,1,0,54,41,480,0,53298,1
2,30941,30840,31351,82001,16990,-5084,304,-1163,4881,-3732,-12743,59,477,-265,1,0,54,41,520,0,53298,1
2,30959,32450,31364,82002,17001,-4823,-76,-535,2977,-5868,-14952,93,497,-247,1,0,54,41,560,0,53298,1
2,30984,33379,31374,82003,17012,-4774,324,-530,-2053,-7871,-16664,121,511,-231,1,0,54,41,600,0,53298,1
2,30990,33337,31371,82004,17022,-3909,559,-1128,-7633,-8731,-16892,174,516,-218,1,0,54,41,640,0,53298,1
2,30999,33274,31377,82005,17033,-3835,378,-1248,-5986,-6597,-15256,211,517,-215,1,0,54,41,680,0,53298,1
2,31009,33372,31391,82006,17044,-4106,814,-1244,-1238,-4081,-12828,237,517,-205,1,0,54,41,720,0,53298,1
2,31010,33285,31397,82007,17055,-4293,635,-842,1932,-2523,-10277,252,504,-212,1,0,54,41,760,0,53298,1
2,31011,33246,31402,82008,17066,-4483,429,-1162,1821,-2042,-7719,274,510,-200,1,0,54,41,800,0,53298,1
2,31003,33235,31407,82009,17077,-4408,310,-1020,3872,-1509,-5474,287,513,-191,1,0,54,41,840,0,53298,1
2,31007,33270,31414,82010,17088,-4509,-240,-724,3600,-1328,-3404,284,508,-194,1,0,54,41,880,0,53298,1
2,31005,33256,31411,82011,17099,-4730,-548,-735,2387,-1384,-1886,283,515,-181,1,0,54,41,920,0,53298,1
2,30991,32174,31405,82012,17110,-4290,-526,-482,2540,-1220,-721,292,514,-184,1,0,54,41,960,0,53298,1
1,31046,31133,31437,82013,0,-5124,-976,156,-1801,-1231,-249,291,523,-173,1,0,54,42,0,0,53298,1
2,31061,29972,31466,82014,16415,-7113,-901,-897,-7125,118,-772,290,522,-182,1,0,54,42,40,0,53298,1
2,31039,29907,31450,82015,16425,-4450,-1819,-191,2025,81,-516,288,512,-174,1,0,54,42,80,0,53298,1
2,31060,29826,31453,82016,16437,-4102,-1221,-629,1385,615,-457,286,518,-180,1,0,54,42,120,0,53298,1
2,31070,29979,31458,82017,16447,-4710,-1277,-740,-43,1102,-61,294,518,-180,1,0,54,42,160,0,53298,1
2,31058,29895,31458,82018,16457,-4717,-1160,-539,703,841,4,297,521,-185,1,0,54,42,200,0,53298,1
2,31050,30610,31442,82019,16467,-4468,-1186,-632,879,570,-85,291,523,-177,1,0,54,42,240,0,53298,1
2,31062,30208,31448,82020,16477,-4540,-1261,-660,511,542,-136,288,514,-186,1,0,54,42,280,0,53298,1
2,31059,30582,31443,82021,16488,-4601,-1174,-582,491,513,-229,295,525,-175,1,0,54,42,320,0,53298,1
2,31056,30673,31440,82022,16498,-4555,-1218,-633,350,481,-367,284,522,-184,1,0,54,42,360,0,53298,1
2,31055,30981,31437,82023,16510,-4543,-1273,-663,65,419,-386,295,517,-187,1,0,54,42,400,0,53298,1
2,31056,30749,31440,82024,16522,-4557,-1268,-653,62,342,-250,299,519,-187,1,0,54,42,440,0,53298,1
2,31059,31075,31436,82025,16534,-4549,-1261,-651,158,244,-109,287,519,-177,1,0,54,42,480,0,53298,1
2,31056,31277,31434,82026,16546,-4553,-1262,-662,175,113,11,298,520,-182,1,0,54,42,520,0,53298,1
2,31057,31017,31437,82027,16557,-4564,-1253,-683,54,-48,59,295,523,-177,1,0,54,42,560,0,53298,1
2,31060,30502,31437,82028,16568,-4564,-1252,-659,3,-204,52,285,519,-187,1,0,54,42,600,0,53298,1
2,31059,30714,31436,82029,16578,-4544,-1266,-659,53,-294,35,299,515,-189,1,0,54,42,640,0,53298,1
2,31067,30587,31440,82030,16589,-4552,-1256,-620,45,-284,32,294,522,-182,1,0,54,42,680,0,53298,1
2,31061,30791,31436,82031,16600,-4556,-1252,-610,32,-215,44,289,509,-181,1,0,54,42,720,0,53298,1
2,31058,30886,31434,82032,16611,-4549,-1258,-609,20,-88,35,297,519,-183,1,0,54,42,760,0,53298,1
2,31065,30424,31438,82033,16622,-4556,-1251,-630,0,23,13,295,519,-187,1,0,54,42,800,0,53298,1
2,31064,30543,31437,82034,16632,-4556,-1259,-641,3,90,-29,294,522,-186,1,0,54,42,840,0,53298,1
2,31060,30561,31437,82035,16642,-4554,-1255,-643,-29,116,-69,289,521,-185,1,0,54,42,880,0,53298,1
2,31061,31142,31431,82036,16652,-4561,-1263,-646,-27,119,-67,297,525,-189,1,0,54,42,920,0,53298,1
2,31060,30869,31438,82037,16663,-4543,-1269,-664,6,95,-40,300,518,-190,1,0,54,42,960,0,53298,1
1,31062,30691,31438,82038,0,-4553,-1257,-640,30,73,15,293,511,-177,1,0,54,43,0,0,53298,1
2,31062,30904,31437,82039,15966,-4555,-1241,-649,30,62,44,286,522,-186,1,0,54,43,40,0,53298,1
2,31056,31727,31428,82040,15977,-4548,-1256,-653,8,54,43,290,520,-188,1,0,54,43,80,0,53298,1
2,31058,31342,31433,82041,15987,-4549,-1250,-645,5,43,28,298,514,-188,1,0,54,43,120,0,53298,1
2,31057,31319,31430,82042,15998,-4556,-1257,-654,5,31,0,287,517,-185,1,0,54,43,160,0,53298,1
2,31057,31343,31428,82043,16008,-4552,-1264,-659,-5,-3,-5,289,517,-185,1,0,54,43,200,0,53298,1
2,31054,32074,31431,82044,16018,-4557,-1266,-654,-18,-23,10,280,516,-182,1,0,54,43,240,0,53298,1
2,31055,31527,31432,82045,16028,-4543,-1246,-639,-7,-46,18,293,521,-181,1,0,54,43,280,0,53298,1
2,31055,31586,31429,82046,16038,-4561,-1262,-643,-8,-37,33,290,514,-190,1,0,54,43,320,0,53298,1
2,31057,31775,31429,82047,16049,-4548,-1253,-634,-8,-40,40,296,524,-184,1,0,54,43,360,0,53298,1
2,31052,31863,31427,82048,16059,-4553,-1258,-652,-4,-26,35,290,512,-188,1,0,54,43,400,0,53298,1
2,31054,31984,31429,82049,16070,-4546,-1250,-650,-2,-28,29,292,514,-184,1,0,54,43,440,0,53298,1
2,31055,31280,31426,82050,16081,-4552,-1253,-645,-9,-17,28,290,516,-184,1,0,54,43,480,0,53298,1
2,31056,31442,31431,82051,16091,-4546,-1252,-645,-10,-19,16,287,515,-185,1,0,54,43,520,0,53298,1
2,31051,31836,31429,82052,16101,-4555,-1258,-647,-8,-26,16,295,511,-185,1,0,54,43,560,0,53298,1
2,31061,31142,31432,82053,16110,-4540,-1260,-639,-2,-23,13,295,519,-185,1,0,54,43,600,0,53298,1
2,31058,31105,31436,82054,16120,-4543,-1260,-657,-1,-15,28,295,515,-179,1,0,54,43,640,0,53298,1
2,31062,30877,31438,82055,16130,-4554,-1254,-639,-10,-11,29,296,510,-182,1,0,54,43,680,0,53298,1
2,31060,31002,31438,82056,16141,-4555,-1256,-641,-1,1,27,297,517,-187,1,0,54,43,720,0,53298,1
2,31060,31034,31433,82057,16151,-4548,-1254,-654,-12,0,21,300,518,-190,1,0,54,43,760,0,53298,1
2,31063,31081,31436,82058,16161,-4554,-1273,-657,-6,1,18,292,516,-188,1,0,54,43,800,0,53298,1
2,31061,31080,31435,82059,16171,-4553,-1266,-660,-4,-5,16,291,513,-189,1,0,54,43,840,0,53298,1
2,31058,31081,31435,82060,16181,-4550,-1260,-649,-10,-10,16,291,513,-187,1,0,54,43,880,0,53298,1
2,31056,31199,31436,82061,16191,-4544,-1246,-649,-10,-6,22,297,523,-179,1,0,54,43,920,0,53298,1
2,31061,31296,31433,82062,16200,-4546,-1256,-640,-10,-10,14,288,518,-178,1,0,54,43,960,0,53298,1
1,31061,31039,31434,82063,0,-4555,-1254,-651,-8,-11,9,299,515,-179,1,0,54,44,0,0,53298,1
2,31059,31124,31434,82064,15517,-4547,-1260,-646,-7,-14,16,292,510,-184,1,0,54,44,40,0,53298,1
2,31059,31225,31435,82065,15528,-4551,-1253,-659,-9,-26,29,290,506,-186,1,0,54,44,80,0,53298,1
2,31059,31275,31433,82066,15539,-4555,-1260,-653,-5,-23,37,288,512,-176,1,0,54,44,120,0,53298,1
2,31056,31100,31432,82067,15550,-4552,-1261,-649,-14,-18,31,303,511,-187,1,0,54,44,160,0,53298,1
2,31059,31209,31433,82068,15560,-4563,-1261,-638,-9,-14,19,294,528,-186,1,0,54,44,200,0,53298,1
2,31060,31113,31435,82069,15570,-4540,-1249,-652,-17,-29,19,287,515,-183,1,0,54,44,240,0,53298,1
2,31060,30956,31433,82070,15581,-4547,-1256,-651,-8,-31,18,294,520,-188,1,0,54,44,280,0,53298,1
2,31059,30842,31433,82071,15590,-4554,-1270,-649,-13,-48,36,288,520,-186,1,0,54,44,320,0,53298,1
2,31060,31000,31433,82072,15601,-4554,-1255,-653,-5,-59,69,280,512,-170,1,0,54,44,360,0,53298,1
2,31058,30999,31436,82073,15611,-4574,-1256,-658,9,-99,169,293,515,-183,1,0,54,44,400,0,53298,1
2,31060,31024,31432,82074,15622,-4548,-1260,-688,133,-215,416,292,524,-184,1,0,54,44,440,0,53298,1
2,31050,31875,31432,82075,15632,-4517,-1080,-1020,115,-246,721,284,510,-188,1,0,54,44,480,0,53298,1
2,31045,30790,31440,82076,15644,-4615,-1374,-628,91,-185,1100,288,516,-186,1,0,54,44,520,0,53298,1
2,31043,30040,31453,82077,15656,-4469,-1158,-655,150,49,1145,285,521,-175,1,0,54,44,560,0,53298,1
2,31030,29923,31453,82078,15668,-4620,-961,-880,893,367,1157,283,527,-185,1,0,54,44,600,0,53298,1
2,31001,29975,31438,82079,15680,-4332,25,-1545,2351,1194,1795,274,522,-186,1,0,54,44,640,0,53298,1
2,30995,29921,31436,82080,15692,-4288,1063,-1593,3545,2757,4362,251,527,-193,1,0,54,44,680,0,53298,1
2,31000,29946,31429,82081,15703,-4634,1240,-2024,-341,4481,8064,223,547,-185,1,0,54,44,720,0,53298,1
2,30991,30054,31415,82082,15715,-4421,620,-2068,-4490,6365,11423,195,551,-209,1,0,54,44,760,0,53298,1
2,30982,29816,31416,82083,15726,-4344,383,-1775,-3428,8117,14026,151,553,-223,1,0,54,44,800,0,53298,1
2,30960,30767,31377,82084,15737,-4093,26,-1342,-1279,9664,15741,105,545,-249,1,0,54,44,840,0,53298,1
2,30946,31686,31367,82085,15748,-4028,-568,-972,2076,10902,15888,63,543,-273,1,0,54,44,880,0,53298,1
2,30960,31489,31371,82086,15760,-5213,-378,-388,5857,11427,15088,27,515,-311,1,0,54,44,920,0,53298,1
2,30971,31195,31375,82087,15773,-6434,-155,15,5237,8875,12441,10,504,-312,1,0,54,44,960,0,53298,1
1,31010,31441,31402,82088,0,-5255,97,-90,1455,2093,7389,6,490,-314,1,0,54,45,0,1,53298,1
2,31075,33070,31485,82089,15069,-3964,263,-990,-5968,-3637,3807,2,480,-300,1,0,54,45,40,1,53298,1
2,31406,33841,31770,82090,15084,-3471,279,-1852,-8122,-4635,3238,-8,476,-276,1,0,54,45,80,1,53298,1
2,31683,34409,31981,82091,15098,-4025,232,-2096,-5740,-4086,3260,-2,474,-262,1,0,54,45,120,1,53298,1
2,32269,31891,32664,82092,15114,-3903,917,-2247,-1956,-4132,1277,0,466,-256,1,0,54,45,160,1,53298,1
2,32307,31531,32725,82093,15129,-3557,1681,-2464,862,-2390,597,-6,478,-256,1,0,54,45,200,1,53298,1
2,32567,32650,32714,82094,15146,-3612,1998,-1576,-452,-936,1602,-9,461,-247,1,0,54,45,240,1,53298,1
2,32898,33357,32556,82095,15163,-3860,1408,-1497,-2514,-556,2493,-15,465,-243,1,0,54,45,280,1,53298,1
2,32290,35444,32564,82096,15180,-3585,952,-1330,-2588,-590,1934,-10,454,-246,1,0,54,45,320,1,53298,1
2,32715,35749,32846,82097,15197,-3683,791,-1101,-1209,-412,1064,-25,461,-247,1,0,54,45,360,1,53298,1
2,32786,34742,33038,82098,15213,-3919,736,-924,-363,-639,247,-16,456,-244,1,0,54,45,400,1,53298,1
2,32712,34932,32974,82099,15230,-4110,2924,-2485,528,-764,-295,-13,461,-251,1,0,54,45,440,1,53298,1
2,32829,35125,33038,82100,15246,-3914,918,-1119,2279,-89,398,-19,457,-249,1,0,54,45,480,1,53298,1
2,32714,35251,33013,82101,15263,-3748,1456,-1579,1370,-275,-39,-15,455,-245,1,0,54,45,520,1,53298,1
2,32584,35733,33019,82102,15281,-3794,1324,-1495,1093,-360,318,-18,460,-234,1,0,54,45,560,1,53298,1
2,32758,36417,33108,82103,15298,-3612,1572,-1479,-545,-481,-105,-4,454,-244,1,0,54,45,600,1,53298,1
2,32357,35985,32644,82104,15316,-3517,1394,-1330,-1677,-357,-37,-6,454,-240,1,0,54,45,640,1,53298,1
2,32926,36764,33110,82105,15333,-3605,1472,-1376,-1358,-409,290,-14,464,-240,1,0,54,45,680,1,53298,1
2,32899,36775,33249,82106,15350,-3501,1664,-1518,-1353,-553,308,-17,455,-235,1,0,54,45,720,1,53298,1
2,32789,36528,33094,82107,15367,-3695,1533,-1335,-2145,-392,396,-16,456,-236,1,0,54,45,760,1,53298,1
2,32780,33142,33113,82108,15383,-3913,1334,-1270,-3268,-489,319,-17,455,-219,1,0,54,45,800,1,53298,1
2,32882,31711,33144,82109,15399,-3780,1492,-1224,-3376,-775,129,-16,456,-222,1,0,54,45,840,1,53298,1
2,32875,31471,33140,82110,15414,-3844,1360,-1073,-3191,-669,274,-24,460,-222,1,0,54,45,880,1,53298,1
2,32800,33632,33079,82111,15430,-3952,1430,-968,-2415,-427,413,-19,455,-213,1,0,54,45,920,1,53298,1
2,32807,34187,33050,82112,15447,-3640,1515,-1019,-866,-371,250,-19,455,-219,1,0,54,45,960,1,53298,1
1,32792,33770,33033,82113,0,-3691,1651,-1035,-343,-29,208,-25,459,-207,1,0,54,46,0,1,53298,1
2,32980,36435,33108,82114,14622,-3743,1511,-1039,2,156,108,-9,455,-215,1,0,54,46,40,1,53298,1
2,32965,36468,33147,82115,14637,-3712,1547,-1168,574,79,-15,-18,452,-214,1,0,54,46,80,1,53298,1
2,32994,36783,33195,82116,14652,-3745,1527,-1108,331,119,-93,-19,453,-213,1,0,54,46,120,1,53298,1
2,33121,36814,33232,82117,14668,-3779,1479,-1089,59,235,-53,-24,452,-204,1,0,54,46,160,1,53298,1
2,33218,36760,33165,82118,14682,-3718,1552,-1107,714,237,-103,-19,459,-221,1,0,54,46,200,1,53298,1
2,33313,36643,33167,82119,14698,-3730,1526,-1158,1048,285,-85,-16,448,-216,1,0,54,46,240,1,53298,1
2,33310,36564,33146,82120,14713,-3764,1478,-1192,1143,286,-75,-12,460,-226,1,0,54,46,280,1,53298,1
2,33249,36780,33126,82121,14727,-3718,1501,-1202,865,235,-153,-17,455,-225,1,0,54,46,320,1,53298,1
2,33317,36625,33012,82122,14742,-3716,1541,-1252,563,230,-195,-14,446,-218,1,0,54,46,360,1,53298,1
2,33399,36665,33097,82123,14756,-3760,1489,-1182,657,233,-190,-15,453,-221,1,0,54,46,400,1,53298,1
2,33320,36544,33057,82124,14770,-3758,1404,-1218,802,141,-279,-17,455,-225,1,0,54,46,440,1,53298,1
2,33377,36385,33020,82125,14786,-3752,1480,-1317,882,74,-354,-14,454,-218,1,0,54,46,480,1,53298,1
2,33368,36424,32987,82126,14800,-3738,1432,-1163,806,110,-332,-18,460,-236,1,0,54,46,520,1,53298,1
2,33356,36400,33037,82127,14813,-3773,1534,-1315,619,-6,-313,-9,461,-231,1,0,54,46,560,1,53298,1
2,33437,36457,33128,82128,14827,-3739,1454,-1426,84,-198,-369,-10,456,-220,1,0,54,46,600,1,53298,1
2,33370,36409,33107,82129,14841,-3694,1404,-1044,-662,8,-259,-9,451,-223,1,0,54,46,640,1,53298,1
2,33370,36389,33043,82130,14855,-3841,1454,-1181,-719,0,-64,-18,458,-232,1,0,54,46,680,1,53298,1
2,33284,35478,32904,82131,14869,-3873,1464,-1283,-1,-307,-246,-8,458,-226,1,0,54,46,720,1,53298,1
2,33278,35596,32912,82132,14883,-3770,1422,-1401,-588,-580,-356,-16,452,-220,1,0,54,46,760,1,53298,1
2,33263,35556,32919,82133,14897,-3806,1639,-1427,-3082,-367,-332,-3,459,-221,1,0,54,46,800,1,53298,1
2,33264,35582,32893,82134,14911,-3965,1725,-1327,-5161,-141,-382,-4,454,-218,1,0,54,46,840,1,53298,1
2,33279,34479,32872,82135,14924,-4035,1590,-1621,-4651,160,-113,-5,467,-219,1,0,54,46,880,1,53298,1
2,33211,34623,32856,82136,14938,-4348,1251,-1255,-1566,719,-111,-5,459,-211,1,0,54,46,920,1,53298,1
2,33242,33584,32859,82137,14952,-4762,556,-1226,956,548,-1337,0,474,-214,1,0,54,46,960,1,53298,1
1,33163,33676,32845,82138,0,-4650,394,-1184,2773,581,-4133,8,478,-228,1,0,54,47,0,1,53298,1
2,33109,34218,32790,82139,14173,-4769,302,-966,3948,727,-6577,27,503,-245,1,0,54,47,40,1,53298,1
2,33089,35179,32791,82140,14185,-4705,-122,-880,4428,300,-8836,51,499,-239,1,0,54,47,80,1,53298,1
2,33106,35657,32814,82141,14197,-4657,8,-423,5315,-333,-11153,78,518,-258,1,0,54,47,120,1,53298,1
2,32876,35430,32673,82142,14210,-4703,277,-242,3908,-1947,-12845,112,526,-256,1,0,54,47,160,1,53298,1
2,31844,34192,31992,82143,14222,-4371,87,-349,384,-4119,-13534,157,533,-253,1,0,54,47,200,1,53298,1
2,31463,34085,31857,82144,14234,-4085,163,-546,-1131,-5559,-13570,188,526,-230,1,0,54,47,240,1,53298,1
2,31292,33160,31732,82145,14246,-3689,450,-748,-1964,-6222,-13050,220,520,-222,1,0,54,47,280,1,53298,1
2,31420,31239,31838,82146,14257,-3405,380,-749,-1704,-6154,-11485,245,521,-203,1,0,54,47,320,1,53298,1
2,32288,32418,32367,82147,14268,-3328,307,-753,12,-5776,-9512,264,502,-198,1,0,54,47,360,1,53298,1
2,31597,31761,31977,82148,14280,-3805,406,-897,1699,-5024,-7089,275,515,-191,1,0,54,47,400,1,53298,1
2,31822,34911,32133,82149,14292,-4165,88,-668,1737,-4372,-5145,291,509,-181,1,0,54,47,440,1,53298,1
2,32782,32829,32634,82150,14303,-4780,-733,-788,211,-4049,-3850,298,516,-168,1,0,54,47,480,1,53298,1
2,31881,35164,32476,82151,14314,-4899,-759,-783,458,-3286,-3066,296,510,-164,1,0,54,47,520,1,53298,1
2,32185,31717,32646,82152,14324,-5099,-1058,-454,1774,-2370,-2064,304,520,-146,1,0,54,47,560,1,53298,1
2,32987,31006,32567,82153,14335,-5260,-981,-197,2637,-2292,-1410,300,508,-142,1,0,54,47,600,1,53298,1
2,32845,31116,32742,82154,14345,-4748,-1070,-82,974,-2904,-808,306,506,-140,1,0,54,47,640,1,53298,1
2,32750,31133,32699,82155,14355,-5418,-456,-769,-2753,-1538,198,308,512,-142,1,0,54,47,680,1,53298,1
2,32764,31085,32705,82156,14365,-4788,-1851,-546,-833,-1195,618,295,511,-137,1,0,54,47,720,1,53298,1
2,32263,30974,32389,82157,14375,-4594,-1103,-45,-514,-1193,566,301,507,-137,1,0,54,47,760,1,53298,1
2,32297,30941,32407,82158,14385,-4442,-1165,82,-1169,-1947,948,295,503,-123,1,0,54,47,800,1,53298,1
2,32290,30983,32425,82159,14395,-4854,-1306,-212,-1250,-2516,1767,301,513,-127,1,0,54,47,840,1,53298,1
2,32350,30943,32444,82160,14406,-4759,-1038,138,204,-2642,1374,293,503,-119,1,0,54,47,880,1,53298,1
2,32345,30900,32473,82161,14416,-4484,-974,476,874,-2170,348,289,509,-113,1,0,54,47,920,1,53298,1
2,32305,30869,32483,82162,14427,-4541,-1005,371,-81,-818,-1109,296,510,-118,1,0,54,47,960,1,53298,1
1,32324,30902,32470,82163,0,-4666,-1026,266,-330,690,-3005,298,506,-130,1,0,54,48,0,1,53298,1
2,32249,30858,32467,82164,13723,-4527,-1336,-181,-575,2447,-4472,314,502,-132,1,0,54,48,40,1,53298,1
2,32303,30888,32488,82165,13733,-4645,-1410,150,-73,3126,-4954,323,495,-139,1,0,54,48,80,1,53298,1
2,32436,30890,32525,82166,13744,-4644,-1426,-255,1097,3025,-5147,333,487,-141,1,0,54,48,120,1,53298,1
2,32342,30852,32471,82167,13755,-4653,-1615,-413,542,1482,-4127,327,493,-135,1,0,54,48,160,1,53298,1
2,32090,30770,32357,82168,13765,-4620,-1893,-185,231,-558,-2567,336,488,-134,1,0,54,48,200,1,53298,1
2,32043,30804,32369,82169,13775,-4329,-1860,146,232,-2012,-1097,330,494,-124,1,0,54,48,240,1,53298,1
2,31993,30797,32315,82170,13786,-4387,-1814,18,-48,-2432,519,323,493,-115,1,0,54,48,280,1,53298,1
2,31916,30775,32298,82171,13797,-4598,-1592,268,105,-1768,1512,326,496,-120,1,0,54,48,320,1,53298,1
2,31845,30796,32267,82172,13807,-4486,-1522,347,65,-524,1412,328,488,-132,1,0,54,48,360,1,53298,1
2,31927,30801,32273,82173,13818,-4538,-1534,139,-277,642,917,333,501,-123,1,0,54,48,400,1,53298,1
2,31879,30788,32248,82174,13830,-4595,-1547,69,-472,1349,214,329,489,-117,1,0,54,48,440,1,53298,1
2,31845,30806,32245,82175,13841,-4602,-1599,-19,-668,1369,-186,329,495,-129,1,0,54,48,480,1,53298,1
2,31843,30781,32190,82176,13852,-4570,-1632,-112,-543,894,-561,326,496,-138,1,0,54,48,520,1,53298,1
2,31984,30786,32196,82177,13863,-4539,-1672,-106,-189,398,-836,326,492,-130,1,0,54,48,560,1,53298,1
2,31947,30782,32159,82178,13874,-4534,-1696,-35,-69,-63,-708,337,491,-125,1,0,54,48,600,1,53298,1
2,31885,30778,32152,82179,13885,-4528,-1704,-3,48,-306,-364,329,493,-135,1,0,54,48,640,1,53298,1
2,31881,30765,32142,82180,13897,-4508,-1675,-9,136,-264,45,333,493,-127,1,0,54,48,680,1,53298,1
2,31845,30765,32138,82181,13908,-4507,-1647,36,238,-42,297,330,488,-134,1,0,54,48,720,1,53298,1
2,31811,30744,32099,82182,13919,-4543,-1622,31,119,335,360,328,492,-120,1,0,54,48,760,1,53298,1
2,31787,30733,32094,82183,13931,-4542,-1613,-30,-53,658,240,330,494,-128,1,0,54,48,800,1,53298,1
2,31691,30722,32047,82184,13943,-4557,-1619,-33,-53,833,-10,333,491,-135,1,0,54,48,840,1,53298,1
2,31624,30713,32040,82185,13955,-4535,-1641,-64,-124,830,-126,328,498,-136,1,0,54,48,880,1,53298,1
2,31618,30679,32023,82186,13965,-4561,-1672,-120,-193,633,-64,334,492,-136,1,0,54,48,920,1,53298,1
2,31589,30677,32017,82187,13976,-4548,-1656,-122,-71,297,11,320,492,-132,1,0,54,48,960,1,53298,1
1,31573,30692,32013,82188,0,-4550,-1668,-94,51,-18,102,335,501,-137,1,0,54,49,0,1,53298,1
2,31543,30692,32003,82189,13274,-4543,-1651,-81,134,-184,203,333,493,-141,1,0,54,49,40,1,53298,1
2,31549,30696,32000,82190,13286,-4536,-1619,-50,138,-179,197,332,496,-134,1,0,54,49,80,1,53298,1
2,31499,30713,32001,82191,13299,-4540,-1618,-52,24,-3,127,329,493,-135,1,0,54,49,120,1,53298,1
2,31445,30698,31981,82192,13310,-4544,-1628,-60,-79,248,30,334,498,-134,1,0,54,49,160,1,53298,1
2,31422,30688,31975,82193,13321,-4549,-1640,-88,-119,493,-69,334,496,-150,1,0,54,49,200,1,53298,1
2,31366,30704,31982,82194,13332,-4535,-1650,-105,-124,586,-110,332,496,-144,1,0,54,49,240,1,53298,1
2,31307,30710,31980,82195,13343,-4544,-1658,-133,-64,520,-81,321,497,-147,1,0,54,49,280,1,53298,1
2,31287,30700,31967,82196,13354,-4555,-1640,-120,57,368,-41,324,502,-148,1,0,54,49,320,1,53298,1
2,31180,30689,31955,82197,13365,-4535,-1644,-155,77,216,-17,325,501,-143,1,0,54,49,360,1,53298,1
2,31156,30684,31956,82198,13377,-4541,-1645,-119,11,123,-2,333,503,-137,1,0,54,49,400,1,53298,1
2,31174,30678,31948,82199,13389,-4538,-1650,-146,-5,97,17,337,495,-137,1,0,54,49,440,1,53298,1
2,31166,30687,31944,82200,13401,-4552,-1649,-147,24,143,16,334,490,-134,1,0,54,49,480,1,53298,1
2,31169,30681,31948,82201,13413,-4537,-1642,-145,24,192,-20,339,495,-145,1,0,54,49,520,1,53298,1
2,31192,30688,31946,82202,13425,-4547,-1657,-147,-25,235,-37,326,500,-134,1,0,54,49,560,1,53298,1
2,31160,30685,31937,82203,13437,-4538,-1659,-160,-33,227,-30,327,491,-143,1,0,54,49,600,1,53298,1
2,31208,30691,31937,82204,13449,-4535,-1652,-173,-7,189,-23,333,497,-143,1,0,54,49,640,1,53298,1
2,31205,30680,31929,82205,13460,-4541,-1659,-153,18,128,2,333,499,-139,1,0,54,49,680,1,53298,1
2,31205,30685,31932,82206,13472,-4556,-1667,-166,-15,82,10,327,493,-149,1,0,54,49,720,1,53298,1
2,31124,30691,31926,82207,13483,-4533,-1644,-164,-6,32,11,320,492,-146,1,0,54,49,760,1,53298,1
2,31132,30684,31914,82208,13495,-4539,-1650,-164,0,18,19,333,499,-153,1,0,54,49,800,1,53298,1
2,31139,30689,31911,82209,13506,-4571,-1643,-113,186,28,82,335,501,-147,1,0,54,49,840,1,53298,1
2,31166,30688,31910,82210,13516,-4593,-1626,-224,231,-39,201,322,496,-140,1,0,54,49,880,1,53298,1
2,31032,30447,31880,82211,13528,-5018,-1505,-363,189,-250,728,329,495,-141,1,0,54,49,920,1,53298,1
2,31023,30705,31872,82212,13539,-4494,-1458,-171,4,-1076,1922,317,501,-145,1,0,54,49,960,1,53298,1
1,30764,30645,31845,82213,0,-4418,-732,-394,-156,-1316,2615,311,505,-143,1,0,54,50,0,1,53298,1
2,30477,30343,31825,82214,12826,-4620,333,-841,-796,-731,4553,299,509,-131,1,0,54,50,40,1,53298,1
2,30609,30383,31813,82215,12838,-4698,196,-1136,-2601,1043,7351,269,523,-155,1,0,54,50,80,1,53298,1
2,30640,30293,31789,82216,12851,-4768,176,-1006,-1400,3295,9703,254,522,-152,1,0,54,50,120,1,53298,1
2,30679,30277,31785,82217,12863,-4714,291,-895,-606,5305,11653,225,529,-153,1,0,54,50,160,1,53298,1
2,30719,30293,31789,82218,12875,-4609,183,-798,-746,6809,12979,186,546,-160,1,0,54,50,200,1,53298,1
2,30865,30420,31785,82219,12887,-4537,-42,-812,-875,7987,13860,139,549,-193,1,0,54,50,240,1,53298,1
2,31006,30565,31790,82220,12899,-4853,-128,-694,-208,8833,14379,111,541,-213,1,0,54,50,280,1,53298,1
2,30974,30313,31745,82221,12911,-4883,-237,-697,-41,8663,14073,83,537,-229,1,0,54,50,320,1,53298,1
2,30861,30313,31742,82222,12923,-4618,-31,-868,1003,8101,13432,48,514,-246,1,0,54,50,360,1,53298,1
2,31260,30276,31750,82223,12934,-4400,421,-960,1935,7532,12770,30,504,-268,1,0,54,50,400,1,53298,1
2,31198,30317,31765,82224,12946,-4318,588,-1001,1170,6752,12034,7,479,-285,1,0,54,50,440,1,53298,1
2,31155,30291,31729,82225,12957,-4161,512,-994,-1171,5861,10907,-9,457,-281,1,0,54,50,480,1,53298,1
2,31185,30580,31750,82226,12969,-4016,459,-969,-2749,4834,9155,-27,451,-269,1,0,54,50,520,1,53298,1
2,31180,30419,31725,82227,12982,-3852,1139,-1187,-2408,3991,7679,-41,439,-287,1,0,54,50,560,1,53298,1
2,31192,30433,31711,82228,12994,-3718,966,-1248,-1,3053,6857,-46,420,-300,1,0,54,50,600,1,53298,1
2,31189,30634,31711,82229,13005,-3742,1160,-1207,3846,2006,5139,-51,415,-313,1,0,54,50,640,1,53298,1
2,31209,30588,31710,82230,13016,-3517,1438,-1156,4487,371,3255,-63,415,-305,1,0,54,50,680,1,53298,1
2,31169,30714,31707,82231,13027,-3334,1402,-1444,1642,-1081,2116,-63,407,-303,1,0,54,50,720,1,53298,1
2,31448,30774,31948,82232,13038,-3490,784,-1449,-1959,-2006,1172,-65,401,-289,1,0,54,50,760,1,53298,1
2,31947,30855,32148,82233,13050,-3533,897,-1927,-3504,-2795,-405,-69,409,-277,1,0,54,50,800,1,53298,1
2,32993,35151,32878,82234,13063,-3436,1229,-1960,-1621,-3003,-1970,-61,417,-265,1,0,54,50,840,1,53298,1
2,32933,33614,32918,82235,13077,-3390,2192,-2093,-900,-2734,-2566,-62,424,-258,1,0,54,50,880,1,53298,1
2,33154,32521,32955,82236,13092,-3644,2512,-2152,-1772,-2139,-2058,-57,435,-257,1,0,54,50,920,1,53298,1
2,32978,31222,32902,82237,13108,-3455,2403,-2071,-1899,-1444,-1329,-50,436,-250,1,0,54,50,960,1,53298,1
1,33321,35757,33013,82238,0,-3341,2209,-1932,-701,-518,-827,-60,438,-264,1,0,54,51,0,1,53298,1
2,33321,33678,32984,82239,12379,-3296,1988,-1643,576,556,-135,-64,428,-252,1,0,54,51,40,1,53298,1
2,33266,31447,32960,82240,12395,-3529,1708,-1392,706,1108,281,-66,432,-266,1,0,54,51,80,1,53298,1
2,33250,31274,32938,82241,12410,-3477,1567,-1307,266,971,-71,-57,431,-265,1,0,54,51,120,1,53298,1
2,32680,32524,32580,82242,12425,-3400,1490,-1206,-5,619,-282,-68,444,-264,1,0,54,51,160,1,53298,1
2,32202,32353,32156,82243,12439,-3406,1635,-1294,-404,172,-224,-60,440,-258,1,0,54,51,200,1,53298,1
2,31865,31375,32018,82244,12453,-3439,1621,-1378,-637,-88,-316,-69,435,-263,1,0,54,51,240,1,53298,1
2,31695,30846,31918,82245,12468,-3450,1707,-1455,-485,-272,-599,-69,437,-255,1,0,54,51,280,1,53298,1
2,31548,30649,31865,82246,12482,-3403,1842,-1581,-266,-334,-623,-62,432,-254,1,0,54,51,320,1,53298,1
2,31468,31010,31818,82247,12495,-3483,1785,-1534,-96,-136,-360,-66,444,-256,1,0,54,51,360,1,53298,1
2,31436,30961,31800,82248,12508,-3485,1727,-1556,-95,-133,-290,-60,440,-252,1,0,54,51,400,1,53298,1
2,31418,31030,31780,82249,12523,-3458,1696,-1569,-5,-60,-207,-61,441,-255,1,0,54,51,440,1,53298,1
2,31387,30694,31779,82250,12537,-3483,1656,-1508,134,72,-94,-60,450,-266,1,0,54,51,480,1,53298,1
2,31367,30686,31764,82251,12550,-3495,1645,-1451,-61,18,-128,-59,445,-257,1,0,54,51,520,1,53298,1
2,31365,30457,31772,82252,12563,-3457,1682,-1483,-317,-83,-162,-64,442,-252,1,0,54,51,560,1,53298,1
2,31345,30331,31760,82253,12577,-3475,1620,-1458,-324,-76,-155,-61,443,-251,1,0,54,51,600,1,53298,1
2,31353,30336,31772,82254,12590,-3480,1601,-1449,-206,-114,-224,-61,441,-255,1,0,54,51,640,1,53298,1
2,31335,30313,31767,82255,12604,-3448,1671,-1454,-33,-161,-322,-50,440,-250,1,0,54,51,680,1,53298,1
2,31324,30312,31760,82256,12617,-3469,1726,-1477,40,-175,-214,-54,440,-256,1,0,54,51,720,1,53298,1
2,31303,30443,31747,82257,12631,-3493,1728,-1527,77,-137,-81,-59,443,-239,1,0,54,51,760,1,53298,1
2,31254,31142,31728,82258,12644,-3476,1701,-1554,157,-56,-18,-58,448,-248,1,0,54,51,800,1,53298,1
2,31279,30490,31735,82259,12657,-3489,1628,-1458,243,58,13,-58,450,-254,1,0,54,51,840,1,53298,1
2,31278,30427,31737,82260,12670,-3502,1621,-1428,206,34,5,-61,443,-247,1,0,54,51,880,1,53298,1
2,31282,30354,31743,82261,12683,-3483,1638,-1459,129,-74,9,-56,442,-242,1,0,54,51,920,1,53298,1
2,31270,30420,31730,82262,12696,-3479,1695,-1519,187,-121,32,-63,441,-253,1,0,54,51,960,1,53298,1
1,31250,30920,31725,82263,0,-3514,1665,-1481,137,-93,108,-55,443,-253,1,0,54,52,0,1,53298,1
2,31246,31777,31723,82264,11930,-3495,1636,-1518,-47,-156,52,-62,452,-240,1,0,54,52,40,1,53298,1
2,31250,31374,31726,82265,11943,-3486,1615,-1526,-94,-136,52,-63,441,-259,1,0,54,52,80,1,53298,1
2,31240,31681,31723,82266,11955,-3497,1585,-1549,-68,-77,46,-65,447,-249,1,0,54,52,120,1,53298,1
2,31241,31691,31718,82267,11967,-3501,1615,-1527,-49,-5,-1,-54,440,-246,1,0,54,52,160,1,53298,1
2,31223,31683,31715,82268,11979,-3494,1676,-1476,-241,-31,-58,-53,437,-249,1,0,54,52,200,1,53298,1
2,31198,31684,31708,82269,11991,-3496,1642,-1459,-425,-25,-30,-52,442,-256,1,0,54,52,240,1,53298,1
2,31192,31772,31705,82270,12004,-3486,1621,-1452,-242,-27,14,-58,440,-240,1,0,54,52,280,1,53298,1
2,31192,32333,31704,82271,12017,-3484,1683,-1470,37,-30,-8,-62,446,-242,1,0,54,52,320,1,53298,1
2,31176,32277,31706,82272,12030,-3486,1647,-1483,119,2,31,-53,441,-245,1,0,54,52,360,1,53298,1
2,31171,32259,31705,82273,12043,-3484,1630,-1489,57,-3,57,-56,440,-254,1,0,54,52,400,1,53298,1
2,31185,31408,31703,82274,12057,-3497,1655,-1489,-64,-15,13,-57,449,-253,1,0,54,52,440,1,53298,1
2,31174,31533,31705,82275,12070,-3495,1711,-1481,-327,-47,7,-63,445,-249,1,0,54,52,480,1,53298,1
2,31169,31659,31708,82276,12083,-3595,1680,-1438,-809,-164,-30,-57,443,-251,1,0,54,52,520,1,53298,1
2,31157,31559,31710,82277,12095,-3636,1903,-1508,-1472,-467,-296,-62,448,-246,1,0,54,52,560,1,53298,1
2,31152,31622,31713,82278,12107,-3704,2023,-1509,-1699,-549,-403,-62,436,-244,1,0,54,52,600,1,53298,1
2,31134,32420,31710,82279,12120,-3887,1850,-1533,-1118,-628,-207,-54,444,-254,1,0,54,52,640,1,53298,1
2,31131,32320,31708,82280,12132,-3923,1669,-1497,-304,-773,-484,-39,443,-247,1,0,54,52,680,1,53298,1
2,31063,30539,31682,82281,12144,-4014,1280,-1323,323,-836,-1181,-41,449,-249,1,0,54,52,720,1,53298,1
2,31034,31649,31666,82282,12157,-3859,1270,-1010,1130,-1259,-2177,-28,448,-244,1,0,54,52,760,1,53298,1
2,31700,32110,32090,82283,12167,-3517,1531,-887,710,-2009,-2774,-33,451,-245,1,0,54,52,800,1,53298,1
2,32161,33023,32257,82284,12178,-3484,1190,-639,-931,-2823,-2530,-29,439,-229,1,0,54,52,840,1,53298,1
2,32202,32222,32364,82285,12190,-3471,1472,-978,-2296,-3163,-2157,-10,454,-224,1,0,54,52,880,1,53298,1
2,32235,32384,32349,82286,12201,-3708,1381,-1273,-3159,-3078,-2207,2,454,-226,1,0,54,52,920,1,53298,1
2,32280,32851,32369,82287,12213,-4071,1134,-1326,-2201,-2585,-2486,2,456,-226,1,0,54,52,960,1,53298,1
1,32499,32930,32532,82288,0,-4250,1030,-1263,424,-2552,-3269,7,457,-219,1,0,54,53,0,1,53298,1
2,32555,32518,32529,82289,11481,-4648,696,-1171,1428,-2326,-4150,25,467,-223,1,0,54,53,40,1,53298,1
2,32648,32705,32616,82290,11492,-4838,325,-827,3248,-2765,-5893,44,478,-226,1,0,54,53,80,1,53298,1
2,32270,32097,32344,82291,11502,-4856,7,-292,3834,-4051,-8139,52,484,-216,1,0,54,53,120,1,53298,1
2,31785,31334,32130,82292,11513,-4728,-125,-441,1337,-5230,-10415,88,492,-206,1,0,54,53,160,1,53298,1
2,31645,31176,32025,82293,11525,-4237,-146,-596,45,-5286,-12106,125,507,-201,1,0,54,53,200,1,53298,1
2,31539,30905,31954,82294,11535,-4221,-129,-442,1063,-4756,-12785,147,497,-177,1,0,54,53,240,1,53298,1
2,31560,30900,31974,82295,11547,-4210,70,-355,1782,-4557,-12945,176,510,-186,1,0,54,53,280,1,53298,1
2,31514,30865,31944,82296,11558,-4154,184,-326,1132,-4745,-12751,202,500,-168,1,0,54,53,320,1,53298,1
2,31498,30884,31977,82297,11570,-4243,-71,-421,407,-4780,-12136,233,513,-167,1,0,54,53,360,1,53298,1
2,31033,30502,31714,82298,11582,-4501,-67,-276,1239,-4694,-11285,262,498,-162,1,0,54,53,400,1,53298,1
2,30792,30356,31626,82299,11593,-4682,-65,-225,1869,-4847,-10026,274,488,-156,1,0,54,53,440,1,53298,1
2,30689,30291,31581,82300,11604,-4830,-362,-331,1613,-5059,-8478,296,486,-124,1,0,54,53,480,1,53298,1
2,30841,30379,31655,82301,11615,-4748,-577,-399,1327,-4762,-6984,303,479,-131,1,0,54,53,520,1,53298,1
2,31217,30639,31878,82302,11627,-4579,-514,-461,1111,-3854,-5360,314,482,-126,1,0,54,53,560,1,53298,1
2,31506,30925,32000,82303,11637,-4565,-568,-449,387,-2602,-3509,321,475,-129,1,0,54,53,600,1,53298,1
2,31420,30797,31937,82304,11648,-4589,-849,-242,-1066,-1459,-1551,324,474,-114,1,0,54,53,640,1,53298,1
2,31270,30789,31883,82305,11659,-4556,-1307,-296,-1851,-406,-133,322,472,-130,1,0,54,53,680,1,53298,1
2,31261,30672,31878,82306,11671,-4643,-1420,-55,195,849,698,313,479,-121,1,0,54,53,720,1,53298,1
2,31265,30642,31850,82307,11682,-4583,-1211,278,663,1303,1102,313,487,-123,1,0,54,53,760,1,53298,1
2,31110,30645,31823,82308,11694,-4614,-1387,193,-1442,1098,1294,310,482,-118,1,0,54,53,800,1,53298,1
2,31151,30692,31852,82309,11705,-5071,-2223,636,-1974,1008,1378,312,488,-122,1,0,54,53,840,1,53298,1
2,31086,30691,31825,82310,11716,-4893,-1933,671,205,212,260,314,482,-120,1,0,54,53,880,1,53298,1
2,31068,30643,31821,82311,11727,-4526,-956,22,-494,-449,-267,322,488,-130,1,0,54,53,920,1,53298,1
2,31052,30633,31824,82312,11739,-4371,-1530,315,-647,-264,23,314,488,-122,1,0,54,53,960,1,53298,1
1,31039,30571,31825,82313,0,-4474,-1579,192,-1499,-223,-99,316,490,-126,1,0,54,54,0,1,53298,1
2,31037,30484,31835,82314,11034,-4609,-1553,20,-897,39,-136,316,490,-118,1,0,54,54,40,1,53298,1
2,31001,30482,31833,82315,11045,-4633,-1484,81,-514,353,-399,315,481,-119,1,0,54,54,80,1,53298,1
2,31049,30515,31848,82316,11056,-4675,-1506,220,-32,606,-640,319,489,-127,1,0,54,54,120,1,53298,1
2,31097,30460,31873,82317,11067,-4694,-1466,169,225,815,-806,316,490,-118,1,0,54,54,160,1,53298,1
2,31135,30593,31885,82318,11078,-4550,-1559,98,17,879,-914,322,490,-120,1,0,54,54,200,1,53298,1
2,31199,31304,31895,82319,11090,-4532,-1637,61,-239,833,-853,321,491,-133,1,0,54,54,240,1,53298,1
2,31296,34235,31942,82320,11101,-4556,-1626,31,-149,735,-658,325,495,-129,1,0,54,54,280,1,53298,1
2,31420,33973,31990,82321,11112,-4583,-1629,45,65,586,-448,315,495,-135,1,0,54,54,320,1,53298,1
2,31455,32985,31953,82322,11123,-4562,-1612,43,111,411,-247,322,492,-128,1,0,54,54,360,1,53298,1
2,31691,33537,32116,82323,11134,-4561,-1611,31,38,271,-94,331,491,-129,1,0,54,54,400,1,53298,1
2,31703,33847,32108,82324,11145,-4557,-1606,56,30,219,-40,312,488,-134,1,0,54,54,440,1,53298,1
2,31525,32406,31998,82325,11156,-4565,-1606,34,37,228,-53,321,489,-129,1,0,54,54,480,1,53298,1
2,31468,31680,31935,82326,11167,-4545,-1598,18,28,264,-101,328,490,-120,1,0,54,54,520,1,53298,1
2,31316,30992,31859,82327,11177,-4548,-1599,14,-46,276,-138,321,491,-129,1,0,54,54,560,1,53298,1
2,31283,30605,31828,82328,11188,-4565,-1633,25,-89,245,-139,323,493,-125,1,0,54,54,600,1,53298,1
2,31134,30829,31789,82329,11199,-4555,-1628,-2,-72,189,-113,331,487,-135,1,0,54,54,640,1,53298,1
2,31178,30427,31777,82330,11210,-4553,-1627,16,-15,117,-83,326,490,-126,1,0,54,54,680,1,53298,1
2,31121,30663,31753,82331,11222,-4541,-1626,2,0,70,-53,322,490,-136,1,0,54,54,720,1,53298,1
2,31143,30415,31750,82332,11233,-4546,-1620,-2,-11,79,-17,322,486,-132,1,0,54,54,760,1,53298,1
2,31089,30367,31724,82333,11244,-4551,-1630,7,-16,93,-14,324,496,-140,1,0,54,54,800,1,53298,1
2,31088,30949,31712,82334,11256,-4546,-1618,-1,-35,86,-27,326,482,-128,1,0,54,54,840,1,53298,1
2,31021,30693,31711,82335,11267,-4548,-1629,-17,-42,80,-22,319,495,-127,1,0,54,54,880,1,53298,1
2,31010,30334,31710,82336,11278,-4541,-1623,-1,-31,77,-40,325,491,-135,1,0,54,54,920,1,53298,1
2,31032,30501,31698,82337,11290,-4542,-1625,-3,-27,64,-38,323,479,-133,1,0,54,54,960,1,53298,1
1,30934,30670,31684,82338,0,-4535,-1622,3,-32,63,-27,322,488,-134,1,0,54,55,0,1,53298,1
2,30891,31634,31660,82339,10585,-4553,-1640,-14,-28,54,-13,320,486,-130,1,0,54,55,40,1,53298,1
2,30803,30938,31634,82340,10596,-4545,-1630,-19,-18,40,-13,327,489,-135,1,0,54,55,80,1,53298,1
2,30781,30664,31619,82341,10607,-4551,-1643,-14,-19,30,9,317,497,-135,1,0,54,55,120,1,53298,1
2,30753,31312,31601,82342,10618,-4545,-1631,-18,-15,18,13,320,490,-134,1,0,54,55,160,1,53298,1
2,30666,31184,31597,82343,10628,-4546,-1639,-17,-7,0,19,323,485,-137,1,0,54,55,200,1,53298,1
2,30690,30961,31594,82344,10640,-4550,-1630,-24,-3,-9,21,325,485,-139,1,0,54,55,240,1,53298,1
2,30668,30962,31585,82345,10651,-4554,-1648,-25,-12,-17,22,327,487,-135,1,0,54,55,280,1,53298,1
2,30665,31039,31585,82346,10661,-4544,-1626,-6,-7,-21,18,332,494,-136,1,0,54,55,320,1,53298,1
2,30706,30998,31577,82347,10672,-4548,-1642,-4,-4,-14,17,318,484,-128,1,0,54,55,360,1,53298,1
2,30720,30983,31580,82348,10682,-4536,-1630,5,-11,-9,24,332,492,-140,1,0,54,55,400,1,53298,1
2,30698,31150,31578,82349,10692,-4538,-1630,-4,-13,1,23,322,488,-132,1,0,54,55,440,1,53298,1
2,30813,31131,31586,82350,10703,-4543,-1620,-9,1,13,25,324,490,-124,1,0,54,55,480,1,53298,1
2,30780,31225,31578,82351,10714,-4559,-1644,-27,-11,3,16,320,486,-134,1,0,54,55,520,1,53298,1
2,30779,31411,31575,82352,10725,-4546,-1638,-6,-15,-9,7,326,482,-134,1,0,54,55,560,1,53298,1
2,30666,31489,31573,82353,10736,-4546,-1630,-17,-7,-17,11,325,487,-139,1,0,54,55,600,1,53298,1
2,30644,31310,31574,82354,10747,-4553,-1641,-23,3,-12,22,318,486,-136,1,0,54,55,640,1,53298,1
2,30661,31202,31574,82355,10757,-4538,-1636,-10,-9,-10,26,323,491,-129,1,0,54,55,680,1,53298,1
2,30624,31557,31569,82356,10768,-4552,-1635,0,-11,-2,25,325,485,-131,1,0,54,55,720,1,53298,1
2,30625,32420,31562,82357,10778,-4548,-1620,-13,-2,-16,22,332,488,-130,1,0,54,55,760,1,53298,1
2,30664,32607,31560,82358,10789,-4556,-1634,-10,-7,-6,21,325,483,-133,1,0,54,55,800,1,53298,1
2,30575,32630,31557,82359,10800,-4543,-1624,2,-6,-19,17,323,487,-133,1,0,54,55,840,1,53298,1
2,30601,32709,31550,82360,10811,-4543,-1630,-15,-6,-7,23,321,489,-141,1,0,54,55,880,1,53298,1
2,30614,33082,31545,82361,10823,-4547,-1641,-22,-4,2,28,328,480,-134,1,0,54,55,920,1,53298,1
2,30591,33151,31539,82362,10833,-4545,-1637,-2,-7,-6,28,323,489,-139,1,0,54,55,960,1,53298,1
1,30531,33366,31535,82363,0,-4549,-1638,-21,-2,-14,16,322,482,-132,1,0,54,56,0,1,53298,1
2,30555,33507,31535,82364,10138,-4536,-1629,0,14,-11,29,330,490,-134,1,0,54,56,40,1,53298,1
2,30530,33393,31530,82365,10150,-4544,-1638,-1,0,-15,25,319,483,-125,1,0,54,56,80,1,53298,1
2,30542,33435,31534,82366,10161,-4543,-1624,-12,12,-29,24,322,496,-122,1,0,54,56,120,1,53298,1
2,30493,33448,31530,82367,10173,-4535,-1612,-23,23,10,20,324,486,-138,1,0,54,56,160,1,53298,1
2,30454,33405,31525,82368,10184,-4548,-1639,-14,9,46,12,324,486,-134,1,0,54,56,200,1,53298,1
2,30405,33325,31525,82369,10195,-4571,-1616,-1,69,85,22,321,489,-139,1,0,54,56,240,1,53298,1
2,30498,33459,31525,82370,10206,-4530,-1639,-11,164,84,20,327,495,-135,1,0,54,56,280,1,53298,1
2,30419,33496,31517,82371,10217,-4601,-1616,-7,50,-9,92,321,485,-137,1,0,54,56,320,1,53298,1
2,30453,33304,31513,82372,10230,-4643,-1613,-39,80,-166,218,311,491,-135,1,0,54,56,360,1,53298,1
2,30442,30704,31508,82373,10241,-4849,-1563,-40,85,-319,534,318,496,-120,1,0,54,56,400,1,53298,1
2,30253,30059,31483,82374,10254,-4671,-1766,261,-747,-1011,1336,316,490,-136,1,0,54,56,440,1,53298,1
2,30082,29930,31482,82375,10267,-4587,-1640,168,-1033,-1645,1537,318,488,-126,1,0,54,56,480,1,53298,1
2,30150,30675,31498,82376,10280,-4846,-907,-434,-944,-1143,2086,314,494,-132,1,0,54,56,520,1,53298,1
2,30190,30410,31519,82377,10293,-4674,-479,-1027,-2778,-99,3098,304,494,-138,1,0,54,56,560,1,53298,1
2,30233,30724,31525,82378,10307,-4564,237,-1064,-1104,2175,5206,295,497,-145,1,0,54,56,600,1,53298,1
2,30259,31498,31530,82379,10320,-4503,651,-870,-211,4501,8109,270,506,-158,1,0,54,56,640,1,53298,1
2,30224,31426,31525,82380,10333,-4450,470,-863,-2171,6033,10856,244,520,-156,1,0,54,56,680,1,53298,1
2,30207,31326,31517,82381,10346,-4500,113,-807,-2603,7030,12888,204,532,-160,1,0,54,56,720,1,53298,1
2,30185,31491,31511,82382,10360,-4557,113,-736,-860,7888,14396,156,536,-192,1,0,54,56,760,1,53298,1
2,30108,31393,31492,82383,10373,-4529,286,-807,1017,8445,15449,116,538,-210,1,0,54,56,800,1,53298,1
2,30071,31381,31484,82384,10386,-4554,432,-807,3011,9210,16141,71,521,-241,1,0,54,56,840,1,53298,1
2,30031,31215,31475,82385,10399,-4541,806,-837,3779,9787,16741,43,507,-247,1,0,54,56,880,1,53298,1
2,29970,31110,31452,82386,10411,-4810,817,-843,2564,9627,16921,10,488,-262,1,0,54,56,920,1,53298,1
2,29955,31014,31440,82387,10423,-4715,498,-759,-824,8364,15950,-23,449,-277,1,0,54,56,960,1,53298,1
1,29925,30801,31425,82388,0,-4590,83,-900,-4412,6546,13936,-37,429,-279,1,0,54,57,0,1,53298,1
2,29894,30706,31409,82389,9690,-4631,-197,-821,-5508,4999,10566,-47,427,-275,1,0,54,57,40,1,53298,1
2,29890,30689,31396,82390,9703,-4158,235,-911,-2825,2574,5734,-48,424,-278,1,0,54,57,80,1,53298,1
2,29821,30605,31388,82391,9715,-3572,1035,-1176,760,632,2203,-50,408,-282,1,0,54,57,120,1,53298,1
2,29786,30548,31387,82392,9726,-3272,1667,-1259,2344,-246,1111,-57,411,-279,1,0,54,57,160,1,53298,1
2,29753,30536,31379,82393,9737,-3413,1897,-1285,1107,-750,941,-54,408,-280,1,0,54,57,200,1,53298,1
2,29742,30529,31386,82394,9749,-3491,1993,-1252,-659,-1735,438,-60,410,-260,1,0,54,57,240,1,53298,1
2,29744,30420,31382,82395,9760,-3315,1962,-1552,-1885,-2677,-151,-57,399,-263,1,0,54,57,280,1,53298,1
2,29771,30425,31388,82396,9772,-3365,1703,-1637,-1128,-2678,-281,-52,404,-264,1,0,54,57,320,1,53298,1
2,29765,30546,31416,82397,9784,-3389,1473,-1688,283,-2398,-330,-48,406,-268,1,0,54,57,360,1,53298,1
2,29836,30585,31429,82398,9797,-3428,1568,-1703,1542,-1957,-357,-59,413,-255,1,0,54,57,400,1,53298,1
2,30317,30771,31560,82399,9810,-3381,1600,-1584,1657,-1950,-673,-49,399,-249,1,0,54,57,440,1,53298,1
2,31125,31652,31920,82400,9824,-3594,1991,-1692,-21,-2196,-1104,-49,409,-251,1,0,54,57,480,1,53298,1
2,31415,31891,32225,82401,9837,-3350,1871,-1799,-2337,-1994,-1052,-43,411,-241,1,0,54,57,520,1,53298,1
2,31704,32137,32266,82402,9852,-3468,1880,-1807,-2254,-1257,-869,-46,410,-242,1,0,54,57,560,1,53298,1
2,31175,33334,31974,82403,9866,-3365,2058,-1768,-676,-368,-849,-55,415,-247,1,0,54,57,600,1,53298,1
2,31631,34767,32201,82404,9881,-3364,2067,-1603,1078,856,-676,-45,417,-251,1,0,54,57,640,1,53298,1
2,31936,34722,32407,82405,9895,-3532,1698,-1629,2647,1630,-155,-43,419,-255,1,0,54,57,680,1,53298,1
2,31803,34213,32295,82406,9909,-3538,1697,-1603,4674,2158,-563,-52,426,-262,1,0,54,57,720,1,53298,1
2,31758,33655,32283,82407,9923,-3456,1846,-1497,5353,2234,-645,-50,422,-266,1,0,54,57,760,1,53298,1
2,31705,32450,32243,82408,9937,-3403,1742,-1461,3682,1945,-282,-56,426,-264,1,0,54,57,800,1,53298,1
2,31759,31998,32280,82409,9950,-3325,2135,-1643,1833,1669,280,-50,422,-278,1,0,54,57,840,1,53298,1
2,31711,31885,32252,82410,9964,-3362,2032,-1758,135,1568,1323,-58,420,-288,1,0,54,57,880,1,53298,1
2,31712,31917,32263,82411,9978,-3263,2342,-1966,-641,1640,2365,-55,409,-289,1,0,54,57,920,1,53298,1
2,31650,31842,32215,82412,9992,-3320,2124,-2089,-1140,2108,3524,-74,408,-282,1,0,54,57,960,1,53298,1
1,31641,31842,32199,82413,0,-3325,2166,-2010,-693,2629,4167,-67,397,-289,1,0,54,58,0,0,53298,1
2,31545,31766,32123,82414,9243,-3239,2028,-1890,-562,2850,4679,-72,392,-298,1,0,54,58,40,0,53298,1
2,31400,31658,32053,82415,9257,-3155,1978,-1782,-1042,2854,4792,-69,381,-299,1,0,54,58,80,0,53298,1
2,31448,31695,32091,82416,9271,-3052,1826,-1792,-2064,2808,4785,-59,363,-305,1,0,54,58,120,0,53298,1
2,31514,31792,32121,82417,9285,-2903,1758,-1623,-2885,2534,4263,-73,365,-311,1,0,54,58,160,0,53298,1
2,31326,31612,32031,82418,9300,-2761,1561,-1738,-3481,2116,3698,-72,360,-302,1,0,54,58,200,0,53298,1
2,31343,31952,31916,82419,9316,-2607,1713,-1790,-2212,1950,3026,-72,344,-302,1,0,54,58,240,0,53298,1
2,31501,31798,32659,82420,9331,-2607,1938,-1676,-1127,1839,2537,-73,353,-301,1,0,54,58,280,0,53298,1
2,32753,32985,32914,82421,9346,-2503,2319,-1707,-1266,1484,1848,-71,345,-301,1,0,54,58,320,0,53298,1
2,32907,35430,31947,82422,9362,-2478,2465,-1933,-2433,1417,1868,-74,344,-302,1,0,54,58,360,0,53298,1
2,31571,35866,32348,82423,9378,-2478,2551,-1933,-2762,1711,2089,-72,338,-300,1,0,54,58,400,0,53298,1
2,33070,36861,33178,82424,9395,-2537,2412,-1948,-2461,1948,2221,-75,333,-301,1,0,54,58,440,0,53298,1
2,32028,36026,33309,82425,9412,-2430,2447,-1994,-1567,2226,2285,-70,328,-292,1,0,54,58,480,0,53298,1
2,33182,36736,33342,82426,9428,-2412,2441,-1598,-328,2665,2417,-78,328,-300,1,0,54,58,520,0,53298,1
2,32101,36022,32505,82427,9443,-2338,2433,-1549,-564,2403,2176,-74,326,-304,1,0,54,58,560,0,53298,1
2,33256,36721,33484,82428,9459,-2201,2328,-1521,-1157,2051,1698,-74,336,-308,1,0,54,58,600,0,53298,1
2,33338,37074,33735,82429,9475,-2133,2172,-1456,-1215,1704,1334,-67,325,-315,1,0,54,58,640,0,53298,1
2,33386,35974,33659,82430,9490,-2122,2181,-1422,-1027,1253,864,-62,322,-308,1,0,54,58,680,0,53298,1
2,33335,37211,33769,82431,9506,-2125,2149,-1345,-709,804,266,-65,325,-311,1,0,54,58,720,0,53298,1
2,33331,37103,33767,82432,9521,-2072,2200,-1487,-658,198,-352,-64,324,-304,1,0,54,58,760,0,53298,1
2,33284,36648,33612,82433,9537,-2132,2437,-1526,163,-2,-569,-64,322,-298,1,0,54,58,800,0,53298,1
2,33135,32941,33485,82434,9553,-2189,2482,-1466,65,-257,-918,-70,324,-306,1,0,54,58,840,0,53298,1
2,32892,32722,33276,82435,9570,-2147,2673,-1793,-440,-584,-1087,-67,333,-295,1,0,54,58,880,0,53298,1
2,32802,33618,33132,82436,9586,-2333,2594,-1554,-153,-424,-866,-77,327,-299,1,0,54,58,920,0,53298,1
2,32774,33277,33104,82437,9601,-2209,2760,-1806,-82,-851,-1103,-84,332,-298,1,0,54,58,960,0,53298,1
1,33329,33402,33530,82438,0,-2352,2588,-1523,352,-581,-702,-75,333,-301,1,0,54,59,0,1,53298,1
2,33357,32598,33548,82439,8795,-2332,2465,-1512,-66,-867,-1134,-77,329,-307,1,0,54,59,40,1,53298,1
2,33308,32333,33502,82440,8811,-2303,2478,-1615,-297,-1009,-1150,-70,338,-306,1,0,54,59,80,1,53298,1
2,33266,32632,33446,82441,8826,-2354,2513,-1474,-157,-870,-1174,-72,340,-302,1,0,54,59,120,1,53298,1
2,33271,32408,33414,82442,8840,-2306,2547,-1734,-876,-1053,-1359,-67,345,-293,1,0,54,59,160,1,53298,1
2,33280,31537,33444,82443,8854,-2375,2525,-1633,-344,-837,-1165,-70,338,-302,1,0,54,59,200,1,53298,1
2,33227,31757,33394,82444,8869,-2409,2618,-1710,62,-841,-977,-72,340,-286,1,0,54,59,240,1,53298,1
2,33250,31427,33412,82445,8883,-2477,2524,-1580,75,-814,-998,-83,355,-295,1,0,54,59,280,1,53298,1
2,33241,31261,33425,82446,8897,-2567,2295,-1452,-310,-976,-1116,-76,344,-278,1,0,54,59,320,1,53298,1
2,33214,31405,33334,82447,8911,-2647,2177,-1350,-426,-1512,-1733,-73,359,-285,1,0,54,59,360,1,53298,1
2,33030,31436,33171,82448,8924,-3198,1406,-870,-414,-2562,-2981,-68,362,-286,1,0,54,59,400,1,53298,1
2,33093,31229,33330,82449,8938,-3377,1524,-1343,-859,-5069,-6671,-66,378,-264,1,0,54,59,440,1,53298,1
2,31221,30557,32258,82450,8950,-3317,2362,-2131,-41,-5032,-9217,-61,383,-271,1,0,54,59,480,1,53298,1
2,32705,31395,33221,82451,8962,-3971,3186,-1568,2107,-4115,-8855,-44,408,-252,1,0,54,59,520,1,53298,1
2,32754,31321,33323,82452,8973,-4298,1026,-856,1042,-5901,-8337,-34,424,-260,1,0,54,59,560,1,53298,1
2,32638,31246,33315,82453,8983,-4697,1411,-1818,-1890,-6060,-10078,-30,426,-240,1,0,54,59,600,1,53298,1
2,32583,31119,33265,82454,8994,-4714,528,-1407,2087,-6121,-12407,11,465,-243,1,0,54,59,640,1,53298,1
2,32402,31066,33087,82455,9005,-4576,480,-987,7646,-6300,-14247,36,474,-252,1,0,54,59,680,1,53298,1
2,32405,31069,33157,82456,9016,-4338,1035,-842,7724,-6010,-14953,66,500,-244,1,0,54,59,720,1,53298,1
2,32490,31106,33190,82457,9026,-4280,642,-654,4780,-6131,-15038,105,509,-233,1,0,54,59,760,1,53298,1
2,32572,31146,33251,82458,9037,-4040,460,-850,1622,-6507,-15042,142,502,-224,1,0,54,59,800,1,53298,1
2,32515,31114,33186,82459,9049,-4084,177,-579,1430,-6152,-14399,174,504,-204,1,0,54,59,840,1,53298,1
2,32502,31372,33180,82460,9061,-4064,325,-491,1770,-6588,-14015,206,514,-192,1,0,54,59,880,1,53298,1
2,32509,32294,33123,82461,9073,-3911,175,-415,944,-7270,-13353,233,503,-181,1,0,54,59,920,1,53298,1
2,32382,31903,33164,82462,9084,-4103,-129,-495,1528,-7286,-12184,260,498,-164,1,0,54,59,960,1,53298,1
1,32333,31049,33073,82463,0,-4324,-79,-501,2999,-6926,-11263,284,488,-144,1,0,55,0,0,1,53298,1
2,32629,31545,33270,82464,8348,-4624,-384,-92,4576,-6277,-9864,306,486,-138,1,0,55,0,40,1,53298,1
2,32702,31221,33336,82465,8359,-4876,-385,-401,3980,-5525,-7988,317,475,-125,1,0,55,0,80,1,53298,1
2,32503,31106,33237,82466,8370,-4798,-326,-518,2249,-4531,-5923,323,475,-119,1,0,55,0,120,1,53298,1
2,32454,31240,33228,82467,8382,-4867,-2301,1410,822,-3713,-3659,314,474,-118,1,0,55,0,160,1,53298,1
2,32442,31174,33202,82468,8393,-5214,-1584,-8,-1869,147,-519,323,479,-121,1,0,55,0,200,1,53298,1
2,32577,31206,33231,82469,8404,-5014,-2476,362,-3428,-786,58,327,475,-119,1,0,55,0,240,1,53298,1
2,32500,31242,33216,82470,8415,-4069,-1705,196,-3157,-979,-1148,325,469,-109,1,0,55,0,280,1,53298,1
2,32580,31204,33237,82471,8426,-3735,-1810,624,-1554,-699,-1155,332,466,-110,1,0,55,0,320,1,53298,1
2,32528,31829,33337,82472,8438,-4180,-1955,294,-770,-109,-1064,339,479,-117,1,0,55,0,360,1,53298,1
2,32564,31143,33361,82473,8450,-7370,-1011,-170,148,1100,-461,328,480,-116,1,0,55,0,400,1,53298,1
2,33094,31177,33349,82474,8461,-4565,-2134,228,-803,902,-1261,331,473,-123,1,0,55,0,440,1,53298,1
2,33206,31255,33385,82475,8473,-4004,-1772,500,-71,859,-1292,337,473,-123,1,0,55,0,480,1,53298,1
2,33132,31215,33273,82476,8484,-4389,-1837,218,-494,938,-468,338,474,-122,1,0,55,0,520,1,53298,1
2,32467,31056,32859,82477,8496,-4840,-1744,-13,-174,704,-38,334,476,-132,1,0,55,0,560,1,53298,1
2,32188,30955,32789,82478,8506,-4501,-1816,184,129,193,-88,332,474,-128,1,0,55,0,600,1,53298,1
2,32108,30937,32719,82479,8517,-4396,-1823,198,101,-154,109,331,471,-127,1,0,55,0,640,1,53298,1
2,32011,30957,32716,82480,8528,-4567,-1756,173,234,-173,284,340,472,-118,1,0,55,0,680,1,53298,1
2,32004,30955,32677,82481,8539,-4519,-1714,229,307,-96,134,337,479,-125,1,0,55,0,720,1,53298,1
2,31894,30964,32669,82482,8551,-4486,-1750,227,-14,35,-60,329,463,-117,1,0,55,0,760,1,53298,1
2,31904,30950,32667,82483,8562,-4512,-1769,183,-249,216,-150,333,477,-125,1,0,55,0,800,1,53298,1
2,31772,30947,32639,82484,8574,-4504,-1787,165,-163,277,-202,341,467,-117,1,0,55,0,840,1,53298,1
2,31878,30936,32625,82485,8587,-4512,-1796,185,-101,258,-168,332,474,-126,1,0,55,0,880,1,53298,1
2,31700,30924,32586,82486,8599,-4518,-1805,155,-123,162,-69,341,473,-129,1,0,55,0,920,1,53298,1
2,31730,30925,32599,82487,8611,-4513,-1806,156,-46,56,-1,338,472,-120,1,0,55,0,960,1,53298,1
1,31738,30933,32585,82488,0,-4514,-1786,173,28,-9,32,332,474,-112,1,0,55,1,0,0,53298,1
2,31726,30933,32584,82489,7901,-4502,-1773,180,13,-22,39,344,476,-114,1,0,55,1,40,0,53298,1
2,31817,30934,32583,82490,7913,-4503,-1798,171,-8,-16,-4,330,474,-130,1,0,55,1,80,0,53298,1
2,31755,30937,32568,82491,7925,-4505,-1779,173,-17,25,-27,338,470,-122,1,0,55,1,120,0,53298,1
2,31629,30923,32551,82492,7937,-4509,-1795,169,-24,27,-26,346,476,-130,1,0,55,1,160,0,53298,1
2,31662,30933,32567,82493,7949,-4514,-1802,166,-26,28,-16,336,470,-130,1,0,55,1,200,0,53298,1
2,31570,30906,32508,82494,7961,-4512,-1796,169,-6,-3,13,338,480,-132,1,0,55,1,240,0,53298,1
2,31421,30890,32471,82495,7972,-4504,-1783,161,-2,-36,41,327,471,-127,1,0,55,1,280,0,53298,1
2,31310,30887,32449,82496,7985,-4496,-1790,180,5,-54,71,342,476,-122,1,0,55,1,320,0,53298,1
2,31336,30873,32415,82497,7998,-4511,-1789,178,17,-30,54,334,480,-124,1,0,55,1,360,0,53298,1
2,31317,30868,32406,82498,8010,-4510,-1788,164,-12,8,35,329,475,-115,1,0,55,1,400,0,53298,1
2,31295,30866,32400,82499,8023,-4509,-1795,157,-21,21,20,341,477,-131,1,0,55,1,440,0,53298,1
2,31199,30860,32381,82500,8035,-4513,-1794,187,-4,9,24,336,474,-122,1,0,55,1,480,0,53298,1
2,31265,30863,32372,82501,8047,-4504,-1785,158,-6,-29,34,334,468,-120,1,0,55,1,520,0,53298,1
2,31208,30857,32367,82502,8059,-4505,-1787,158,3,-46,36,333,485,-125,1,0,55,1,560,0,53298,1
2,31129,30855,32338,82503,8071,-4506,-1785,182,5,-54,34,335,481,-127,1,0,55,1,600,0,53298,1
2,31210,30858,32352,82504,8084,-4489,-1777,172,-1,-33,39,335,473,-125,1,0,55,1,640,0,53298,1
2,31153,30852,32341,82505,8096,-4499,-1779,176,-12,-10,35,335,475,-131,1,0,55,1,680,0,53298,1
2,31160,30851,32328,82506,8107,-4512,-1794,154,-20,-5,22,339,477,-123,1,0,55,1,720,0,53298,1
2,31077,30843,32326,82507,8119,-4506,-1787,154,-14,-6,20,335,471,-123,1,0,55,1,760,0,53298,1
2,31018,30841,32311,82508,8130,-4509,-1793,158,-11,-12,25,330,478,-124,1,0,55,1,800,0,53298,1
2,30961,30847,32328,82509,8142,-4508,-1799,168,-21,-25,22,340,472,-120,1,0,55,1,840,0,53298,1
2,31000,30852,32337,82510,8154,-4492,-1789,165,-13,-26,25,336,476,-120,1,0,55,1,880,0,53298,1
2,31011,30857,32346,82511,8165,-4514,-1796,159,-27,-35,33,337,475,-115,1,0,55,1,920,0,53298,1
2,30918,30850,32336,82512,8176,-4507,-1779,159,-52,-29,31,337,469,-121,1,0,55,1,960,0,53298,1
1,30920,30847,32328,82513,7453,-4515,-1799,162,-71,-33,36,328,470,-120,1,0,55,2,0,0,53298,1
2,30907,30848,32326,82514,7464,-4511,-1777,175,-23,-40,41,330,476,-116,1,0,55,2,40,0,53298,1
2,30898,30793,32325,82515,7474,-4545,-1784,131,-27,-76,98,335,483,-131,1,0,55,2,80,0,53298,1
2,30865,30771,32281,82516,7485,-4660,-1772,55,-197,-220,453,335,473,-131,1,0,55,2,120,0,53298,1
2,30938,30790,32275,82517,7497,-4478,-1782,299,-740,-652,1389,337,477,-115,1,0,55,2,160,0,53298,1
2,31118,30644,32312,82518,7510,-4580,-1742,308,-552,-764,1358,333,479,-123,1,0,55,2,200,0,53298,1
2,31520,31946,32595,82519,7522,-4570,-1110,56,-1449,-1262,1791,324,476,-122,1,0,55,2,240,0,53298,1
2,31729,34875,32665,82520,7534,-4868,-13,-713,-3233,-815,3473,313,485,-121,1,0,55,2,280,0,53298,1
2,31917,30777,32706,82521,7548,-4960,-151,-987,-4029,1272,6327,299,487,-129,1,0,55,2,320,0,53298,1
2,32169,30890,33001,82522,7561,-5025,37,-670,-1969,3477,8988,282,506,-136,1,0,55,2,360,0,53298,1
2,32349,31291,33010,82523,7575,-4805,26,-551,-1584,4980,11125,246,518,-142,1,0,55,2,400,0,53298,1
2,32340,31157,33104,82524,7588,-4543,-44,-639,-1234,6210,12733,215,517,-145,1,0,55,2,440,0,53298,1
2,32087,31089,33010,82525,7601,-4347,203,-746,449,7601,14176,175,531,-163,1,0,55,2,480,0,53298,1
2,31805,31027,32741,82526,7601,-4260,623,-745,1782,9158,15497,146,530,-190,1,0,55,2,520,0,53298,1
2,31721,30914,32718,82527,7627,-4330,825,-658,1215,10215,16964,81,521,-191,1,0,55,2,560,0,53298,1
2,31854,32209,32765,82528,7627,-4485,1074,-651,-820,10301,18754,48,506,-218,1,0,55,2,600,0,53298,1
2,32273,32002,33105,82529,7640,-4724,1036,-891,-4666,8960,20224,-2,468,-236,1,0,55,2,640,0,53298,1
2,31838,34741,32798,82530,7653,-5099,412,-1575,-7338,7756,20935,-33,445,-257,1,0,55,2,680,0,53298,1
2,31287,30799,32450,82531,7666,-5604,-142,-1323,-4348,8460,18428,-45,419,-251,1,0,55,2,720,0,53298,1
2,31389,33375,32540,82532,7678,-5039,87,-551,-1263,7658,11987,-66,404,-262,1,0,55,2,760,0,53298,1
2,31908,34867,32821,82533,7690,-3979,649,-725,62,4522,5633,-66,398,-280,1,0,55,2,800,0,53298,1
2,32485,35323,33301,82534,7703,-3300,1104,-987,3389,3084,3345,-70,390,-284,1,0,55,2,840,0,53298,1
2,32371,34683,33197,82535,7714,-3425,1390,-692,6131,2475,3081,-62,382,-298,1,0,55,2,880,0,53298,1
2,31972,34766,32951,82536,7726,-3336,1872,-814,3490,796,2020,-65,377,-289,1,0,55,2,920,0,53298,1
2,31661,34149,32755,82537,7738,-3096,2179,-1376,-1940,-1143,373,-66,392,-278,1,0,55,2,960,0,53298,1
1,31626,34191,32678,82538,7006,-2996,1995,-1912,-4604,-1955,-296,-73,383,-269,1,0,55,3,0,0,53298,1
2,31483,33565,32600,82539,7018,-2822,2249,-2096,-2813,-1642,-466,-71,395,-257,1,0,55,3,40,0,53298,1
2,31471,34267,32642,82540,7032,-2959,2232,-1835,150,-513,188,-65,397,-263,1,0,55,3,80,0,53298,1
2,32593,35055,33409,82541,7045,-3108,2202,-1429,1442,-6,735,-72,388,-264,1,0,55,3,120,0,53298,1
2,32859,32071,33735,82542,7059,-3082,2439,-1336,244,-201,826,-67,389,-267,1,0,55,3,160,0,53298,1
2,32742,35360,33298,82543,7074,-3186,2348,-1329,-2155,-463,1046,-74,386,-262,1,0,55,3,200,0,53298,1
2,32921,34912,33638,82544,7089,-3167,2110,-1316,-3640,-982,680,-70,382,-246,1,0,55,3,240,0,53298,1
2,32854,32043,33627,82545,7103,-3011,2131,-1604,-2858,-1024,167,-77,377,-269,1,0,55,3,280,0,53298,1
2,31653,32501,32799,82546,7117,-2934,2203,-1563,79,-78,200,-70,386,-264,1,0,55,3,320,0,53298,1
2,32849,34468,33602,82547,7131,-3057,2188,-1326,2493,515,525,-67,381,-265,1,0,55,3,360,0,53298,1
2,32869,31604,33632,82548,7145,-2990,2187,-1372,2587,338,232,-73,387,-271,1,0,55,3,400,0,53298,1
2,32813,32631,33550,82549,7159,-2972,2201,-1319,2323,206,170,-74,384,-274,1,0,55,3,440,0,53298,1
2,32837,31400,33543,82550,7173,-2993,2140,-1371,1412,70,295,-74,388,-270,1,0,55,3,480,0,53298,1
2,32833,31451,33566,82551,7186,-3011,2082,-1394,345,-193,102,-65,381,-269,1,0,55,3,520,0,53298,1
2,32791,33210,33526,82552,7200,-2935,2151,-1490,-327,-405,-127,-71,381,-267,1,0,55,3,560,0,53298,1
2,32770,31818,33537,82553,7212,-2984,2178,-1501,-35,-274,79,-68,378,-272,1,0,55,3,600,0,53298,1
2,32751,34345,33501,82554,7225,-3011,2267,-1509,420,-154,255,-65,377,-275,1,0,55,3,640,0,53298,1
2,32735,32587,33468,82555,7238,-2991,2301,-1523,486,-164,303,-72,372,-268,1,0,55,3,680,0,53298,1
2,32592,34695,33122,82556,7251,-2968,2326,-1560,230,-134,557,-69,377,-259,1,0,55,3,720,0,53298,1
2,32555,33161,33088,82557,7263,-2984,2254,-1563,134,4,850,-65,367,-271,1,0,55,3,760,0,53298,1
2,32606,32215,33159,82558,7275,-2956,2243,-1608,84,76,978,-65,363,-271,1,0,55,3,800,0,53298,1
2,32652,31534,33451,82559,7289,-2933,2179,-1615,105,214,1100,-68,360,-272,1,0,55,3,840,0,53298,1
2,32718,31663,33452,82560,7302,-2916,2157,-1571,267,292,1091,-73,365,-271,1,0,55,3,880,0,53298,1
2,32663,32518,33404,82561,7315,-2870,2190,-1563,214,354,1038,-65,363,-281,1,0,55,3,920,0,53298,1
2,32627,34791,33432,82562,7315,-2872,2113,-1520,-122,399,1055,-68,362,-274,1,0,55,3,960,0,53298,1
1,32634,35381,33405,82563,6559,-2853,2130,-1534,-387,284,774,-67,369,-279,1,0,55,4,0,0,53298,1
2,32603,33891,33406,82564,6572,-2824,2078,-1556,-493,265,609,-70,368,-266,1,0,55,4,40,0,53298,1
2,32590,33051,33400,82565,6584,-2852,2050,-1488,-224,239,422,-72,370,-272,1,0,55,4,80,0,53298,1
2,32590,34392,33401,82566,6598,-2845,2096,-1492,-107,83,32,-68,362,-282,1,0,55,4,120,0,53298,1
2,32575,33875,33370,82567,6611,-2824,2158,-1505,-180,34,-162,-67,361,-275,1,0,55,4,160,0,53298,1
2,32559,33144,33388,82568,6625,-2847,2153,-1444,-110,20,-279,-74,364,-276,1,0,55,4,200,0,53298,1
2,32576,32393,33420,82569,6637,-2835,2207,-1513,-43,-142,-523,-68,362,-272,1,0,55,4,240,0,53298,1
2,32610,31426,33474,82570,6650,-2839,2304,-1530,-82,-149,-568,-67,359,-269,1,0,55,4,280,0,53298,1
2,32674,31306,33506,82571,6663,-2886,2290,-1537,-152,-27,-370,-70,364,-266,1,0,55,4,320,0,53298,1
2,32625,34033,33477,82572,6675,-2921,2269,-1499,-247,-54,-386,-65,363,-271,1,0,55,4,360,0,53298,1
2,32614,32591,33465,82573,6687,-2873,2328,-1586,-366,-104,-414,-67,365,-279,1,0,55,4,400,0,53298,1
2,32558,33188,33456,82574,6700,-2906,2305,-1552,-192,105,-134,-69,363,-275,1,0,55,4,440,0,53298,1
2,32635,31263,33491,82575,6714,-2919,2284,-1478,-122,148,-53,-61,367,-277,1,0,55,4,480,0,53298,1
2,32603,31267,33473,82576,6726,-2889,2269,-1441,-289,102,-63,-72,374,-266,1,0,55,4,520,0,53298,1
2,32564,31260,33441,82577,6739,-2891,2156,-1446,-301,72,-31,-66,372,-272,1,0,55,4,560,0,53298,1
2,32533,32069,33409,82578,6752,-2880,2217,-1408,87,18,-64,-61,369,-273,1,0,55,4,600,0,53298,1
2,32542,33717,33415,82579,6765,-2887,2302,-1435,32,-26,-20,-64,366,-274,1,0,55,4,640,0,53298,1
2,32505,36532,33453,82580,6778,-2916,2270,-1475,-217,-48,48,-65,363,-265,1,0,55,4,680,0,53298,1
2,32507,36738,33488,82581,6791,-2885,2281,-1543,-145,-47,64,-60,362,-268,1,0,55,4,720,0,53298,1
2,32566,36785,33512,82582,6805,-2898,2247,-1552,105,55,193,-67,367,-277,1,0,55,4,760,0,53298,1
2,32516,32962,33374,82583,6818,-2933,2251,-1536,198,101,147,-65,367,-269,1,0,55,4,800,0,53298,1
2,32506,31853,33335,82584,6832,-2912,2265,-1466,97,65,33,-64,360,-274,1,0,55,4,840,0,53298,1
2,32496,31901,33344,82585,6845,-3007,2361,-1413,161,-97,-115,-73,371,-271,1,0,55,4,880,0,53298,1
2,32525,31883,33451,82586,6858,-3204,2073,-1265,-28,-667,-588,-63,359,-269,1,0,55,4,920,0,53298,1
2,32495,31653,33368,82587,6858,-3786,1890,-1153,-359,-2154,-2453,-53,379,-261,1,0,55,4,960,0,53298,1
1,32477,31653,33393,82588,6113,-4218,1922,-1384,-1420,-4163,-5061,-41,383,-259,1,0,55,5,0,0,53298,1
2,32502,31399,33428,82589,6125,-4424,721,-1623,211,-5034,-6976,-35,399,-263,1,0,55,5,40,0,53298,1
2,32467,31347,33407,82590,6138,-4645,259,-1213,6083,-5268,-9524,-18,416,-268,1,0,55,5,80,0,53298,1
2,32481,31298,33409,82591,6151,-4972,545,-768,7095,-6310,-13218,7,447,-261,1,0,55,5,120,0,53298,1
2,31670,31044,32890,82592,6163,-4424,502,-760,3654,-7172,-15934,31,471,-247,1,0,55,5,160,0,53298,1
2,31259,30737,32639,82593,6176,-4272,513,-674,1702,-7424,-16938,75,477,-233,1,0,55,5,200,0,53298,1
2,31546,30966,33028,82594,6187,-3758,910,-715,854,-7722,-17030,110,498,-228,1,0,55,5,240,0,53298,1
2,31628,31030,32925,82595,6199,-3772,516,-996,727,-7179,-16157,154,506,-202,1,0,55,5,280,0,53298,1
2,31448,30857,32778,82596,6210,-3789,807,-944,1660,-6461,-15298,185,517,-199,1,0,55,5,320,0,53298,1
2,32239,31155,33215,82597,6222,-3995,803,-768,1852,-6007,-13928,218,504,-184,1,0,55,5,360,0,53298,1
2,31977,35303,33147,82598,6233,-4336,413,-740,960,-6115,-12057,233,503,-169,1,0,55,5,400,0,53298,1
2,31978,35583,33163,82599,6243,-4419,127,-563,1256,-5970,-10189,267,499,-157,1,0,55,5,440,0,53298,1
2,31557,35313,32874,82600,6254,-4743,-307,-657,996,-5545,-8334,266,492,-136,1,0,55,5,480,0,53298,1
2,31527,35120,32828,82601,6264,-4853,-431,-563,990,-4959,-6883,285,489,-139,1,0,55,5,520,0,53298,1
2,31495,34939,32778,82602,6275,-4903,-1086,-331,-275,-4368,-5694,295,491,-129,1,0,55,5,560,0,53298,1
2,31445,34613,32775,82603,6286,-4860,-1220,-352,-508,-3636,-5161,297,479,-133,1,0,55,5,600,0,53298,1
2,31375,34413,32638,82604,6297,-4555,-748,-159,241,-2908,-4600,308,472,-130,1,0,55,5,640,0,53298,1
2,32098,35173,33257,82605,6307,-4497,-921,-127,-419,-2202,-3295,318,482,-122,1,0,55,5,680,0,53298,1
2,32114,34668,33294,82606,6317,-4380,-898,115,120,-1619,-2093,317,473,-123,1,0,55,5,720,0,53298,1
2,32134,33057,33287,82607,6327,-5322,634,-184,-3113,-983,-1094,323,479,-109,1,0,55,5,760,0,53298,1
2,32136,35274,33312,82608,6337,-5147,-1579,252,-987,32,-121,323,477,-121,1,0,55,5,800,0,53298,1
2,31933,35170,33229,82609,6346,-4508,-1679,144,-1796,-143,-984,332,476,-124,1,0,55,5,840,0,53298,1
2,31919,31025,33026,82610,6356,-4229,-1786,318,-645,111,-1020,326,476,-124,1,0,55,5,880,0,53298,1
2,32271,30888,33023,82611,6366,-5038,-1476,68,-358,470,-677,330,468,-122,1,0,55,5,920,0,53298,1
2,32470,30819,32992,82612,6366,-5117,-1574,7,47,427,-395,324,476,-124,1,0,55,5,960,0,53298,1
1,32601,30976,32955,82613,5664,-4347,-1771,238,244,47,-591,328,476,-124,1,0,55,6,0,0,53298,1
2,32463,31873,32948,82614,5674,-4397,-1697,244,106,162,-299,329,469,-119,1,0,55,6,40,0,53298,1
2,32572,32265,32928,82615,5684,-4614,-1700,124,-7,313,-43,330,472,-118,1,0,55,6,80,0,53298,1
2,32691,33924,32960,82616,5695,-4559,-1665,182,100,285,-143,325,473,-127,1,0,55,6,120,0,53298,1
2,32777,35028,33049,82617,5706,-4487,-1720,187,-96,258,-167,331,477,-117,1,0,55,6,160,0,53298,1
2,32711,34791,33013,82618,5717,-4530,-1724,125,-138,273,-82,329,473,-121,1,0,55,6,200,0,53298,1
2,32726,35150,33047,82619,5728,-4548,-1709,149,-5,275,-110,330,476,-124,1,0,55,6,240,0,53298,1
2,32795,35417,33073,82620,5739,-4507,-1720,156,-47,299,-156,328,478,-130,1,0,55,6,280,0,53298,1
2,32722,35310,33056,82621,5750,-4527,-1726,141,-132,347,-159,320,482,-124,1,0,55,6,320,0,53298,1
2,32763,35355,33058,82622,5761,-4525,-1725,124,-149,370,-155,331,471,-131,1,0,55,6,360,0,53298,1
2,32799,35247,33077,82623,5772,-4527,-1728,108,-106,370,-161,333,479,-133,1,0,55,6,400,0,53298,1
2,32707,35334,33064,82624,5784,-4514,-1724,101,-109,338,-161,331,475,-137,1,0,55,6,440,0,53298,1
2,32754,35862,33069,82625,5795,-4509,-1752,97,-124,272,-149,322,478,-126,1,0,55,6,480,0,53298,1
2,32628,35575,33027,82626,5805,-4521,-1751,105,-99,191,-101,330,486,-136,1,0,55,6,520,0,53298,1
2,32694,35722,33053,82627,5817,-4525,-1760,86,-49,87,-22,336,470,-126,1,0,55,6,560,0,53298,1
2,32757,35732,33029,82628,5828,-4520,-1748,85,2,-4,24,329,481,-125,1,0,55,6,600,0,53298,1
2,32830,35817,33114,82629,5838,-4527,-1741,105,34,-49,41,336,476,-118,1,0,55,6,640,0,53298,1
2,32780,35830,33082,82630,5849,-4511,-1734,110,9,-59,42,332,476,-120,1,0,55,6,680,0,53298,1
2,32781,35887,33079,82631,5859,-4536,-1743,108,-10,-27,11,329,469,-125,1,0,55,6,720,0,53298,1
2,32711,35855,33090,82632,5870,-4521,-1737,97,-33,-14,-36,333,475,-133,1,0,55,6,760,0,53298,1
2,32395,35715,32946,82633,5882,-4522,-1743,101,-60,6,-68,333,475,-127,1,0,55,6,800,0,53298,1
2,32470,35742,32947,82634,5893,-4506,-1748,102,-66,40,-68,330,476,-126,1,0,55,6,840,0,53298,1
2,32529,35800,32981,82635,5904,-4517,-1761,95,-61,65,-39,330,480,-130,1,0,55,6,880,0,53298,1
2,32598,35790,32985,82636,5915,-4521,-1756,98,-43,73,-12,331,477,-129,1,0,55,6,920,0,53298,1
2,32592,35797,33022,82637,5915,-4537,-1760,84,-20,49,10,332,484,-136,1,0,55,6,960,0,53298,1
1,32721,35828,33020,82638,5218,-4516,-1750,83,-10,5,29,337,475,-139,1,0,55,7,0,0,53298,1
2,32717,35758,33022,82639,5230,-4526,-1760,91,5,-37,16,334,472,-134,1,0,55,7,40,0,53298,1
2,32704,35695,32979,82640,5241,-4513,-1751,88,6,-51,8,332,472,-122,1,0,55,7,80,0,53298,1
2,32650,35645,32975,82641,5252,-4514,-1757,90,-5,-46,8,336,474,-130,1,0,55,7,120,0,53298,1
2,32626,35633,32968,82642,5264,-4521,-1748,85,-16,-17,12,331,473,-137,1,0,55,7,160,0,53298,1
2,32579,35689,32963,82643,5275,-4523,-1754,88,-22,23,24,339,475,-131,1,0,55,7,200,0,53298,1
2,32739,35766,33020,82644,5287,-4517,-1745,91,-11,24,14,335,475,-129,1,0,55,7,240,0,53298,1
2,32690,35757,33008,82645,5298,-4516,-1747,88,-10,19,16,323,479,-131,1,0,55,7,280,0,53298,1
2,32647,35729,32985,82646,5309,-4530,-1767,91,-1,-8,17,336,472,-130,1,0,55,7,320,0,53298,1
2,32546,35631,32919,82647,5320,-4522,-1758,92,5,-47,19,325,475,-125,1,0,55,7,360,0,53298,1
2,32524,35634,32940,82648,5332,-4529,-1760,94,6,-46,25,326,478,-120,1,0,55,7,400,0,53298,1
2,32467,35575,32919,82649,5343,-4522,-1751,108,1,-28,31,330,474,-132,1,0,55,7,440,0,53298,1
2,32480,35586,32916,82650,5353,-4526,-1762,106,-15,-9,22,332,468,-134,1,0,55,7,480,0,53298,1
2,32568,35673,32912,82651,5364,-4525,-1760,103,-17,8,21,332,478,-132,1,0,55,7,520,0,53298,1
2,32508,35742,32951,82652,5376,-4510,-1752,101,-17,9,24,331,475,-133,1,0,55,7,560,0,53298,1
2,32285,35552,32895,82653,5387,-4525,-1752,94,-10,22,23,333,473,-127,1,0,55,7,600,0,53298,1
2,32231,35456,32846,82654,5397,-4519,-1757,94,-14,10,20,336,476,-124,1,0,55,7,640,0,53298,1
2,32292,35441,32845,82655,5408,-4527,-1761,87,-12,4,14,329,471,-121,1,0,55,7,680,0,53298,1
2,32389,35380,32862,82656,5419,-4516,-1755,90,0,-21,25,337,479,-123,1,0,55,7,720,0,53298,1
2,32507,35375,32901,82657,5430,-4515,-1764,98,3,-36,32,332,482,-126,1,0,55,7,760,0,53298,1
2,32196,35298,32830,82658,5441,-4518,-1752,95,-1,-48,26,326,478,-134,1,0,55,7,800,0,53298,1
2,32175,35378,32853,82659,5453,-4525,-1755,88,-3,-34,26,336,482,-122,1,0,55,7,840,0,53298,1
2,32192,35342,32858,82660,5464,-4527,-1749,103,3,-40,27,328,464,-132,1,0,55,7,880,0,53298,1
2,31955,35233,32839,82661,5474,-4517,-1759,96,-9,-31,45,334,484,-124,1,0,55,7,920,0,53298,1
2,31941,35218,32850,82662,5474,-4511,-1755,77,9,-32,73,324,476,-124,1,0,55,7,960,0,53298,1
1,31953,35148,32827,82663,4771,-4547,-1750,85,27,-79,44,329,483,-131,1,0,55,8,0,0,53298,1
2,32025,35242,32854,82664,4782,-4524,-1737,102,43,-137,-24,333,477,-133,1,0,55,8,40,0,53298,1
2,32172,35200,32865,82665,4793,-4504,-1755,109,-10,-111,-29,336,478,-136,1,0,55,8,80,0,53298,1
2,32060,35121,32849,82666,4804,-4505,-1759,119,-1,-22,38,331,471,-135,1,0,55,8,120,0,53298,1
2,32125,35215,32862,82667,4814,-4509,-1752,96,57,80,117,324,476,-120,1,0,55,8,160,0,53298,1
2,32110,35131,32841,82668,4824,-4545,-1730,113,75,173,131,337,465,-127,1,0,55,8,200,0,53298,1
2,31984,35103,32838,82669,4835,-4571,-1699,67,-33,136,101,330,482,-134,1,0,55,8,240,0,53298,1
2,31961,35175,32807,82670,4846,-4540,-1736,64,-12,-11,110,334,472,-130,1,0,55,8,280,0,53298,1
2,32028,34832,32850,82671,4857,-4516,-1779,90,55,-71,188,338,484,-128,1,0,55,8,320,0,53298,1
2,31901,32801,32808,82672,4869,-4862,-1686,55,198,-27,433,341,475,-131,1,0,55,8,360,0,53298,1
2,31688,31015,32836,82673,4880,-4671,-1625,137,-6,-456,680,332,480,-128,1,0,55,8,400,0,53298,1
2,31757,30815,32901,82674,4891,-4618,-1649,140,90,-642,847,325,475,-131,1,0,55,8,440,0,53298,1
2,31855,30823,32875,82675,4903,-4804,-1647,119,-445,-869,1448,322,480,-126,1,0,55,8,480,0,53298,1
2,31814,30815,32874,82676,4915,-4325,-677,-162,-558,-1257,2261,314,488,-128,1,0,55,8,520,0,53298,1
2,31660,30810,32820,82677,4927,-4646,-459,-649,-2458,-151,4354,299,487,-125,1,0,55,8,560,0,53298,1
2,31673,30907,32825,82678,4939,-4826,-310,-756,-2507,1550,6752,294,498,-140,1,0,55,8,600,0,53298,1
2,31745,30849,32868,82679,4951,-4917,-296,-526,-2045,3008,8370,274,504,-136,1,0,55,8,640,0,53298,1
2,31718,30867,32893,82680,4964,-4712,-304,-588,-2336,4221,9657,238,504,-148,1,0,55,8,680,0,53298,1
2,31730,30856,32869,82681,4977,-4463,-200,-729,-1504,5399,10702,219,519,-165,1,0,55,8,720,0,53298,1
2,31727,30840,32881,82682,4989,-4215,185,-652,809,6688,11692,188,526,-172,1,0,55,8,760,0,53298,1
2,31701,30817,32906,82683,5003,-4139,418,-536,1341,7659,12842,154,520,-190,1,0,55,8,800,0,53298,1
2,31621,30771,32869,82684,5016,-4457,421,-518,304,8156,13927,120,536,-212,1,0,55,8,840,0,53298,1
2,31565,30781,32868,82685,5028,-4647,232,-691,-677,8097,14441,92,518,-216,1,0,55,8,880,0,53298,1
2,31417,30755,32791,82686,5041,-4651,428,-826,101,8097,14399,48,498,-226,1,0,55,8,920,0,53298,1
2,31333,30751,32774,82687,5041,-4720,779,-660,148,7761,14118,20,480,-252,1,0,55,8,960,0,53298,1
1,31207,30845,32697,82688,4325,-4595,827,-827,-1796,6392,13451,2,460,-246,1,0,55,9,0,1,53298,1
2,31212,30887,32751,82689,4337,-4357,196,-1030,-3101,4945,12580,-27,433,-261,1,0,55,9,40,1,53298,1
2,31157,30937,32742,82690,4349,-4550,499,-1207,-2556,4985,11480,-36,426,-272,1,0,55,9,80,1,53298,1
2,31085,30879,32718,82691,4361,-4552,736,-1228,-1543,4389,8546,-41,419,-271,1,0,55,9,120,1,53298,1
2,31007,30904,32678,82692,4373,-3858,1194,-1339,-1417,2909,5057,-41,401,-269,1,0,55,9,160,1,53298,1
2,31042,30887,32645,82693,4384,-3356,1735,-1471,-881,2198,3306,-51,399,-269,1,0,55,9,200,1,53298,1
2,31041,30857,32600,82694,4395,-3231,1791,-1434,-346,2118,3326,-52,408,-262,1,0,55,9,240,1,53298,1
2,31087,30792,32602,82695,4407,-3202,1885,-1277,506,2000,3289,-65,399,-273,1,0,55,9,280,1,53298,1
2,31193,30845,32602,82696,4419,-3154,1895,-1215,195,1507,2792,-61,387,-275,1,0,55,9,320,1,53298,1
2,31209,30840,32590,82697,4431,-3034,1635,-1439,-203,941,2008,-60,390,-282,1,0,55,9,360,1,53298,1
2,31149,30817,32582,82698,4444,-3014,1788,-1449,2759,1051,1403,-59,393,-289,1,0,55,9,400,1,53298,1
2,31238,30827,32597,82699,4457,-3144,1905,-1438,4861,786,1300,-68,378,-298,1,0,55,9,440,1,53298,1
2,31275,30795,32590,82700,4469,-3077,2223,-1545,3386,250,1042,-62,380,-302,1,0,55,9,480,1,53298,1
2,31326,30801,32605,82701,4481,-3104,2124,-1635,-535,-313,784,-77,379,-285,1,0,55,9,520,1,53298,1
2,31355,30770,32595,82702,4494,-3071,2014,-1912,-2627,-834,426,-70,376,-280,1,0,55,9,560,1,53298,1
2,31164,30653,32521,82703,4508,-2999,2067,-1845,-1887,-808,254,-76,384,-290,1,0,55,9,600,1,53298,1
2,30817,30464,32265,82704,4521,-2932,2301,-1779,-1023,-361,561,-64,378,-290,1,0,55,9,640,1,53298,1
2,30758,30424,32256,82705,4534,-3102,2465,-1731,-857,137,1279,-73,379,-293,1,0,55,9,680,1,53298,1
2,31268,30784,32464,82706,4547,-2981,2610,-1735,-1259,236,1496,-72,376,-274,1,0,55,9,720,1,53298,1
2,32250,31265,33214,82707,4561,-2899,2461,-1691,-1763,337,1752,-84,378,-280,1,0,55,9,760,1,53298,1
2,32455,31613,33315,82708,4574,-2909,2165,-1662,-1656,502,1886,-75,361,-281,1,0,55,9,800,1,53298,1
2,32489,31585,33383,82709,4588,-2774,2249,-1700,-559,725,1717,-76,362,-276,1,0,55,9,840,1,53298,1
2,32470,31450,33355,82710,4602,-2771,2274,-1563,112,1102,2031,-74,352,-282,1,0,55,9,880,1,53298,1
2,32109,31210,33118,82711,4615,-2802,2263,-1526,-39,1178,2081,-78,360,-282,1,0,55,9,920,1,53298,1
2,31821,31093,32898,82712,4615,-2741,2188,-1546,-273,988,1771,-71,351,-273,1,0,55,9,960,1,53298,1
1,31677,31096,32825,82713,3878,-2727,2095,-1511,-279,807,1522,-64,348,-286,1,0,55,10,0,0,53298,1
2,31609,31005,32775,82714,3892,-2696,2008,-1428,-215,528,1104,-62,348,-296,1,0,55,10,40,0,53298,1
2,31529,31070,32711,82715,3905,-2665,2019,-1388,-372,148,477,-67,347,-291,1,0,55,10,80,0,53298,1
2,31093,30878,32472,82716,3918,-2615,2138,-1472,-747,-186,22,-74,350,-272,1,0,55,10,120,0,53298,1
2,30933,30868,32365,82717,3931,-2658,2137,-1496,-620,-303,-190,-69,341,-277,1,0,55,10,160,0,53298,1
2,30781,30799,32272,82718,3943,-2637,2247,-1562,-131,-476,-519,-63,343,-269,1,0,55,10,200,0,53298,1
2,30706,31052,32234,82719,3957,-2645,2419,-1669,262,-504,-588,-63,341,-275,1,0,55,10,240,0,53298,1
2,30580,31348,32162,82720,3969,-2702,2446,-1655,156,-308,-359,-78,356,-270,1,0,55,10,280,0,53298,1
2,30473,31416,32146,82721,3982,-2719,2420,-1692,-101,-252,-303,-67,353,-277,1,0,55,10,320,0,53298,1
2,30411,32053,32111,82722,3995,-2698,2466,-1733,-231,-121,-164,-55,351,-287,1,0,55,10,360,0,53298,1
2,30377,31895,32102,82723,4009,-2718,2433,-1655,-166,170,86,-69,349,-271,1,0,55,10,400,0,53298,1
2,30320,32009,32070,82724,4022,-2708,2435,-1573,-218,241,138,-70,352,-276,1,0,55,10,440,0,53298,1
2,30257,32137,32049,82725,4036,-2676,2403,-1555,-273,218,176,-67,347,-281,1,0,55,10,480,0,53298,1
2,30230,32748,32027,82726,4048,-2657,2336,-1528,-265,275,342,-78,352,-274,1,0,55,10,520,0,53298,1
2,30208,32335,32038,82727,4061,-2711,2248,-1439,-110,245,330,-66,346,-284,1,0,55,10,560,0,53298,1
2,30206,32585,32031,82728,4073,-2670,2225,-1451,-93,4,29,-68,354,-274,1,0,55,10,600,0,53298,1
2,30155,32381,32010,82729,4086,-2658,2235,-1501,-109,-54,-70,-73,351,-283,1,0,55,10,640,0,53298,1
2,30160,32288,32000,82730,4098,-2690,2218,-1418,52,-78,-206,-73,353,-277,1,0,55,10,680,0,53298,1
2,30122,32190,31964,82731,4111,-2704,2315,-1477,-94,-359,-534,-64,358,-274,1,0,55,10,720,0,53298,1
2,30054,32623,31928,82732,4123,-2696,2369,-1554,-254,-385,-543,-71,347,-273,1,0,55,10,760,0,53298,1
2,30001,32577,31944,82733,4136,-2735,2365,-1552,-146,-285,-407,-72,354,-280,1,0,55,10,800,0,53298,1
2,30018,32716,31959,82734,4149,-2720,2462,-1605,-63,-364,-489,-73,353,-279,1,0,55,10,840,0,53298,1
2,30021,32813,31962,82735,4161,-2734,2452,-1609,-89,-214,-280,-72,346,-268,1,0,55,10,880,0,53298,1
2,30049,33032,31967,82736,4173,-2764,2367,-1557,-13,-86,-112,-66,366,-268,1,0,55,10,920,0,53298,1
2,30017,32897,31963,82737,4173,-2748,2362,-1547,-14,-115,-133,-70,352,-268,1,0,55,10,960,0,53298,1
1,29990,33129,31976,82738,3432,-2742,2354,-1531,-196,-54,-46,-69,363,-273,1,0,55,11,0,1,53298,1
2,29960,32973,31966,82739,3445,-2755,2290,-1463,-358,-25,0,-70,346,-276,1,0,55,11,40,1,53298,1
2,29941,33122,31977,82740,3458,-2739,2283,-1504,-361,-158,-161,-67,349,-281,1,0,55,11,80,1,53298,1
2,29947,33099,31982,82741,3471,-2742,2230,-1473,-129,-167,-218,-66,348,-278,1,0,55,11,120,1,53298,1
2,29858,33161,31768,82742,3484,-2815,2155,-1357,31,-247,-402,-62,358,-278,1,0,55,11,160,1,53298,1
2,29827,33026,31603,82743,3497,-2896,2096,-1247,-152,-713,-1055,-71,361,-273,1,0,55,11,200,1,53298,1
2,29813,33208,31570,82744,3510,-2967,1829,-1215,-547,-1351,-1932,-62,374,-256,1,0,55,11,240,1,53298,1
2,29790,33145,31579,82745,3523,-3050,1669,-1241,199,-1983,-3130,-69,371,-263,1,0,55,11,280,1,53298,1
2,29763,33063,31609,82746,3535,-3111,1826,-1355,1455,-2351,-4277,-61,383,-267,1,0,55,11,320,1,53298,1
2,29807,33416,32090,82747,3547,-3061,2279,-1545,2130,-2318,-4702,-58,390,-266,1,0,55,11,360,1,53298,1
2,29838,33628,32024,82748,3559,-3193,2458,-1624,1782,-1907,-4198,-57,391,-267,1,0,55,11,400,1,53298,1
2,29834,33475,32072,82749,3571,-3399,2352,-1614,735,-1778,-3614,-41,403,-271,1,0,55,11,440,1,53298,1
2,29845,33611,32085,82750,3583,-3790,2154,-1457,-152,-2048,-3710,-40,406,-264,1,0,55,11,480,1,53298,1
2,29819,33514,32089,82751,3596,-4035,1762,-1360,-1080,-2784,-4518,-37,421,-255,1,0,55,11,520,1,53298,1
2,29799,32969,32117,82752,3607,-4134,1550,-1368,-854,-3632,-5764,-24,420,-232,1,0,55,11,560,1,53298,1
2,29783,31013,32154,82753,3619,-3953,1468,-1421,424,-3771,-6770,-20,436,-244,1,0,55,11,600,1,53298,1
2,29774,31281,32190,82754,3630,-4586,532,-832,2682,-3263,-6717,1,447,-259,1,0,55,11,640,1,53298,1
2,29755,33306,32182,82755,3641,-4388,744,-1020,4318,-4233,-8614,24,466,-248,1,0,55,11,680,1,53298,1
2,29885,33547,32232,82756,3652,-4373,484,-694,4382,-4428,-10325,57,477,-247,1,0,55,11,720,1,53298,1
2,30047,32925,32326,82757,3663,-4518,338,-462,3684,-5470,-11610,77,489,-227,1,0,55,11,760,1,53298,1
2,30265,32929,32531,82758,3675,-4164,502,-663,1630,-6639,-12787,107,497,-217,1,0,55,11,800,1,53298,1
2,30772,33492,32831,82759,3686,-4150,86,-586,567,-6705,-12998,143,505,-203,1,0,55,11,840,1,53298,1
2,30926,32810,33017,82760,3697,-4019,132,-759,317,-6827,-13094,164,504,-190,1,0,55,11,880,1,53298,1
2,31616,35446,33589,82761,3708,-4016,8,-687,1522,-6368,-12918,194,504,-178,1,0,55,11,920,1,53298,1
2,31032,34918,32876,82762,3708,-4279,-208,-1128,3719,-5698,-12324,220,508,-156,1,0,55,11,960,1,53298,1
1,32280,34994,33895,82763,2985,-4050,-131,-1004,6234,-4444,-10573,248,510,-162,1,0,55,12,0,0,53298,1
2,32382,35708,33969,82764,2995,-4687,58,-335,7042,-3672,-8719,261,499,-157,1,0,55,12,40,0,53298,1
2,32415,36693,34005,82765,3006,-4760,356,-639,3497,-3355,-6430,280,502,-138,1,0,55,12,80,0,53298,1
2,32234,36755,33886,82766,3017,-4765,-23,-633,588,-3206,-3947,288,502,-136,1,0,55,12,120,0,53298,1
2,32195,36725,33864,82767,3029,-4784,-137,-597,-373,-2352,-1693,285,499,-127,1,0,55,12,160,0,53298,1
2,32167,36647,33803,82768,3040,-4606,-373,-356,-1539,-1927,-1760,291,497,-121,1,0,55,12,200,0,53298,1
2,32006,32676,33675,82769,3051,-4385,-970,-243,-3195,-1737,74,292,500,-134,1,0,55,12,240,0,53298,1
2,32050,32250,33685,82770,3061,-5242,-2844,397,-3791,-910,340,297,495,-125,1,0,55,12,280,0,53298,1
2,31984,31180,33694,82771,3072,-4497,-1199,-462,-3975,-1234,-848,299,499,-119,1,0,55,12,320,0,53298,1
2,31915,31593,33602,82772,3082,-5151,-1035,-327,-2651,-308,-925,289,497,-119,1,0,55,12,360,0,53298,1
2,31917,31699,33560,82773,3093,-4977,-1488,8,-1244,368,-648,303,505,-129,1,0,55,12,400,0,53298,1
2,31797,31575,33466,82774,3103,-4401,-1485,42,107,739,-877,305,493,-137,1,0,55,12,440,0,53298,1
2,31864,33373,33493,82775,3114,-4473,-1479,-48,127,955,-603,297,491,-129,1,0,55,12,480,0,53298,1
2,31924,32562,33457,82776,3123,-4710,-1512,-155,-111,795,-311,293,493,-143,1,0,55,12,520,0,53298,1
2,31966,32118,33454,82777,3134,-4606,-1497,-125,127,398,-465,301,499,-123,1,0,55,12,560,0,53298,1
2,31892,31797,33481,82778,3145,-4533,-1498,-82,211,29,-40,298,492,-128,1,0,55,12,600,0,53298,1
2,31868,31541,33519,82779,3156,-4590,-1507,-64,175,-106,-218,297,497,-135,1,0,55,12,640,0,53298,1
2,31754,31294,33482,82780,3166,-4593,-1483,-49,166,-162,52,298,506,-128,1,0,55,12,680,0,53298,1
2,31713,32300,33438,82781,3178,-4572,-1497,-52,126,-125,2,303,493,-125,1,0,55,12,720,0,53298,1
2,31675,32180,33465,82782,3190,-4573,-1472,-37,86,0,163,300,498,-124,1,0,55,12,760,0,53298,1
2,31733,32660,33470,82783,3201,-4567,-1474,-55,-14,144,-163,301,497,-131,1,0,55,12,800,0,53298,1
2,31658,32145,33431,82784,3212,-4567,-1501,-60,-106,241,-148,296,502,-130,1,0,55,12,840,0,53298,1
2,31675,31324,33444,82785,3224,-4578,-1516,-86,-102,245,-81,308,498,-132,1,0,55,12,880,0,53298,1
2,31623,31047,33425,82786,3235,-4578,-1520,-114,-44,161,-8,295,501,-133,1,0,55,12,920,0,53298,1
2,31640,30997,33434,82787,3235,-4571,-1508,-82,17,44,-226,308,494,-140,1,0,55,12,960,0,53298,1
1,31726,31008,33478,82788,2538,-4569,-1499,-71,26,-52,28,296,496,-138,1,0,55,13,0,1,53298,1
2,31694,31011,33463,82789,2550,-4574,-1504,-81,16,-57,1,302,492,-130,1,0,55,13,40,1,53298,1
2,31587,31025,33478,82790,2561,-4577,-1502,-79,23,-50,-28,307,491,-129,1,0,55,13,80,1,53298,1
2,31637,31009,33462,82791,2572,-4583,-1507,-79,8,-20,-46,310,498,-136,1,0,55,13,120,1,53298,1
2,31616,31003,33460,82792,2584,-4566,-1499,-62,-2,17,-59,308,494,-134,1,0,55,13,160,1,53298,1
2,31592,30994,33445,82793,2595,-4566,-1505,-64,-20,43,-36,303,497,-139,1,0,55,13,200,1,53298,1
2,31655,30995,33450,82794,2607,-4570,-1512,-86,-18,69,-15,305,499,-131,1,0,55,13,240,1,53298,1
2,31625,31002,33461,82795,2618,-4574,-1511,-89,-15,74,10,299,491,-133,1,0,55,13,280,1,53298,1
2,31638,30999,33469,82796,2629,-4570,-1512,-67,-8,77,-9,302,498,-128,1,0,55,13,320,1,53298,1
2,31598,30999,33474,82797,2640,-4568,-1510,-88,-1,88,-21,307,495,-133,1,0,55,13,360,1,53298,1
2,31581,31002,33465,82798,2651,-4562,-1501,-84,-21,75,-32,300,492,-126,1,0,55,13,400,1,53298,1
2,31595,30990,33460,82799,2661,-4566,-1519,-83,-29,62,-31,310,490,-138,1,0,55,13,440,1,53298,1
2,31573,31009,33438,82800,2672,-4567,-1520,-91,-17,28,-15,308,492,-140,1,0,55,13,480,1,53298,1
2,31592,30994,33443,82801,2683,-4572,-1520,-87,-16,3,13,306,502,-136,1,0,55,13,520,1,53298,1
2,31623,31070,33443,82802,2693,-4568,-1509,-85,-1,237,24,304,506,-142,1,0,55,13,560,1,53298,1
2,31632,31055,33473,82803,2704,-4581,-1526,-75,10,-20,27,310,496,-140,1,0,55,13,600,1,53298,1
2,31645,31063,33501,82804,2714,-4572,-1509,-97,-7,-20,29,309,495,-129,1,0,55,13,640,1,53298,1
2,31606,31024,33486,82805,2725,-4579,-1522,-80,1,-8,23,309,491,-133,1,0,55,13,680,1,53298,1
2,31609,31075,33474,82806,2736,-4571,-1510,-87,-1,-252,11,306,490,-132,1,0,55,13,720,1,53298,1
2,31567,31035,33444,82807,2747,-4558,-1497,-89,-8,21,-6,303,495,-139,1,0,55,13,760,1,53298,1
2,31619,31038,33512,82808,2758,-4577,-1522,-88,-22,31,-13,308,508,-142,1,0,55,13,800,1,53298,1
2,31669,31052,33552,82809,2769,-4577,-1525,-104,-32,26,8,305,497,-137,1,0,55,13,840,1,53298,1
2,31709,31056,33570,82810,2780,-4571,-1521,-106,-19,19,19,304,492,-126,1,0,55,13,880,1,53298,1
2,31713,31061,33561,82811,2791,-4575,-1512,-99,0,19,9,306,494,-128,1,0,55,13,920,1,53298,1
2,31682,31059,33560,82812,2791,-4570,-1532,-99,-4,233,12,304,498,-140,1,0,55,13,960,1,53298,1
1,31684,31070,33558,82813,2092,-4576,-1532,-99,9,-50,18,309,495,-131,1,0,55,14,0,1,53298,1
2,31680,31123,33570,82814,2102,-4567,-1506,-97,13,-43,35,304,498,-136,1,0,55,14,40,1,53298,1
2,31683,31142,33555,82815,2114,-4577,-1532,-83,9,-41,46,297,497,-133,1,0,55,14,80,1,53298,1
2,31681,31228,33561,82816,2125,-4568,-1517,-86,6,-18,44,296,502,-128,1,0,55,14,120,1,53298,1
2,31615,31274,33530,82817,2135,-4576,-1511,-90,250,6,29,308,496,-134,1,0,55,14,160,1,53298,1
2,31614,31210,33522,82818,2145,-4584,-1519,-88,-18,-3,24,308,498,-138,1,0,55,14,200,1,53298,1
2,31637,31123,33531,82819,2156,-4573,-1508,-102,-9,-9,6,301,507,-139,1,0,55,14,240,1,53298,1
2,31662,31091,33554,82820,2167,-4556,-1506,-94,-18,-19,9,308,496,-136,1,0,55,14,280,1,53298,1
2,31694,31102,33560,82821,2178,-4570,-1523,-100,-11,-12,9,310,490,-136,1,0,55,14,320,1,53298,1
2,31684,31074,33577,82822,2189,-4562,-1517,-97,-4,10,2,309,493,-131,1,0,55,14,360,1,53298,1
2,31666,31071,33582,82823,2199,-4577,-1508,-92,-14,20,11,303,489,-131,1,0,55,14,400,1,53298,1
2,31680,31082,33588,82824,2210,-4574,-1518,-91,-16,15,3,314,500,-136,1,0,55,14,440,1,53298,1
2,31670,31091,33591,82825,2222,-4572,-1521,-80,-11,11,8,302,500,-136,1,0,55,14,480,1,53298,1
2,31683,31092,33577,82826,2233,-4564,-1523,-98,-2,-3,16,309,505,-139,1,0,55,14,520,1,53298,1
2,31672,31100,33581,82827,2245,-4575,-1528,-103,-2,-12,16,302,492,-128,1,0,55,14,560,1,53298,1
2,31654,31129,33555,82828,2256,-4562,-1521,-105,-255,-11,23,299,485,-131,1,0,55,14,600,1,53298,1
2,31639,31167,33557,82829,2267,-4571,-1513,-106,246,4,20,302,500,-138,1,0,55,14,640,1,53298,1
2,31633,31140,33515,82830,2277,-4569,-1518,-87,-18,16,19,299,501,-139,1,0,55,14,680,1,53298,1
2,31613,31145,33504,82831,2289,-4561,-1516,-99,-14,14,25,309,503,-133,1,0,55,14,720,1,53298,1
2,31572,31050,33471,82832,2301,-4563,-1501,-95,-8,6,14,302,502,-134,1,0,55,14,760,1,53298,1
2,31540,31005,33478,82833,2312,-4582,-1527,-109,-11,-6,21,309,493,-139,1,0,55,14,800,1,53298,1
2,31532,31000,33483,82834,2323,-4575,-1524,-97,-11,-33,20,307,499,-129,1,0,55,14,840,1,53298,1
2,31473,30960,33415,82835,2334,-4566,-1522,-89,-4,-39,34,301,495,-137,1,0,55,14,880,1,53298,1
2,31452,30964,33421,82836,2345,-4573,-1517,-100,-1,-29,31,305,489,-135,1,0,55,14,920,1,53298,1
2,31439,30963,33405,82837,2345,-4548,-1502,-85,4,-38,35,306,498,-138,1,0,55,14,960,1,53298,1
1,31465,30967,33414,82838,1646,-4573,-1522,-99,5,-45,34,314,488,-136,1,0,55,15,0,1,53298,1
2,31440,30954,33416,82839,1657,-4578,-1519,-99,0,-28,34,304,494,-136,1,0,55,15,40,1,53298,1
2,31422,30951,33407,82840,1667,-4584,-1533,-82,0,-24,39,306,496,-132,1,0,55,15,80,1,53298,1
2,31430,30961,33393,82841,1679,-4582,-1517,-95,-7,-30,33,305,499,-133,1,0,55,15,120,1,53298,1
2,31409,30972,33396,82842,1690,-4570,-1521,-90,-10,-42,38,301,497,-135,1,0,55,15,160,1,53298,1
2,31371,30959,33381,82843,1701,-4573,-1515,-91,2,-44,40,301,503,-129,1,0,55,15,200,1,53298,1
2,31357,30954,33369,82844,1712,-4578,-1525,-92,-4,-57,39,300,498,-134,1,0,55,15,240,1,53298,1
2,31333,30957,33378,82845,1722,-4567,-1510,-95,1,-67,45,308,500,-126,1,0,55,15,280,1,53298,1
2,31332,30951,33355,82846,1733,-4570,-1514,-83,11,-57,45,309,493,-137,1,0,55,15,320,1,53298,1
2,31350,30949,33370,82847,1743,-4573,-1525,-97,16,-64,47,302,498,-128,1,0,55,15,360,1,53298,1
2,31340,30944,33370,82848,1753,-4571,-1518,-70,15,-64,55,306,502,-130,1,0,55,15,400,1,53298,1
2,31305,30932,33336,82849,1764,-4574,-1514,-91,25,-62,55,301,497,-133,1,0,55,15,440,1,53298,1
2,31278,30933,33301,82850,1775,-4576,-1516,-89,15,-74,51,306,500,-136,1,0,55,15,480,1,53298,1
2,31256,30928,33300,82851,1785,-4564,-1514,-81,7,-69,41,312,504,-130,1,0,55,15,520,1,53298,1
2,31248,30939,33295,82852,1797,-4575,-1510,-81,9,-61,35,293,495,-129,1,0,55,15,560,1,53298,1
2,31282,30949,33312,82853,1808,-4580,-1513,-69,2,-65,54,297,493,-131,1,0,55,15,600,1,53298,1
2,31232,30920,33276,82854,1819,-4566,-1516,-72,0,-51,52,293,499,-141,1,0,55,15,640,1,53298,1
2,31224,30914,33272,82855,1830,-4569,-1510,-83,-31,-50,38,303,485,-135,1,0,55,15,680,1,53298,1
2,31193,30913,33250,82856,1840,-4570,-1505,-78,-37,-81,43,307,491,-133,1,0,55,15,720,1,53298,1
2,31184,30911,33252,82857,1850,-4571,-1510,-78,-14,-91,73,309,495,-137,1,0,55,15,760,1,53298,1
2,31150,30885,33218,82858,1860,-4584,-1525,-79,8,-105,105,301,497,-137,1,0,55,15,800,1,53298,1
2,31155,30882,33209,82859,1870,-4573,-1510,-67,39,-126,152,307,499,-129,1,0,55,15,840,1,53298,1
2,31069,30863,33176,82860,1879,-4594,-1521,-77,99,-160,185,312,494,-132,1,0,55,15,880,1,53298,1
2,31050,30849,33160,82861,1890,-4580,-1511,-88,137,-224,235,303,491,-141,1,0,55,15,920,1,53298,1
2,31005,30831,33113,82862,1890,-4606,-1497,-64,171,-327,323,308,502,-130,1,0,55,15,960,1,53298,1
1,30978,30844,33128,82863,1200,-4544,-1505,-63,190,-378,349,304,500,-124,1,0,55,16,0,1,53298,1
2,31018,30845,33114,82864,1210,-4578,-1505,-35,176,-432,386,300,500,-126,1,0,55,16,40,1,53298,1
2,30917,30816,33068,82865,1220,-4589,-1468,-16,171,-432,364,290,494,-122,1,0,55,16,80,1,53298,1
2,30915,30804,33061,82866,1229,-4558,-1478,-37,106,-362,335,304,492,-132,1,0,55,16,120,1,53298,1
2,30887,30761,33008,82867,1239,-4613,-1442,-42,80,-309,362,304,500,-130,1,0,55,16,160,1,53298,1
2,30826,30749,32983,82868,1250,-4653,-1438,-64,12,-362,507,292,498,-130,1,0,55,16,200,1,53298,1
2,30771,31250,32936,82869,1260,-4677,-1399,33,-592,-708,863,292,504,-120,1,0,55,16,240,1,53298,1
2,30792,31059,32881,82870,1270,-4702,-1425,186,-641,-1074,1286,299,501,-123,1,0,55,16,280,1,53298,1
2,31009,30654,32881,82871,1281,-4670,-1422,105,-1047,-1489,1571,293,489,-133,1,0,55,16,320,1,53298,1
2,31085,30638,32846,82872,1293,-4625,-1227,-245,-1664,-1525,1747,291,495,-123,1,0,55,16,360,1,53298,1
2,31169,30620,32858,82873,1305,-4517,-727,-616,-1848,-370,2852,288,498,-126,1,0,55,16,400,1,53298,1
2,31077,30925,32854,82874,1316,-4714,-486,-606,-1345,1255,4593,281,497,-135,1,0,55,16,440,1,53298,1
2,31087,30614,32847,82875,1328,-4814,-242,-547,-851,2749,6219,274,502,-130,1,0,55,16,480,1,53298,1
2,31093,30607,32845,82876,1340,-4801,-74,-504,-1533,3898,7746,242,514,-124,1,0,55,16,520,1,53298,1
2,31128,30614,32847,82877,1353,-4679,60,-586,-2320,4692,9148,226,514,-148,1,0,55,16,560,1,53298,1
2,31001,30610,32842,82878,1365,-4466,20,-756,-1908,5627,10428,201,521,-153,1,0,55,16,600,1,53298,1
2,30841,30588,32812,82879,1378,-4331,37,-791,266,6812,11499,174,522,-172,1,0,55,16,640,1,53298,1
2,30805,30571,32782,82880,1391,-4245,227,-806,1407,7842,12412,146,514,-194,1,0,55,16,680,1,53298,1
2,30682,30558,32771,82881,1403,-4307,436,-959,1287,8611,13174,113,519,-205,1,0,55,16,720,1,53298,1
2,30661,30551,32765,82882,1415,-4391,623,-868,676,9122,13804,75,513,-213,1,0,55,16,760,1,53298,1
2,30585,30575,32738,82883,1427,-4349,770,-1112,-311,9269,14470,44,502,-230,1,0,55,16,800,1,53298,1
2,30470,30642,32685,82884,1438,-4528,1080,-775,-3581,7940,15104,13,481,-251,1,0,55,16,840,1,53298,1
2,30388,30686,32657,82885,1450,-4793,1130,-899,-5937,6380,14994,1,455,-251,1,0,55,16,880,1,53298,1
2,30247,30629,32645,82886,1463,-4558,893,-1089,-4549,6295,13851,-22,426,-266,1,0,55,16,920,1,53298,1
2,30046,30614,32617,82887,1463,-4723,716,-1034,-2522,5182,10752,-43,415,-273,1,0,55,16,960,1,53298,1
1,29993,30614,32585,82888,754,-4545,856,-945,-901,2880,7007,-45,405,-265,1,0,55,17,0,0,53298,1
2,29966,30560,32552,82889,766,-3777,1366,-1236,650,1308,4323,-55,389,-267,1,0,55,17,40,0,53298,1
2,30170,30673,32581,82890,778,-3427,1866,-1352,1151,801,3290,-59,377,-275,1,0,55,17,80,0,53298,1
2,30330,30611,32580,82891,790,-3167,2065,-1372,231,485,2968,-54,374,-280,1,0,55,17,120,0,53298,1
2,30412,30577,32539,82892,801,-3190,2315,-1599,-2237,-289,1971,-60,368,-278,1,0,55,17,160,0,53298,1
2,30534,30578,32550,82893,812,-3138,1907,-1537,-4000,-1050,1085,-61,367,-271,1,0,55,17,200,0,53298,1
2,30499,30578,32549,82894,822,-2699,2279,-1804,-2691,-175,1316,-62,372,-262,1,0,55,17,240,0,53298,1
2,30524,30574,32535,82895,833,-2854,2202,-1639,633,540,1794,-63,359,-267,1,0,55,17,280,0,53298,1
2,30486,30586,32537,82896,844,-2907,2292,-1491,2313,942,1592,-61,361,-277,1,0,55,17,320,0,53298,1
2,30474,30596,32535,82897,856,-2926,2482,-1478,1342,1062,1424,-75,365,-267,1,0,55,17,360,0,53298,1
2,30422,30591,32531,82898,868,-2821,2225,-1392,43,1120,1649,-66,352,-262,1,0,55,17,400,0,53298,1
2,30469,30608,32527,82899,879,-2828,2089,-1297,-165,691,1191,-65,351,-275,1,0,55,17,440,0,53298,1
2,30437,30597,32531,82900,891,-2840,2023,-1348,-29,153,492,-59,355,-273,1,0,55,17,480,0,53298,1
2,30391,30535,32527,82901,902,-2773,1943,-1347,50,-99,-9,-61,343,-273,1,0,55,17,520,0,53298,1
2,30356,30612,32537,82902,913,-2731,2013,-1404,409,-313,-478,-66,354,-280,1,0,55,17,560,0,53298,1
2,30300,30610,32533,82903,924,-2698,2245,-1491,646,-439,-780,-55,359,-275,1,0,55,17,600,0,53298,1
2,30262,30515,32536,82904,935,-2717,2342,-1558,327,-467,-817,-68,362,-272,1,0,55,17,640,0,53298,1
2,30280,30491,32546,82905,946,-2736,2400,-1555,-208,-456,-874,-61,357,-269,1,0,55,17,680,0,53298,1
2,30248,30474,32523,82906,957,-2806,2403,-1632,-480,-477,-860,-61,363,-279,1,0,55,17,720,0,53298,1
2,30292,30460,32520,82907,967,-2805,2328,-1578,-357,-261,-634,-65,355,-273,1,0,55,17,760,0,53298,1
2,30199,30498,32528,82908,978,-2868,2400,-1542,-110,-161,-555,-76,366,-262,1,0,55,17,800,0,53298,1
2,30185,30559,32510,82909,989,-2890,2464,-1527,-88,-8,-286,-65,363,-279,1,0,55,17,840,0,53298,1
2,30157,30506,32506,82910,1000,-2856,2436,-1530,-285,164,77,-63,357,-271,1,0,55,17,880,0,53298,1
2,30227,30454,32505,82911,1012,-2842,2500,-1598,-292,308,358,-70,360,-276,1,0,55,17,920,0,53298,1
2,30083,30460,32479,82912,1012,-2819,2463,-1635,-101,565,751,-70,362,-278,1,0,55,17,960,0,53298,1
1,30098,30437,32356,82913,308,-2772,2408,-1589,163,812,1067,-63,355,-279,1,0,55,18,0,0,53298,1
0,30217,30417,32316,82914,319,-2772,2408,-1589,163,812,1067,-75,359,-275,1,0,55,18,40,0,53298,1
2,30100,30388,32270,82915,331,-2781,2246,-1487,145,1071,1284,-70,360,-274,1,0,55,18,80,0,53298,1
2,30155,30399,32229,82916,342,-2739,2244,-1441,173,987,1093,-64,354,-272,1,0,55,18,120,0,53298,1
2,30008,30358,32201,82917,354,-2693,2239,-1423,205,851,937,-66,348,-282,1,0,55,18,160,0,53298,1
2,29945,30345,32115,82918,365,-2688,2195,-1375,278,686,769,-67,351,-285,1,0,55,18,200,0,53298,1
2,29905,30378,32061,82919,377,-2672,2296,-1458,50,389,453,-70,348,-286,1,0,55,18,240,0,53298,1
2,29792,30327,31993,82920,389,-2637,2323,-1509,-53,199,257,-76,354,-282,1,0,55,18,280,0,53298,1
2,30062,30845,32195,82921,402,-2652,2073,-1449,174,88,181,-64,356,-290,1,0,55,18,320,0,53298,1
2,32190,33042,32664,82922,414,-2736,2323,-1260,201,-142,-568,-67,349,-285,1,0,55,18,360,0,53298,1
2,31856,35085,32223,82923,427,-2660,2113,-1598,-1406,-963,-940,-66,352,-282,1,0,55,18,400,0,53298,1
2,32204,31092,32230,82924,440,-2719,2123,-1578,-576,-917,-963,-66,350,-276,1,0,55,18,440,0,53298,1
2,32868,33836,33321,82925,452,-2787,2300,-1525,1172,-836,-1110,-63,349,-281,1,0,55,18,480,0,53298,1
2,30830,31312,31479,82926,465,-2752,2461,-1416,1106,-932,-1288,-66,362,-276,1,0,55,18,520,0,53298,1
2,30916,33779,31541,82927,478,-2568,2331,-1395,-127,-894,-1026,-70,360,-286,1,0,55,18,560,0,53298,1
2,31233,31490,31745,82928,491,-3070,2358,-1532,-204,-1005,-1122,-63,359,-279,1,0,55,18,600,0,53298,1
2,32049,30883,32465,82929,503,-2807,2333,-1612,-254,-902,-957,-62,362,-284,1,0,55,18,640,0,53298,1
2,31796,30721,32346,82930,516,-2621,2456,-1590,568,-559,-737,-64,366,-280,1,0,55,18,680,0,53298,1
2,32077,32120,32543,82931,529,-2920,2413,-1634,296,-352,-481,-66,368,-282,1,0,55,18,720,0,53298,1
2,32690,36585,33205,82932,542,-2891,2413,-1599,220,-209,-283,-58,360,-266,1,0,55,18,760,0,53298,1
2,32529,31778,33061,82933,554,-2959,2253,-1518,85,-9,-212,-63,369,-281,1,0,55,18,800,0,53298,1
2,32605,31213,33078,82934,566,-2839,1778,-1401,-29,-242,-627,-64,372,-278,1,0,55,18,840,0,53298,1
2,32680,33192,32852,82935,578,-3085,1014,-1155,855,-1201,-2568,-68,378,-266,1,0,55,18,880,0,53298,1
2,32099,32262,32679,82936,590,-3762,1480,-1474,2428,-2611,-5619,-59,375,-271,1,0,55,18,920,0,53298,1
2,32869,32616,33044,82937,590,-3524,1982,-1923,3766,-2568,-6433,-52,396,-276,1,0,55,18,960,0,53298,1
1,32795,35536,32833,82938,0,-3846,1500,-1697,5700,-2107,-6288,-39,399,-293,1,0,55,19,0,0,53298,1
2,31608,34482,32097,82939,39874,-4450,932,-989,7001,-2688,-7199,-28,416,-294,1,0,55,19,40,0,53298,1
2,33217,36404,33356,82940,39885,-4420,1150,-1099,4595,-5054,-9488,1,437,-297,1,0,55,19,80,0,53298,1
2,32955,34697,33163,82941,39897,-4193,451,-1077,1268,-6023,-11086,-1,449,-281,1,0,55,19,120,0,53298,1
2,32833,34625,33042,82942,39908,-4092,271,-917,1669,-6834,-12287,27,459,-275,1,0,55,19,160,0,53298,1
2,33228,33898,33318,82943,39920,-4078,421,-651,2181,-7740,-13233,58,486,-278,1,0,55,19,200,0,53298,1
2,33607,33942,33576,82944,39932,-4285,202,-356,1617,-8628,-13779,79,505,-247,1,0,55,19,240,0,53298,1
2,33938,33864,34120,82945,39944,-4070,401,-655,-907,-9667,-14535,127,511,-225,1,0,55,19,280,0,53298,1
2,33792,33390,34023,82946,39956,-4111,214,-824,-2221,-9554,-14523,153,511,-203,1,0,55,19,320,0,53298,1
2,31928,31272,32646,82947,39968,-4319,245,-931,-1480,-8976,-13912,189,517,-185,1,0,55,19,360,0,53298,1
2,31623,30994,32365,82948,39980,-4649,199,-734,-312,-8048,-12807,223,519,-171,1,0,55,19,400,0,53298,1
2,31646,30713,32395,82949,39992,-4771,179,-679,-331,-7416,-11372,243,507,-143,1,0,55,19,440,0,53298,1
1,33528,31595,33275,82950,3,-4711,129,-858,-629,-6581,-9743,268,494,-146,1,0,55,19,480,0,53298,1
1,32470,30765,32899,82951,15,-4695,-209,-565,-535,-5264,-7504,291,497,-129,1,0,55,19,520,0,53298,1
1,32291,30748,32870,82952,26,-4918,-586,-520,-460,-4108,-5314,302,494,-126,1,0,55,19,560,0,53298,1
1,32659,30994,33229,82953,37,-4525,-287,-453,-359,-2900,-3763,304,482,-126,1,0,55,19,600,0,53298,1
1,33904,35220,34129,82954,47,-5941,-794,-909,-1668,-657,-747,306,496,-122,1,0,55,19,640,0,53298,1
1,33934,35973,34164,82955,58,-5197,-1861,467,1672,222,-204,304,482,-110,1,0,55,19,680,0,53298,1
1,33970,36771,34224,82956,69,-4186,-1172,347,294,-31,-760,303,481,-119,1,0,55,19,720,0,53298,1
1,33923,33849,34159,82957,80,-3906,-1620,504,147,142,-723,314,474,-120,1,0,55,19,760,0,53298,1
1,33993,35836,34213,82958,91,-5087,-1469,210,-830,475,-727,306,482,-114,1,0,55,19,800,0,53298,1
1,34014,31643,34211,82959,101,-4944,-1470,-68,-457,684,-634,304,480,-122,1,0,55,19,840,0,53298,1
1,33910,31879,34171,82960,112,-4372,-1606,250,144,548,-783,323,483,-121,1,0,55,19,880,0,53298,1
1,33935,32007,34166,82961,123,-4504,-1558,163,136,562,-431,314,484,-124,1,0,55,19,920,0,53298,1
1,33919,31756,34149,82962,134,-4666,-1590,71,109,378,-208,308,476,-120,1,0,55,19,960,0,53298,1
1,33867,32645,34106,82963,0,-4561,-1573,166,186,125,-185,310,480,-120,1,0,55,20,0,1,53298,1
2,33900,32242,34120,82964,39428,-4557,-1592,152,72,18,-147,312,488,-122,1,0,55,20,40,1,53298,1
2,33877,32406,34095,82965,39439,-4558,-1567,142,47,15,-108,314,478,-128,1,0,55,20,80,1,53298,1
2,33871,31409,34122,82966,39450,-4555,-1567,189,75,83,-104,313,483,-119,1,0,55,20,120,1,53298,1
2,33836,31408,34108,82967,39462,-4553,-1591,147,-13,162,-100,314,484,-124,1,0,55,20,160,1,53298,1
2,33841,31389,34112,82968,39473,-4566,-1581,148,-51,198,-74,303,473,-117,1,0,55,20,200,1,53298,1
2,33799,31340,34080,82969,39484,-4562,-1576,125,-29,166,-75,306,480,-122,1,0,55,20,240,1,53298,1
2,33818,31392,34072,82970,39496,-4574,-1585,132,4,123,-85,318,486,-124,1,0,55,20,280,1,53298,1
2,33815,31335,34077,82971,39506,-4551,-1589,125,-23,74,-84,311,479,-123,1,0,55,20,320,1,53298,1
2,33853,31420,34110,82972,39518,-4556,-1589,133,-11,27,-60,316,484,-126,1,0,55,20,360,1,53298,1
2,33818,31370,34089,82973,39528,-4557,-1584,142,1,7,-25,313,483,-121,1,0,55,20,400,1,53298,1
2,33803,31480,34085,82974,39539,-4555,-1591,134,10,-7,12,317,477,-127,1,0,55,20,440,1,53298,1
2,33806,31531,34115,82975,39549,-4559,-1589,126,5,-20,21,320,484,-126,1,0,55,20,480,1,53298,1
2,33720,31521,34036,82976,39559,-4565,-1587,136,3,-20,16,315,479,-129,1,0,55,20,520,1,53298,1
2,33584,31417,33910,82977,39570,-4544,-1575,143,-1,-3,11,308,484,-128,1,0,55,20,560,1,53298,1
2,33473,31224,33876,82978,39581,-4569,-1587,121,-3,7,-9,314,486,-126,1,0,55,20,600,1,53298,1
2,33415,31186,33841,82979,39593,-4564,-1597,132,-12,4,-5,317,477,-129,1,0,55,20,640,1,53298,1
2,33418,31220,33830,82980,39604,-4557,-1592,126,-7,7,0,304,480,-124,1,0,55,20,680,1,53298,1
2,33336,31125,33773,82981,39615,-4558,-1595,123,-3,3,2,316,484,-122,1,0,55,20,720,1,53298,1
2,33299,31334,33751,82982,39625,-4549,-1585,140,-13,2,10,321,485,-119,1,0,55,20,760,1,53298,1
2,33335,31388,33781,82983,39636,-4554,-1589,127,-9,-5,5,315,483,-119,1,0,55,20,800,1,53298,1
2,33272,31409,33805,82984,39647,-4548,-1591,126,-4,-6,13,323,481,-127,1,0,55,20,840,1,53298,1
2,33037,31310,33573,82985,39658,-4571,-1606,127,-3,-13,17,313,483,-123,1,0,55,20,880,1,53298,1
2,32975,31215,33557,82986,39668,-4555,-1596,112,-5,-30,12,316,478,-126,1,0,55,20,920,1,53298,1
2,32954,31309,33531,82987,39680,-4549,-1607,130,-3,-32,42,321,475,-125,1,0,55,20,960,1,53298,1
1,32929,31326,33516,82988,0,-4566,-1585,107,15,-41,53,321,483,-129,1,0,55,21,0,0,53298,1
2,32755,31290,33448,82989,38982,-4559,-1588,130,38,-88,25,315,473,-119,1,0,55,21,40,0,53298,1
2,32674,31268,33420,82990,38994,-4543,-1576,144,-2,-98,-12,310,482,-114,1,0,55,21,80,0,53298,1
2,32665,31263,33429,82991,39005,-4551,-1594,137,-22,-52,-17,311,483,-117,1,0,55,21,120,0,53298,1
2,32710,31284,33418,82992,39017,-4550,-1587,151,-1,3,19,310,482,-122,1,0,55,21,160,0,53298,1
2,32682,31253,33431,82993,39028,-4551,-1585,134,-15,81,40,323,479,-123,1,0,55,21,200,0,53298,1
2,32731,31244,33402,82994,39038,-4552,-1597,128,-36,111,24,317,487,-127,1,0,55,21,240,0,53298,1
2,32768,31240,33428,82995,39049,-4555,-1584,113,-29,84,4,316,488,-122,1,0,55,21,280,0,53298,1
2,32755,31244,33430,82996,39060,-4557,-1598,102,-18,30,-16,311,479,-121,1,0,55,21,320,0,53298,1
2,32649,31228,33428,82997,39070,-4553,-1607,117,-8,-55,-7,313,479,-125,1,0,55,21,360,0,53298,1
2,32610,31198,33426,82998,39081,-4555,-1600,124,8,-99,13,310,482,-116,1,0,55,21,400,0,53298,1
2,32600,31178,33410,82999,39092,-4556,-1590,137,21,-99,21,317,479,-133,1,0,55,21,440,0,53298,1
2,32609,31161,33421,83000,39103,-4555,-1607,139,-10,-39,12,306,478,-122,1,0,55,21,480,0,53298,1
2,32614,31190,33426,83001,39113,-4564,-1604,142,-15,22,10,314,486,-126,1,0,55,21,520,0,53298,1
2,32549,31205,33405,83002,39124,-4564,-1611,119,-19,43,18,317,477,-119,1,0,55,21,560,0,53298,1
2,32571,31167,33426,83003,39134,-4568,-1603,115,-5,15,24,320,474,-124,1,0,55,21,600,0,53298,1
2,32560,31150,33417,83004,39144,-4548,-1584,130,3,-43,38,319,481,-131,1,0,55,21,640,0,53298,1
2,32538,31162,33411,83005,39154,-4553,-1607,122,25,-101,72,314,480,-116,1,0,55,21,680,0,53298,1
2,32574,31110,33426,83006,39165,-4573,-1604,129,53,-134,83,320,484,-122,1,0,55,21,720,0,53298,1
2,32519,31035,33457,83007,39175,-4587,-1580,121,133,-133,135,320,488,-118,1,0,55,21,760,0,53298,1
2,32473,31145,33442,83008,39186,-4724,-1577,152,362,-119,312,313,479,-123,1,0,55,21,800,0,53298,1
2,32675,31284,33573,83009,39198,-5347,-1527,144,-255,-536,1153,312,478,-126,1,0,55,21,840,0,53298,1
2,32757,31561,33491,83010,39211,-4557,-2183,30,-2165,-1836,2497,312,478,-120,1,0,55,21,880,0,53298,1
2,32345,31390,32662,83011,39225,-5215,-1528,-819,-810,-943,2828,312,482,-126,1,0,55,21,920,0,53298,1
2,32722,31602,33439,83012,39240,-4962,-619,-560,1672,668,2287,301,487,-125,1,0,55,21,960,0,53298,1
1,32911,31796,33619,83013,0,-4306,657,-711,108,2660,3109,301,489,-141,1,0,55,22,0,0,53298,1
2,33178,31676,33826,83014,38540,-3779,1043,-905,-2775,5074,5725,292,494,-150,1,0,55,22,40,0,53298,1
2,33271,31764,33832,83015,38554,-3783,1202,-833,-3224,7299,9405,276,514,-160,1,0,55,22,80,0,53298,1
2,33152,31640,33778,83016,38569,-4030,862,-466,-3372,8640,12805,242,518,-178,1,0,55,22,120,0,53298,1
2,33060,31807,33728,83017,38583,-4417,384,-569,-3486,8797,15386,197,529,-187,1,0,55,22,160,0,53298,1
2,33044,31981,33688,83018,38597,-4617,386,-631,-2022,8512,17089,166,534,-202,1,0,55,22,200,0,53298,1
2,33011,32194,33706,83019,38611,-4865,528,-648,-956,8174,18271,109,531,-209,1,0,55,22,240,0,53298,1
2,32968,32493,33663,83020,38625,-5023,505,-891,-2316,7738,18609,61,511,-217,1,0,55,22,280,0,53298,1
2,32952,32364,33628,83021,38639,-4965,438,-1201,-2972,7354,18343,28,498,-238,1,0,55,22,320,0,53298,1
2,32790,33296,33508,83022,38653,-5089,557,-1224,-1500,7431,17500,-1,469,-239,1,0,55,22,360,0,53298,1
2,32681,34729,33451,83023,38667,-5082,497,-1281,-1153,7460,15798,-37,445,-255,1,0,55,22,400,0,53298,1
2,32495,35065,33340,83024,38680,-4725,765,-1152,137,7010,12123,-52,428,-272,1,0,55,22,440,0,53298,1
2,32536,34844,33328,83025,38693,-4225,1396,-1012,1682,5253,8633,-61,401,-263,1,0,55,22,480,0,53298,1
2,32465,35565,33319,83026,38706,-3542,1836,-1348,1956,3143,6417,-65,393,-285,1,0,55,22,520,0,53298,1
2,32475,35875,33581,83027,38720,-3196,2055,-1403,767,2293,5281,-60,376,-290,1,0,55,22,560,0,53298,1
2,32219,35710,33220,83028,38734,-2997,1980,-1635,-1003,1703,4640,-69,369,-295,1,0,55,22,600,0,53298,1
2,32007,35623,33161,83029,38747,-2757,2012,-1768,-647,1566,4101,-65,361,-287,1,0,55,22,640,0,53298,1
2,31820,34877,32981,83030,38761,-2585,2276,-1864,636,1789,3940,-64,356,-300,1,0,55,22,680,0,53298,1
2,31696,34560,32911,83031,38775,-2605,2305,-1747,1311,2195,4109,-72,350,-294,1,0,55,22,720,0,53298,1
2,31730,33609,32890,83032,38788,-2621,2260,-1688,948,2043,3761,-65,341,-301,1,0,55,22,760,0,53298,1
2,31696,32972,32905,83033,38801,-2494,2197,-1850,-133,1677,3122,-66,336,-300,1,0,55,22,800,0,53298,1
2,31705,34170,32918,83034,38814,-2453,1994,-1597,-1011,1599,2561,-69,327,-313,1,0,55,22,840,0,53298,1
2,31661,34183,32890,83035,38827,-2426,1946,-1497,-2364,834,1396,-63,327,-297,1,0,55,22,880,0,53298,1
2,31630,34045,32765,83036,38841,-2329,2024,-1637,-2862,206,544,-57,335,-303,1,0,55,22,920,0,53298,1
2,31490,33810,32655,83037,38855,-2344,2041,-1610,-1635,353,462,-63,325,-291,1,0,55,22,960,0,53298,1
1,31447,34034,32626,83038,0,-2315,2328,-1483,-785,14,-242,-70,328,-298,1,0,55,23,0,1,53298,1
2,31274,33863,32486,83039,38093,-2304,2479,-1654,-792,-369,-635,-70,320,-294,1,0,55,23,40,1,53298,1
2,31190,33210,32431,83040,38106,-2387,2341,-1532,-226,-242,-514,-70,326,-298,1,0,55,23,80,1,53298,1
2,31151,33250,32388,83041,38120,-2376,2331,-1683,509,-576,-819,-70,330,-296,1,0,55,23,120,1,53298,1
2,31156,33063,32414,83042,38133,-2385,2451,-1686,1321,-628,-905,-68,336,-284,1,0,55,23,160,1,53298,1
2,31108,32464,32376,83043,38146,-2420,2642,-1708,1178,-538,-779,-71,331,-297,1,0,55,23,200,1,53298,1
2,31064,32141,32360,83044,38159,-2419,2655,-1794,-2,-518,-662,-68,344,-294,1,0,55,23,240,1,53298,1
2,30985,31927,32362,83045,38171,-2422,2583,-1889,-686,-479,-558,-76,344,-290,1,0,55,23,280,1,53298,1
2,30986,31483,32353,83046,38183,-2423,2552,-1912,-248,-305,-350,-79,337,-289,1,0,55,23,320,1,53298,1
2,30983,31877,32327,83047,38196,-2450,2530,-1803,414,55,18,-72,334,-296,1,0,55,23,360,1,53298,1
2,31001,31860,32335,83048,38208,-2480,2448,-1688,392,136,35,-74,330,-298,1,0,55,23,400,1,53298,1
2,30994,31506,32335,83049,38222,-2416,2469,-1756,31,120,57,-71,331,-301,1,0,55,23,440,1,53298,1
2,31008,31558,32316,83050,38235,-2452,2386,-1655,-80,279,244,-70,338,-300,1,0,55,23,480,1,53298,1
2,30991,31541,32310,83051,38248,-2406,2398,-1696,-98,130,109,-60,332,-294,1,0,55,23,520,1,53298,1
2,30987,31523,32296,83052,38261,-2411,2463,-1705,3,152,135,-74,332,-296,1,0,55,23,560,1,53298,1
2,30878,31381,32262,83053,38274,-2460,2404,-1672,-89,207,221,-72,338,-298,1,0,55,23,600,1,53298,1
2,30829,31342,32234,83054,38286,-2418,2435,-1712,-92,75,108,-65,335,-293,1,0,55,23,640,1,53298,1
2,30758,31247,32190,83055,38300,-2461,2444,-1677,-111,87,128,-74,340,-288,1,0,55,23,680,1,53298,1
2,30740,31151,32196,83056,38312,-2432,2427,-1714,-316,9,50,-65,333,-311,1,0,55,23,720,1,53298,1
2,30724,31125,32178,83057,38325,-2406,2470,-1695,-289,20,64,-75,337,-299,1,0,55,23,760,1,53298,1
2,30717,31124,32173,83058,38337,-2418,2521,-1697,-215,102,148,-69,331,-299,1,0,55,23,800,1,53298,1
2,30717,31072,32164,83059,38350,-2419,2451,-1644,-366,53,86,-79,331,-293,1,0,55,23,840,1,53298,1
2,30660,31037,32156,83060,38362,-2396,2519,-1754,-412,-30,93,-69,335,-305,1,0,55,23,880,1,53298,1
2,30632,30841,32152,83061,38375,-2420,2450,-1685,-8,172,329,-68,334,-300,1,0,55,23,920,1,53298,1
2,30621,30760,32137,83062,38387,-2426,2394,-1637,86,49,157,-67,333,-295,1,0,55,23,960,1,53298,1
1,30600,30793,32114,83063,0,-2389,2400,-1694,-71,-63,3,-71,325,-295,1,0,55,24,0,0,53298,1
2,30570,30737,32100,83064,37647,-2407,2351,-1622,3,6,50,-63,331,-297,1,0,55,24,40,0,53298,1
2,30581,30737,32099,83065,37659,-2404,2439,-1624,67,-197,-186,-65,331,-299,1,0,55,24,80,0,53298,1
2,30569,30748,32074,83066,37671,-2374,2503,-1700,-172,-252,-204,-73,341,-289,1,0,55,24,120,0,53298,1
2,30552,30732,32065,83067,37684,-2420,2510,-1663,-206,-141,-87,-64,330,-290,1,0,55,24,160,0,53298,1
