sensorStatus,cap1,cap2,cap3,counter,microseconds_since_last_tick,accX,accY,accZ,gyroX,gyroY,gyroZ,magnetX,magnetY,magnetZ,day,hour,min,sec,msec,sync,battery_fuel,crc_good
2,30361,30681,31579,82739,38372,-4310,324,-701,2244,1817,-430,94,506,-160,1,0,55,11,40,0,53298,1
2,30354,30680,31554,82740,38389,-4287,181,-976,2486,1789,-104,108,510,-164,1,0,55,11,80,0,53298,1
2,30351,30680,31552,82741,38405,-4479,267,-870,2860,1683,90,98,506,-166,1,0,55,11,120,0,53298,1
2,30360,30678,31537,82742,38420,-4412,343,-839,2669,1522,82,96,510,-174,1,0,55,11,160,0,53298,1
2,30355,30673,31528,82743,38436,-4299,240,-1023,2181,1542,75,103,515,-173,1,0,55,11,200,0,53298,1
2,30358,30678,31516,82744,38451,-4350,202,-1138,1910,1567,29,101,513,-177,1,0,55,11,240,0,53298,1
2,30377,30679,31513,82745,38468,-4376,255,-1085,1943,1383,-75,98,508,-180,1,0,55,11,280,0,53298,1
2,30382,30672,31515,82746,38485,-4334,243,-1082,1806,1221,-217,89,509,-175,1,0,55,11,320,0,53298,1
2,30374,30673,31504,82747,38501,-4343,190,-1133,1794,1228,-300,97,497,-195,1,0,55,11,360,0,53298,1
2,30380,30678,31514,82748,38517,-4348,187,-1112,1836,1260,-308,102,508,-196,1,0,55,11,400,0,53298,1
2,30385,30673,31498,82749,38532,-4341,184,-1133,1636,1243,-144,94,516,-194,1,0,55,11,440,0,53298,1
2,30344,30678,31501,82750,38548,-4318,128,-1224,1512,1195,99,96,512,-192,1,0,55,11,480,0,53298,1
2,30310,30678,31488,82751,38563,-4297,163,-1326,1535,1088,206,102,502,-206,1,0,55,11,520,0,53298,1
1,30341,30673,31498,82753,38595,-4281,125,-1413,777,575,60,101,505,-199,1,0,55,11,600,0,53298,1
2,30305,30673,31495,82754,38611,-4284,102,-1375,672,407,-61,100,506,-206,1,0,55,11,640,0,53298,1
2,30273,30673,31500,82755,38627,-4326,152,-1283,1035,384,-98,102,500,-204,1,0,55,11,680,0,53298,1
2,30318,30674,31501,82756,38643,-4313,178,-1242,1029,422,-78,94,504,-212,1,0,55,11,720,0,53298,1
2,30265,30678,31500,82757,38659,-4283,143,-1356,458,427,-9,102,506,-212,1,0,55,11,760,0,53298,1
2,30282,30674,31509,82758,38675,-4275,104,-1437,-106,306,77,104,508,-214,1,0,55,11,800,0,53298,1
2,30277,30674,31513,82759,38692,-4265,73,-1451,-187,15,193,103,507,-193,1,0,55,11,840,0,53298,1
2,30245,30675,31511,82760,38708,-4272,128,-1414,-94,-234,231,105,501,-207,1,0,55,11,880,0,53298,1
2,30246,30673,31512,82761,38726,-4289,155,-1367,-150,-399,211,98,500,-206,1,0,55,11,920,0,53298,1
2,30213,30672,31513,82762,38742,-4285,177,-1306,-311,-422,120,96,506,-212,1,0,55,11,960,0,53298,1
1,30218,30674,31515,82763,0,-4316,166,-1248,-427,-348,43,86,504,-204,1,0,55,12,0,1,53298,1
2,30209,30673,31515,82764,37909,-4319,149,-1282,-426,-196,5,92,498,-208,1,0,55,12,40,1,53298,1
2,30200,30671,31514,82765,37926,-4299,161,-1286,-187,-80,-9,96,508,-206,1,0,55,12,80,1,53298,1
2,30175,30670,31516,82766,37944,-4303,164,-1286,-86,9,-33,104,504,-208,1,0,55,12,120,1,53298,1
2,30175,30671,31513,82767,37961,-4304,150,-1307,-84,49,-26,95,511,-207,1,0,55,12,160,1,53298,1
2,30178,30673,31519,82768,37978,-4286,154,-1311,-101,23,-18,99,505,-203,1,0,55,12,200,1,53298,1
2,30202,30672,31525,82769,37995,-4291,135,-1331,-150,-47,21,101,509,-207,1,0,55,12,240,1,53298,1
2,30185,30672,31517,82770,38012,-4308,149,-1326,-198,-149,61,98,508,-200,1,0,55,12,280,1,53298,1
2,30152,30670,31509,82771,38030,-4288,162,-1311,-234,-253,63,98,512,-200,1,0,55,12,320,1,53298,1
2,30151,30671,31516,82772,38047,-4296,169,-1291,-221,-280,56,98,508,-192,1,0,55,12,360,1,53298,1
2,30167,30670,31515,82773,38064,-4303,167,-1246,-249,-234,41,99,499,-193,1,0,55,12,400,1,53298,1
2,30202,30672,31515,82774,38081,-4308,161,-1259,-210,-156,22,99,501,-199,1,0,55,12,440,1,53298,1
2,30145,30671,31526,82775,38098,-4306,166,-1251,-96,-78,20,95,509,-203,1,0,55,12,480,1,53298,1
2,30143,30672,31518,82776,38115,-4305,173,-1264,-30,-11,-3,98,510,-200,1,0,55,12,520,1,53298,1
1,27724,30411,31599,82939,34669,-4442,70,-832,-37,-15,5,134,508,-174,1,0,55,19,40,0,53298,1
2,27710,30469,31609,82940,34685,-4440,88,-808,39,-29,9,125,497,-173,1,0,55,19,80,0,53298,1
2,27719,30470,31607,82941,34701,-4423,92,-781,183,-30,68,127,507,-165,1,0,55,19,120,0,53298,1
2,27723,30475,31612,82942,34716,-4447,96,-843,-28,5,78,114,502,-156,1,0,55,19,160,0,53298,1
2,27715,30505,31610,82943,34732,-4460,83,-852,-246,-80,33,117,497,-171,1,0,55,19,200,0,53298,1
2,27720,30515,31613,82944,34747,-4434,70,-822,-244,-269,97,124,508,-166,1,0,55,19,240,0,53298,1
2,27715,30512,31608,82945,34763,-4460,87,-840,-257,-437,290,127,505,-163,1,0,55,19,280,0,53298,1
2,27675,30515,31612,82946,34779,-4461,111,-833,-40,-631,469,115,501,-157,1,0,55,19,320,0,53298,1
2,27680,30540,31604,82947,34796,-4428,160,-727,156,-609,527,134,504,-156,1,0,55,19,360,0,53298,1
2,27662,30530,31608,82948,34812,-4435,188,-747,-143,-480,418,117,499,-161,1,0,55,19,400,0,53298,1
2,27680,30514,31601,82949,34828,-4459,133,-806,-667,-446,306,119,499,-167,1,0,55,19,440,0,53298,1
2,27669,30529,31605,82950,34843,-4444,127,-785,-614,-539,223,124,504,-156,1,0,55,19,480,0,53298,1
2,27652,30525,31603,82951,34858,-4438,143,-730,-374,-605,234,119,505,-151,1,0,55,19,520,0,53298,1
2,27672,30540,31609,82952,34873,-4465,170,-726,-400,-655,289,120,502,-162,1,0,55,19,560,0,53298,1
2,27648,30529,31597,82953,34888,-4488,188,-692,-674,-741,350,122,500,-152,1,0,55,19,600,0,53298,1
2,27633,30543,31595,82954,34903,-4491,218,-634,-623,-819,454,126,498,-148,1,0,55,19,640,0,53298,1
2,27647,30265,31549,82955,34918,-4548,173,-621,-661,-1002,669,124,494,-160,1,0,55,19,680,0,53298,1
2,27686,30072,31536,82956,34933,-4722,52,-431,-439,-1308,963,122,502,-152,1,0,55,19,720,0,53298,1
2,27861,30893,31516,82957,34949,-4630,262,-543,-1093,-1431,384,124,494,-148,1,0,55,19,760,0,53298,1
2,27918,30154,31498,82958,34965,-4470,390,-627,-1957,-1187,88,126,498,-152,1,0,55,19,800,0,53298,1
2,28022,30248,31615,82959,34982,-4403,519,-771,-2788,-756,282,121,493,-151,1,0,55,19,840,0,53298,1
2,28013,30130,31638,82960,34999,-4426,551,-927,-3073,-259,950,122,506,-142,1,0,55,19,880,0,53298,1
2,28020,30068,31679,82961,35018,-4237,723,-1025,-1673,167,1998,127,499,-147,1,0,55,19,920,0,53298,1
2,27935,30509,31640,82962,35035,-3813,1397,-1212,363,1163,3358,114,500,-160,1,0,55,19,960,0,53298,1
1,27924,30458,31715,82963,0,-3448,1808,-1361,1704,3026,5710,100,506,-158,1,0,55,20,0,1,53298,1
2,27898,34722,31775,82964,34207,-3497,1871,-1386,2118,5332,8538,76,496,-176,1,0,55,20,40,1,53298,1
2,27835,34739,31793,82965,34225,-3785,2086,-1243,2624,7342,11145,66,490,-186,1,0,55,20,80,1,53298,1
2,27756,34730,31781,82966,34243,-4196,2064,-1087,2312,8532,13255,14,476,-198,1,0,55,20,120,1,53298,1
2,27585,34770,31797,82967,34262,-4543,1979,-1119,911,8868,14923,-4,448,-224,1,0,55,20,160,1,53298,1
2,27618,30339,31761,82968,34280,-4699,1719,-898,-1644,8426,15771,-27,429,-247,1,0,55,20,200,1,53298,1
2,27984,32456,31722,82969,34300,-4407,1733,-1365,-4635,7358,15510,-42,400,-256,1,0,55,20,240,1,53298,1
2,27948,34856,32002,82970,34320,-4085,1577,-1614,-5246,6327,13485,-64,374,-252,1,0,55,20,280,1,53298,1
2,27833,34668,31995,82971,34340,-3616,1817,-1418,-2899,5653,11164,-72,360,-254,1,0,55,20,320,1,53298,1
2,27607,34543,32065,82972,34361,-2976,2245,-1596,-1689,5456,9501,-68,338,-250,1,0,55,20,360,1,53298,1
2,27573,34536,31846,82973,34380,-2710,2580,-1659,-987,5723,8977,-72,326,-262,1,0,55,20,400,1,53298,1
2,27498,34411,31795,82974,34399,-2600,2795,-1488,-159,5505,9232,-66,304,-260,1,0,55,20,440,1,53298,1
2,27516,34633,31868,82975,34418,-2426,2972,-1501,-631,4953,9296,-73,299,-265,1,0,55,20,480,1,53298,1
2,27467,34530,31814,82976,34437,-1836,3204,-1812,-2436,4622,8816,-72,280,-260,1,0,55,20,520,1,53298,1
2,27453,34529,31832,82977,34457,-1707,3304,-2093,-2165,4935,9968,-62,272,-252,1,0,55,20,560,1,53298,1
2,27562,34529,31832,82978,34477,-1740,2845,-2029,370,5382,10735,-67,251,-247,1,0,55,20,600,1,53298,1
2,27813,34539,31817,82979,34497,-1579,2519,-1677,1377,5467,9538,-61,239,-255,1,0,55,20,640,1,53298,1
2,28075,34634,31918,82980,34517,-1212,2576,-1690,1410,5102,8050,-52,230,-262,1,0,55,20,680,1,53298,1
2,28102,34698,32067,82981,34537,-1478,2914,-1741,1434,5369,6863,-48,236,-254,1,0,55,20,720,1,53298,1
2,28302,34982,32144,82982,34555,-897,2246,-1319,2237,4518,5780,-36,234,-268,1,0,55,20,760,1,53298,1
2,28622,35415,32823,82983,34573,-755,2678,-1124,4894,3017,4826,-44,232,-262,1,0,55,20,800,1,53298,1
2,28508,35693,32947,82984,34591,-461,2185,-1165,1674,2228,3052,-35,233,-267,1,0,55,20,840,1,53298,1
2,27965,32610,31749,82985,34609,-557,2327,-1383,-2328,1792,1645,-46,222,-274,1,0,55,20,880,1,53298,1
2,28554,31807,32773,82986,34628,-378,2224,-1572,-2969,663,281,-48,226,-278,1,0,55,20,920,1,53298,1
2,28605,34704,32523,82987,34646,-458,2311,-1649,-2570,-43,-278,-37,229,-265,1,0,55,20,960,1,53298,1
1,28899,35126,32178,82988,0,-406,2538,-1742,-1241,-1010,-1133,-43,233,-253,1,0,55,21,0,1,53298,1
2,29491,35005,32171,82989,33745,-424,2900,-1895,254,-1262,-1166,-45,229,-267,1,0,55,21,40,1,53298,1
2,30164,34970,32129,82990,33764,-446,2975,-1837,129,-942,-1295,-47,219,-265,1,0,55,21,80,1,53298,1
2,29443,34753,31919,82991,33783,-282,3069,-1897,-573,-797,-1716,-46,222,-264,1,0,55,21,120,1,53298,1
2,29137,34721,31820,82992,33802,-416,3262,-1890,-407,-332,-1024,-39,235,-263,1,0,55,21,160,1,53298,1
2,29331,34644,31737,82993,33821,-446,3284,-1904,-208,-317,-873,-49,233,-259,1,0,55,21,200,1,53298,1
2,29260,34560,31658,82994,33841,-315,3195,-1876,199,-196,-361,-53,231,-259,1,0,55,21,240,1,53298,1
2,29229,34571,31640,82995,33859,-466,3197,-1781,-290,21,50,-53,231,-257,1,0,55,21,280,1,53298,1
2,29225,34572,31630,82996,33878,-402,3134,-1861,-560,-9,81,-47,233,-255,1,0,55,21,320,1,53298,1
2,29099,34576,31620,82997,33897,-506,2948,-1668,-269,117,352,-47,231,-257,1,0,55,21,360,1,53298,1
2,29075,34520,31527,82998,33917,-462,2934,-1790,-306,20,257,-44,226,-260,1,0,55,21,400,1,53298,1
2,28978,34482,31481,82999,33937,-474,2907,-1687,-191,46,230,-51,223,-259,1,0,55,21,440,1,53298,1
2,28945,34490,31474,83000,33957,-475,2860,-1661,-176,-10,129,-49,231,-257,1,0,55,21,480,1,53298,1
2,28853,34512,31495,83001,33978,-510,2854,-1689,-303,-177,-81,-45,231,-261,1,0,55,21,520,1,53298,1
2,29070,34639,31630,83002,33998,-501,2911,-1726,385,-359,-134,-52,230,-258,1,0,55,21,560,1,53298,1
2,28889,34667,31683,83003,34018,-438,3000,-1692,572,-313,-182,-50,226,-258,1,0,55,21,600,1,53298,1
2,28673,34676,31679,83004,34038,-504,3003,-1725,25,-220,-289,-49,227,-261,1,0,55,21,640,1,53298,1
2,28532,34699,31698,83005,34059,-449,3120,-1789,284,-237,-269,-57,223,-265,1,0,55,21,680,1,53298,1
2,28283,34707,31718,83006,34080,-480,3166,-1729,401,-131,-85,-54,226,-254,1,0,55,21,720,1,53298,1
2,28149,34750,31761,83007,34100,-505,3099,-1824,3,-76,-5,-50,226,-266,1,0,55,21,760,1,53298,1
2,28019,34768,31775,83008,34121,-457,3011,-1773,-31,9,129,-54,232,-258,1,0,55,21,800,1,53298,1
2,27800,34776,31789,83009,34142,-543,2973,-1649,-247,-12,222,-53,227,-265,1,0,55,21,840,1,53298,1
2,27673,34825,31809,83010,34164,-514,2986,-1698,-466,-113,97,-48,230,-272,1,0,55,21,880,1,53298,1
2,27552,34890,31904,83011,34186,-481,2894,-1651,-341,-129,111,-50,230,-256,1,0,55,21,920,1,53298,1
2,28111,34904,31897,83012,34207,-530,2875,-1664,-371,-288,-61,-59,237,-271,1,0,55,21,960,1,53298,1
1,28206,34945,31975,83013,0,-517,2953,-1656,421,-499,-67,-50,228,-262,1,0,55,22,0,0,53298,1
2,28235,34951,31968,83014,33286,-558,3056,-1696,504,-461,-238,-48,236,-270,1,0,55,22,40,0,53298,1
2,28403,34923,31940,83015,33307,-492,3017,-1784,-78,-220,-254,-59,221,-265,1,0,55,22,80,0,53298,1
2,28046,34803,31770,83016,33328,-535,3065,-1760,-11,-217,-216,-54,238,-264,1,0,55,22,120,0,53298,1
2,28109,34877,31884,83017,33349,-530,3045,-1839,-139,-82,-298,-51,233,-269,1,0,55,22,160,0,53298,1
2,28266,34938,31958,83018,33370,-546,2995,-1748,-81,64,-83,-59,231,-259,1,0,55,22,200,0,53298,1
2,28104,34924,31951,83019,33391,-579,2994,-1696,-414,32,-273,-43,235,-269,1,0,55,22,240,0,53298,1
2,27877,34930,31945,83020,33412,-567,2967,-1801,-514,61,-311,-48,226,-256,1,0,55,22,280,0,53298,1
2,27850,34940,31962,83021,33432,-613,2852,-1791,-89,109,-143,-58,232,-258,1,0,55,22,320,0,53298,1
2,27776,34959,32003,83022,33451,-521,2840,-1833,-51,152,-513,-55,231,-261,1,0,55,22,360,0,53298,1
2,27727,34991,32036,83023,33471,-594,2794,-1716,-89,224,-725,-47,225,-265,1,0,55,22,400,0,53298,1
2,27716,34979,32044,83024,33491,-679,2725,-1577,-203,237,-1043,-56,242,-258,1,0,55,22,440,0,53298,1
2,27720,34974,32025,83025,33511,-758,2725,-1549,-525,22,-1654,-56,232,-258,1,0,55,22,480,0,53298,1
2,27705,34932,32009,83026,33529,-776,2856,-1671,-658,-265,-2186,-54,232,-258,1,0,55,22,520,0,53298,1
2,27512,34659,31668,83027,33548,-856,2953,-1668,-364,-153,-2495,-51,241,-269,1,0,55,22,560,0,53298,1
2,27446,34676,32017,83028,33567,-1325,2281,-743,-111,-1097,-3804,-58,240,-254,1,0,55,22,600,0,53298,1
2,27575,30689,31867,83029,33583,-967,2989,-1612,-838,-3062,-5575,-55,241,-251,1,0,55,22,640,0,53298,1
2,27500,34206,31764,83030,33598,-1099,2669,-1379,-225,-2532,-4932,-56,248,-266,1,0,55,22,680,0,53298,1
2,27540,30765,31790,83031,33613,-1747,1698,-685,-1110,-3701,-6444,-58,258,-254,1,0,55,22,720,0,53298,1
2,27675,30758,31834,83032,33628,-1925,2540,-1205,-5643,-5227,-9732,-68,266,-242,1,0,55,22,760,0,53298,1
2,27618,30759,31830,83033,33643,-2370,1675,-951,-4078,-5952,-10931,-65,277,-241,1,0,55,22,800,0,53298,1
2,27495,30747,31768,83034,33657,-2589,2267,-1305,-2162,-6265,-12687,-76,304,-236,1,0,55,22,840,0,53298,1
2,27457,30740,31709,83035,33672,-3062,2081,-995,440,-6329,-13366,-75,317,-221,1,0,55,22,880,0,53298,1
2,27569,30740,31725,83036,33688,-3717,2568,-1335,1454,-6945,-14822,-69,343,-221,1,0,55,22,920,0,53298,1
2,27603,30733,31722,83037,33704,-3146,3645,-1559,3736,-6702,-14967,-70,368,-224,1,0,55,22,960,0,53298,1
1,27523,30721,31711,83038,0,-3992,3000,-926,4917,-7246,-12964,-50,384,-212,1,0,55,23,0,1,53298,1
2,27566,30735,31736,83039,32819,-3863,3038,-1622,527,-6641,-12279,-34,402,-210,1,0,55,23,40,1,53298,1
2,27582,30742,31773,83040,32834,-4271,2233,-1371,3327,-5664,-11144,-22,434,-208,1,0,55,23,80,1,53298,1
2,27850,30746,32132,83041,32851,-4615,2630,-856,4135,-7274,-10306,-7,435,-195,1,0,55,23,120,1,53298,1
2,27813,30752,32059,83042,32866,-3929,2169,-2108,-4336,-2739,-10206,12,450,-186,1,0,55,23,160,1,53298,1
2,27750,30699,31927,83043,32882,-4327,1090,-847,6379,-4138,-8563,19,459,-179,1,0,55,23,200,1,53298,1
2,27795,30466,32010,83044,32900,-4123,1007,-434,4162,-5170,-8604,43,471,-179,1,0,55,23,240,1,53298,1
2,27833,30570,32000,83045,32917,-4009,773,-370,1334,-4686,-8920,68,478,-174,1,0,55,23,280,1,53298,1
2,27801,30607,32083,83046,32935,-4195,426,-620,-1624,-4326,-9393,78,492,-158,1,0,55,23,320,1,53298,1
2,27839,30605,32073,83047,32952,-4150,314,-459,-231,-4337,-9814,108,500,-142,1,0,55,23,360,1,53298,1
2,27893,30568,32057,83048,32969,-4211,350,-267,804,-3951,-9900,123,501,-137,1,0,55,23,400,1,53298,1
2,27924,30543,32043,83049,32986,-4540,435,-292,1148,-3961,-9657,152,506,-134,1,0,55,23,440,1,53298,1
2,28050,30585,32042,83050,33004,-4644,576,-439,1640,-4374,-9090,169,497,-127,1,0,55,23,480,1,53298,1
2,28275,30602,32032,83051,33022,-4237,1420,-1100,890,-3091,-6643,180,498,-126,1,0,55,23,520,1,53298,1
2,28142,30609,32049,83052,33040,-3726,1825,-1341,1470,-2048,-3289,188,490,-118,1,0,55,23,560,1,53298,1
2,28387,30437,32057,83053,33057,-4030,23,-1031,-9,787,27,177,503,-113,1,0,55,23,600,1,53298,1
2,27896,30313,31974,83054,33074,-4609,-905,-191,3107,2004,1732,182,496,-122,1,0,55,23,640,1,53298,1
2,27888,30635,32071,83055,33092,-5765,-1192,380,3353,1471,504,170,498,-110,1,0,55,23,680,1,53298,1
2,27881,30264,32113,83056,33109,-5060,667,117,2156,178,171,173,503,-119,1,0,55,23,720,1,53298,1
2,27965,30375,32093,83057,33126,-4375,-315,-255,1261,-156,174,163,505,-115,1,0,55,23,760,1,53298,1
2,28083,30265,32174,83058,33143,-4264,-427,-296,-807,289,-140,176,504,-112,1,0,55,23,800,1,53298,1
2,28085,30464,32495,83059,33160,-4625,-293,-362,-679,320,-219,165,499,-123,1,0,55,23,840,1,53298,1
2,28141,30666,32616,83060,33178,-4792,-159,-267,182,81,-122,173,499,-117,1,0,55,23,880,1,53298,1
2,28170,30832,32614,83061,33194,-4522,-290,-261,104,-210,-85,168,500,-114,1,0,55,23,920,1,53298,1
2,28130,30851,32679,83062,33212,-4517,-297,-271,-103,-320,-111,169,499,-115,1,0,55,23,960,1,53298,1
1,28202,30905,32686,83063,0,-4618,-232,-256,-219,-358,-84,182,490,-114,1,0,55,24,0,0,53298,1
2,28182,30956,32699,83064,32357,-4600,-271,-212,-302,-364,-42,167,497,-125,1,0,55,24,40,0,53298,1
2,28032,30956,32698,83065,32374,-4547,-277,-218,-180,-355,13,173,499,-115,1,0,55,24,80,0,53298,1
2,28015,30907,32735,83066,32391,-4590,-243,-202,-43,-260,24,166,504,-104,1,0,55,24,120,0,53298,1
2,27999,30888,32748,83067,32408,-4591,-243,-205,-87,-181,33,168,510,-116,1,0,55,24,160,0,53298,1
2,27983,30896,32720,83068,32426,-4559,-256,-216,-196,-157,39,173,501,-115,1,0,55,24,200,0,53298,1
2,27965,30903,32714,83069,32443,-4577,-276,-222,-190,-179,45,170,498,-112,1,0,55,24,240,0,53298,1
2,27879,30867,32664,83070,32460,-4574,-274,-212,-99,-250,89,168,494,-120,1,0,55,24,280,0,53298,1
2,27829,30844,32642,83071,32476,-4580,-266,-193,-46,-302,113,167,499,-111,1,0,55,24,320,0,53298,1
2,27858,30900,32618,83072,32493,-4589,-255,-170,-56,-280,105,169,499,-107,1,0,55,24,360,0,53298,1
2,27772,30921,32590,83073,32510,-4580,-255,-166,-67,-206,85,171,499,-121,1,0,55,24,400,0,53298,1
2,27809,30919,32561,83074,32527,-4574,-253,-181,-39,-108,72,174,502,-118,1,0,55,24,440,0,53298,1
2,27822,30919,32546,83075,32543,-4587,-250,-176,3,-31,35,171,493,-113,1,0,55,24,480,0,53298,1
2,27805,30916,32531,83076,32560,-4585,-270,-177,-10,31,25,173,495,-117,1,0,55,24,520,0,53298,1
2,27731,30911,32526,83077,32577,-4587,-263,-187,11,38,21,169,497,-111,1,0,55,24,560,0,53298,1
2,27717,30847,32513,83078,32594,-4586,-266,-192,19,19,46,169,497,-119,1,0,55,24,600,0,53298,1
2,27722,30634,32496,83079,32611,-4611,-248,-171,75,-2,81,167,495,-109,1,0,55,24,640,0,53298,1
2,27722,30378,32439,83080,32627,-4662,-196,-175,46,-67,173,164,492,-112,1,0,55,24,680,0,53298,1
2,27735,30910,32469,83081,32644,-4609,-258,-178,-76,-209,407,166,502,-112,1,0,55,24,720,0,53298,1
2,27850,30876,32539,83082,32661,-4625,-211,-185,-214,-417,617,167,491,-113,1,0,55,24,760,0,53298,1
2,28148,32524,32793,83083,32679,-4844,-125,6,-331,-704,751,175,505,-107,1,0,55,24,800,0,53298,1
2,28237,35826,32938,83084,32699,-4615,-275,30,-1969,-802,332,162,488,-110,1,0,55,24,840,0,53298,1
2,28320,31524,33061,83085,32719,-4177,855,-548,-4379,-404,146,167,503,-117,1,0,55,24,880,0,53298,1
2,28347,30542,32549,83086,32738,-4203,996,-1317,-6776,1115,2274,176,496,-116,1,0,55,24,920,0,53298,1
2,28182,30762,32276,83087,32759,-4183,1230,-1520,-5797,3431,5083,170,498,-122,1,0,55,24,960,0,53298,1
1,28245,31577,32131,83088,0,-3986,1734,-1457,-1221,5102,8631,139,501,-145,1,0,55,25,0,1,53298,1
2,28252,30521,32120,83089,31899,-3830,2034,-1359,951,7364,12238,109,505,-151,1,0,55,25,40,1,53298,1
2,28146,35098,32247,83090,31921,-3901,2248,-1303,1613,9538,15617,61,493,-163,1,0,55,25,80,1,53298,1
2,28093,35276,32210,83091,31942,-4335,2520,-1136,1551,11369,18525,38,478,-198,1,0,55,25,120,1,53298,1
2,28150,35293,32198,83092,31963,-4961,2391,-1036,1065,11878,20963,-5,451,-221,1,0,55,25,160,1,53298,1
2,28098,33114,31920,83093,31984,-5216,2323,-958,1381,10928,22650,-43,431,-239,1,0,55,25,200,1,53298,1
2,28084,33776,31936,83094,32005,-5309,1876,-934,842,9605,22124,-67,373,-255,1,0,55,25,240,1,53298,1
2,28132,35239,32158,83095,32026,-4721,1139,-1146,-2769,8195,18566,-72,340,-262,1,0,55,25,280,1,53298,1
2,28201,35213,32152,83096,32046,-3727,1139,-1330,-4133,6679,13309,-76,332,-256,1,0,55,25,320,1,53298,1
2,28093,35177,32120,83097,32066,-2816,1566,-1456,-1794,5253,10152,-78,312,-254,1,0,55,25,360,1,53298,1
2,28092,35170,32145,83098,32085,-2546,1763,-1350,1119,4641,9333,-85,299,-265,1,0,55,25,400,1,53298,1
2,28089,35175,32141,83099,32105,-2472,1697,-955,1717,3953,7553,-65,285,-267,1,0,55,25,440,1,53298,1
2,28205,35127,32102,83100,32125,-1932,2206,-1142,-699,2847,4799,-74,278,-262,1,0,55,25,480,1,53298,1
2,28244,35110,32080,83101,32145,-1669,2403,-1463,-2033,2101,3467,-72,276,-268,1,0,55,25,520,1,53298,1
2,28112,35108,32084,83102,32165,-1619,2680,-1485,-1058,1709,3093,-76,268,-260,1,0,55,25,560,1,53298,1
2,28173,35088,32062,83103,32185,-1377,3016,-1693,-1030,1590,2750,-72,262,-254,1,0,55,25,600,1,53298,1
2,28037,35092,32074,83104,32204,-1528,2866,-1574,-914,1779,2769,-71,261,-265,1,0,55,25,640,1,53298,1
2,28113,35139,32150,83105,32224,-1407,2950,-1644,-814,1511,2296,-69,257,-259,1,0,55,25,680,1,53298,1
2,28217,35199,32221,83106,32244,-1329,3001,-1728,-398,1465,2208,-72,250,-256,1,0,55,25,720,1,53298,1
2,28284,35210,32246,83107,32263,-1369,3003,-1506,483,1566,2465,-71,253,-255,1,0,55,25,760,1,53298,1
2,28201,35221,32245,83108,32282,-1299,3006,-1503,311,1277,2191,-71,251,-247,1,0,55,25,800,1,53298,1
2,28224,35215,32237,83109,32301,-1225,3035,-1555,-234,1051,1878,-58,242,-256,1,0,55,25,840,1,53298,1
2,28210,35183,32204,83110,32321,-1126,2977,-1524,-452,860,1742,-59,247,-255,1,0,55,25,880,1,53298,1
2,28227,35189,32222,83111,32340,-1070,2913,-1555,-278,587,1673,-56,238,-256,1,0,55,25,920,1,53298,1
2,28198,35193,32210,83112,32360,-1051,2860,-1574,100,388,1619,-68,240,-250,1,0,55,25,960,1,53298,1
1,28201,35171,32165,83113,0,-1000,2888,-1615,322,177,1413,-65,247,-259,1,0,55,26,0,1,53298,1
2,28154,35174,32173,83114,31438,-979,2911,-1602,158,153,1212,-60,240,-266,1,0,55,26,40,1,53298,1
2,28150,35154,32145,83115,31459,-984,2924,-1660,-75,172,1054,-58,240,-262,1,0,55,26,80,1,53298,1
2,28077,35153,32133,83116,31480,-964,2905,-1670,-181,175,820,-64,238,-248,1,0,55,26,120,1,53298,1
2,28098,35117,32096,83117,31501,-949,2912,-1674,-320,155,524,-69,241,-253,1,0,55,26,160,1,53298,1
2,28083,35083,32044,83118,31523,-981,2874,-1603,-194,73,398,-61,237,-257,1,0,55,26,200,1,53298,1
2,28095,35083,32048,83119,31545,-957,2904,-1574,-73,-103,126,-59,235,-257,1,0,55,26,240,1,53298,1
2,28053,35080,32051,83120,31567,-875,2962,-1608,30,-179,-104,-67,241,-259,1,0,55,26,280,1,53298,1
2,28069,35067,32031,83121,31590,-909,2980,-1608,-134,-108,-141,-61,243,-253,1,0,55,26,320,1,53298,1
2,28067,35076,32033,83122,31612,-918,3023,-1668,-26,-118,-234,-61,241,-255,1,0,55,26,360,1,53298,1
2,27974,34925,31892,83123,31635,-936,3003,-1653,118,-115,-315,-59,237,-261,1,0,55,26,400,1,53298,1
2,27917,34883,31815,83124,31657,-930,3011,-1644,68,-110,-343,-59,239,-247,1,0,55,26,440,1,53298,1
2,27895,34865,31791,83125,31678,-971,3025,-1633,43,-85,-323,-76,244,-254,1,0,55,26,480,1,53298,1
2,27885,34851,31772,83126,31700,-942,3016,-1639,-14,-109,-362,-61,243,-251,1,0,55,26,520,1,53298,1
2,27852,34850,31785,83127,31722,-912,3086,-1659,52,-102,-329,-58,232,-254,1,0,55,26,560,1,53298,1
2,27910,34895,31820,83128,31743,-983,3029,-1586,45,-53,-230,-67,231,-253,1,0,55,26,600,1,53298,1
2,27917,34983,31949,83129,31763,-964,3045,-1616,-123,-114,-291,-72,244,-262,1,0,55,26,640,1,53298,1
2,27970,35037,32017,83130,31782,-980,3019,-1602,-69,-134,-246,-60,240,-246,1,0,55,26,680,1,53298,1
2,28007,35040,32032,83131,31803,-982,3022,-1609,-31,-176,-227,-64,238,-256,1,0,55,26,720,1,53298,1
2,28004,35045,32040,83132,31825,-995,3028,-1634,-61,-153,-242,-64,242,-246,1,0,55,26,760,1,53298,1
2,28011,35049,32035,83133,31847,-994,3024,-1626,-62,-131,-203,-61,243,-259,1,0,55,26,800,1,53298,1
2,28036,35035,32030,83134,31869,-1011,3012,-1632,-37,-141,-186,-66,244,-256,1,0,55,26,840,1,53298,1
2,27977,34974,31936,83135,31890,-1007,2990,-1629,-70,-178,-246,-65,247,-245,1,0,55,26,880,1,53298,1
2,27920,34870,31826,83136,31911,-1049,2955,-1611,-25,-168,-242,-62,238,-254,1,0,55,26,920,1,53298,1
2,27913,34872,31830,83137,31932,-1049,2925,-1544,-71,-250,-367,-72,244,-250,1,0,55,26,960,1,53298,1
1,27932,34881,31828,83138,0,-1077,2919,-1558,-177,-361,-540,-63,243,-255,1,0,55,27,0,1,53298,1
2,27956,34902,31839,83139,30977,-1131,2806,-1454,-209,-482,-735,-75,235,-249,1,0,55,27,40,1,53298,1
2,27971,34933,31921,83140,30997,-1294,2581,-1265,-362,-857,-1314,-61,247,-261,1,0,55,27,80,1,53298,1
2,28000,34987,31974,83141,31017,-1333,2594,-1204,-996,-1538,-2368,-63,253,-253,1,0,55,27,120,1,53298,1
2,28015,35060,32021,83142,31038,-1553,2406,-1030,-1787,-2085,-3359,-69,247,-247,1,0,55,27,160,1,53298,1
2,28068,35093,32095,83143,31058,-1699,2523,-1139,-2788,-2899,-4864,-75,245,-233,1,0,55,27,200,1,53298,1
2,28072,35104,32090,83144,31078,-1557,2741,-1466,-3360,-3057,-5723,-75,265,-247,1,0,55,27,240,1,53298,1
2,28080,35108,32115,83145,31098,-2261,2214,-972,-2197,-3195,-6162,-70,272,-232,1,0,55,27,280,1,53298,1
2,28079,35120,32113,83146,31117,-2075,2816,-1218,-2225,-4396,-8405,-78,278,-230,1,0,55,27,320,1,53298,1
2,28079,35125,32116,83147,31137,-2513,2228,-1209,-1957,-4290,-8827,-81,293,-227,1,0,55,27,360,1,53298,1
2,28030,35122,32117,83148,31156,-2955,2228,-1126,1151,-5180,-10054,-80,314,-216,1,0,55,27,400,1,53298,1
2,28008,35073,32087,83149,31175,-2850,3075,-1362,2875,-5666,-11290,-79,321,-227,1,0,55,27,440,1,53298,1
2,27997,34013,31869,83150,31194,-2968,3289,-1551,2464,-5265,-11067,-79,347,-219,1,0,55,27,480,1,53298,1
2,27918,34998,32150,83151,31212,-3325,3064,-1461,1926,-4725,-10840,-58,360,-228,1,0,55,27,520,1,53298,1
2,27733,34936,32023,83152,31229,-3786,2364,-1476,1950,-4422,-10519,-52,376,-212,1,0,55,27,560,1,53298,1
2,27830,34940,32089,83153,31247,-3830,1966,-1327,4226,-4498,-10451,-45,403,-199,1,0,55,27,600,1,53298,1
2,27805,34877,32042,83154,31264,-4505,1304,-865,6080,-4944,-10707,-29,417,-219,1,0,55,27,640,1,53298,1
2,27720,34151,31950,83155,31280,-4429,1470,-652,5608,-6749,-12328,-1,439,-217,1,0,55,27,680,1,53298,1
2,27665,34138,31865,83156,31296,-4105,1479,-623,1188,-6526,-13462,20,452,-204,1,0,55,27,720,1,53298,1
2,27775,34201,32079,83157,31313,-4069,1062,-504,-785,-6432,-13347,42,462,-190,1,0,55,27,760,1,53298,1
2,27914,34713,32171,83158,31329,-3960,1263,-684,-2749,-6164,-13037,73,483,-167,1,0,55,27,800,1,53298,1
2,27839,33228,31988,83159,31345,-3934,1153,-714,-2305,-5591,-12053,99,489,-149,1,0,55,27,840,1,53298,1
2,27851,33868,31998,83160,31362,-4169,1206,-850,-927,-4843,-10406,124,490,-144,1,0,55,27,880,1,53298,1
2,27889,34166,32024,83161,31379,-4288,1355,-973,778,-4104,-8605,125,491,-139,1,0,55,27,920,1,53298,1
2,27869,34320,32074,83162,31396,-4255,1946,-1298,387,-2270,-5980,142,494,-124,1,0,55,27,960,1,53298,1
1,27917,34445,32094,83163,0,-4438,1672,-964,1614,-1159,-2420,139,497,-113,1,0,55,28,0,0,53298,1
2,27922,34382,32075,83164,30514,-4424,356,-587,-110,17,-294,143,495,-129,1,0,55,28,40,0,53298,1
2,27815,34207,32089,83165,30532,-4474,-315,-245,-185,618,165,146,490,-136,1,0,55,28,80,0,53298,1
2,27852,34121,32119,83166,30549,-4281,-362,-114,739,484,-161,140,498,-130,1,0,55,28,120,0,53298,1
2,27860,34285,32204,83167,30566,-4119,112,-346,664,391,-549,147,499,-127,1,0,55,28,160,0,53298,1
2,27841,34304,32254,83168,30583,-4424,331,-498,548,865,-103,147,497,-135,1,0,55,28,200,0,53298,1
2,27772,35390,32497,83169,30600,-4985,64,-288,1098,891,355,145,493,-131,1,0,55,28,240,0,53298,1
2,27683,34427,32413,83170,30616,-4910,4,-172,523,494,83,147,503,-123,1,0,55,28,280,0,53298,1
2,27754,30834,32569,83171,30633,-4346,117,-345,189,112,46,134,492,-124,1,0,55,28,320,0,53298,1
2,27741,30758,32597,83172,30650,-4377,26,-450,595,130,258,138,506,-126,1,0,55,28,360,0,53298,1
2,27736,30775,32635,83173,30666,-4669,55,-382,639,284,244,143,495,-127,1,0,55,28,400,0,53298,1
2,27749,30970,32646,83174,30683,-4572,139,-332,676,162,169,140,504,-134,1,0,55,28,440,0,53298,1
2,27707,30966,32638,83175,30701,-4457,86,-416,470,91,44,133,503,-125,1,0,55,28,480,0,53298,1
2,27731,30968,32642,83176,30718,-4502,95,-431,355,159,-98,133,501,-131,1,0,55,28,520,0,53298,1
2,27697,30967,32632,83177,30734,-4544,76,-373,339,192,-228,142,498,-130,1,0,55,28,560,0,53298,1
2,27745,30965,32631,83178,30750,-4514,68,-385,325,280,-342,145,497,-133,1,0,55,28,600,0,53298,1
2,27713,30976,32644,83179,30767,-4518,58,-401,341,428,-447,140,492,-138,1,0,55,28,640,0,53298,1
2,27771,30971,32626,83180,30783,-4526,41,-421,282,562,-400,137,509,-125,1,0,55,28,680,0,53298,1
2,27722,30973,32629,83181,30798,-4526,3,-473,87,579,-298,134,496,-132,1,0,55,28,720,0,53298,1
2,27703,30971,32623,83182,30813,-4516,4,-503,35,452,-174,137,499,-137,1,0,55,28,760,0,53298,1
2,27678,30971,32614,83183,30829,-4523,14,-519,48,223,-58,142,502,-134,1,0,55,28,800,0,53298,1
2,27720,30969,32608,83184,30845,-4521,16,-497,44,-34,26,149,499,-129,1,0,55,28,840,0,53298,1
2,27707,30984,32626,83185,30861,-4508,28,-470,-23,-221,64,145,503,-129,1,0,55,28,880,0,53298,1
2,27686,30970,32627,83186,30877,-4521,35,-447,-60,-268,51,145,495,-141,1,0,55,28,920,0,53298,1
2,27683,30970,32638,83187,30892,-4521,33,-443,-53,-211,34,141,509,-135,1,0,55,28,960,0,53298,1
1,27679,30977,32636,83188,0,-4517,28,-446,-52,-111,32,140,496,-138,1,0,55,29,0,0,53298,1
2,27598,30963,32588,83189,30051,-4510,33,-457,-51,-18,27,138,504,-124,1,0,55,29,40,0,53298,1
2,27647,30962,32594,83190,30068,-4509,42,-457,-14,9,28,138,504,-138,1,0,55,29,80,0,53298,1
2,27674,30954,32581,83191,30084,-4521,39,-451,-3,-3,21,141,501,-119,1,0,55,29,120,0,53298,1
2,27649,30949,32594,83192,30101,-4515,23,-450,-34,-25,22,135,499,-139,1,0,55,29,160,0,53298,1
2,27688,30923,32631,83193,30118,-4524,22,-435,-24,-53,45,134,496,-138,1,0,55,29,200,0,53298,1
2,27666,30563,32585,83194,30135,-4516,28,-452,-31,-67,46,139,493,-131,1,0,55,29,240,0,53298,1
2,27641,30710,32596,83195,30150,-4512,42,-446,-41,-70,32,140,498,-136,1,0,55,29,280,0,53298,1
2,27654,30836,32637,83196,30166,-4526,30,-451,-32,-61,20,138,498,-140,1,0,55,29,320,0,53298,1
2,27693,30897,32640,83197,30182,-4516,41,-438,-12,-49,9,144,510,-140,1,0,55,29,360,0,53298,1
2,27740,30866,32639,83198,30198,-4511,30,-443,-41,-39,21,131,507,-125,1,0,55,29,400,0,53298,1
2,27652,30634,32612,83199,30215,-4512,27,-439,-31,-52,53,143,499,-139,1,0,55,29,440,0,53298,1
2,27670,30775,32621,83200,30230,-4520,36,-449,-31,-62,69,135,491,-135,1,0,55,29,480,0,53298,1
2,27706,30544,32586,83201,30247,-4512,29,-449,-44,-100,102,148,498,-140,1,0,55,29,520,0,53298,1
2,27731,30367,32561,83202,30263,-4524,35,-439,-77,-152,142,135,505,-137,1,0,55,29,560,0,53298,1
2,27763,30410,32550,83203,30280,-4528,50,-454,-117,-226,224,138,504,-130,1,0,55,29,600,0,53298,1
2,27674,30432,32561,83204,30297,-4551,44,-418,-91,-336,358,139,501,-135,1,0,55,29,640,0,53298,1
2,27665,30825,32457,83205,30314,-4708,105,-401,-213,-546,701,145,503,-135,1,0,55,29,680,0,53298,1
2,27607,33972,32019,83206,30331,-5056,-132,-118,-220,-1231,1629,129,493,-125,1,0,55,29,720,0,53298,1
2,28216,30980,32628,83207,30351,-4285,-13,-410,-1833,-2038,1452,138,492,-126,1,0,55,29,760,0,53298,1
2,28313,31319,32584,83208,30372,-4422,880,-1132,-3043,-1422,2117,133,505,-121,1,0,55,29,800,0,53298,1
2,28484,30907,32529,83209,30393,-3998,1536,-1496,-2825,87,3234,128,492,-126,1,0,55,29,840,0,53298,1
2,28565,31137,32370,83210,30415,-3823,1904,-1597,-1348,2993,5326,113,497,-145,1,0,55,29,880,0,53298,1
2,28523,30711,32640,83211,30437,-3816,1963,-1493,-102,5967,7972,90,498,-146,1,0,55,29,920,0,53298,1
2,28760,31143,32933,83212,30460,-3841,2072,-1351,998,8363,10922,63,497,-169,1,0,55,29,960,0,53298,1
1,28700,34650,32622,83213,0,-4006,2179,-1033,2004,9823,13577,33,481,-181,1,0,55,30,0,1,53298,1
2,28796,31460,32712,83214,29594,-4170,2146,-912,1406,10500,15649,3,463,-215,1,0,55,30,40,1,53298,1
2,28685,35711,32539,83215,29616,-4459,2101,-976,-211,10450,17347,-26,456,-236,1,0,55,30,80,1,53298,1
2,28657,32613,32524,83216,29639,-4494,2038,-1026,-1875,9473,18209,-49,411,-237,1,0,55,30,120,1,53298,1
2,28764,31762,32582,83217,29662,-4407,1679,-1123,-3404,8065,17856,-77,391,-251,1,0,55,30,160,1,53298,1
2,28780,31361,32630,83218,29685,-4049,1355,-1357,-5475,7333,15354,-76,362,-254,1,0,55,30,200,1,53298,1
2,28850,32155,32665,83219,29708,-3467,1491,-1440,-6105,6871,11511,-82,334,-256,1,0,55,30,240,1,53298,1
2,28885,31987,32648,83220,29731,-2970,1873,-1349,-3034,5806,9106,-87,321,-243,1,0,55,30,280,1,53298,1
2,28804,31559,32689,83221,29754,-2531,2258,-1304,1313,4661,8373,-83,311,-249,1,0,55,30,320,1,53298,1
2,28591,31850,32480,83222,29776,-2318,2672,-1000,2520,4212,7630,-75,291,-271,1,0,55,30,360,1,53298,1
2,28438,31688,32445,83223,29797,-2158,2853,-1027,198,3522,6547,-79,283,-269,1,0,55,30,400,1,53298,1
2,28321,31631,32411,83224,29819,-1677,2935,-1413,-2382,2787,5442,-71,277,-259,1,0,55,30,440,1,53298,1
2,28358,31583,32343,83225,29841,-1549,2839,-1497,-2174,2593,5348,-67,269,-257,1,0,55,30,480,1,53298,1
2,28257,31437,32314,83226,29862,-1679,2619,-1567,9,2199,5522,-70,268,-246,1,0,55,30,520,1,53298,1
2,28285,31405,32323,83227,29884,-1314,2807,-1516,876,1901,4645,-66,264,-252,1,0,55,30,560,1,53298,1
2,28313,31427,32390,83228,29905,-1415,2680,-1480,991,1820,4401,-54,248,-258,1,0,55,30,600,1,53298,1
2,28053,31185,31900,83229,29927,-1312,2675,-1487,741,1533,3645,-56,258,-258,1,0,55,30,640,1,53298,1
2,28205,31238,32057,83230,29948,-1127,2634,-1489,-252,1356,2652,-62,242,-256,1,0,55,30,680,1,53298,1
2,28309,31537,32400,83231,29969,-1249,2475,-1306,-458,911,1796,-62,248,-264,1,0,55,30,720,1,53298,1
2,28299,31459,32404,83232,29991,-1058,2655,-1500,-452,169,811,-58,246,-258,1,0,55,30,760,1,53298,1
2,28320,31456,32412,83233,30013,-1032,2727,-1423,104,-31,484,-61,247,-249,1,0,55,30,800,1,53298,1
2,28324,31460,32422,83234,30035,-1067,2762,-1402,-25,-346,-63,-62,246,-262,1,0,55,30,840,1,53298,1
2,28280,31431,32363,83235,30055,-943,2988,-1634,-223,-715,-571,-64,252,-260,1,0,55,30,880,1,53298,1
2,28305,31512,32405,83236,30077,-964,3051,-1659,63,-558,-393,-63,247,-247,1,0,55,30,920,1,53298,1
2,28341,31448,32409,83237,30099,-1010,3029,-1615,-211,-576,-643,-65,241,-247,1,0,55,30,960,1,53298,1
1,28293,31427,32407,83238,0,-924,3235,-1848,-419,-567,-698,-68,246,-260,1,0,55,31,0,0,53298,1
2,28220,31232,32272,83239,29134,-1046,3113,-1598,182,-230,-157,-75,253,-255,1,0,55,31,40,0,53298,1
2,28181,31231,32266,83240,29155,-962,3206,-1679,-102,-286,-244,-67,241,-253,1,0,55,31,80,0,53298,1
2,28247,31239,32369,83241,29176,-991,3207,-1742,-24,-77,139,-60,242,-252,1,0,55,31,120,0,53298,1
2,28270,31145,32362,83242,29198,-1058,2987,-1571,135,115,377,-61,243,-261,1,0,55,31,160,0,53298,1
2,28287,31123,32369,83243,29220,-993,3023,-1660,-57,-18,144,-64,254,-256,1,0,55,31,200,0,53298,1
2,28283,31095,32359,83244,29242,-1015,2958,-1673,106,188,406,-57,237,-255,1,0,55,31,240,0,53298,1
2,28260,31033,32389,83245,29264,-1083,2833,-1481,128,236,292,-62,248,-264,1,0,55,31,280,0,53298,1
2,28342,31004,32394,83246,29285,-996,2995,-1653,-265,50,-101,-64,238,-262,1,0,55,31,320,0,53298,1
2,28298,30907,32394,83247,29306,-1061,2904,-1517,49,185,99,-64,244,-260,1,0,55,31,360,0,53298,1
2,28280,30897,32414,83248,29327,-973,3062,-1590,-73,81,-102,-74,240,-246,1,0,55,31,400,0,53298,1
2,28279,30946,32413,83249,29347,-1040,3062,-1538,13,127,-13,-65,249,-265,1,0,55,31,440,0,53298,1
2,28265,30907,32389,83250,29368,-964,3109,-1604,-43,36,-66,-60,246,-252,1,0,55,31,480,0,53298,1
2,28267,30905,32374,83251,29388,-1020,3070,-1600,95,115,153,-60,246,-258,1,0,55,31,520,0,53298,1
2,28278,30812,32372,83252,29409,-1054,2955,-1553,40,39,57,-65,241,-257,1,0,55,31,560,0,53298,1
2,28253,30803,32359,83253,29429,-1001,3012,-1626,4,-47,-42,-58,244,-248,1,0,55,31,600,0,53298,1
2,28247,30835,32352,83254,29448,-1046,2911,-1512,169,4,10,-65,253,-243,1,0,55,31,640,0,53298,1
2,28240,30768,32332,83255,29468,-1042,2939,-1522,22,-178,-267,-64,244,-256,1,0,55,31,680,0,53298,1
2,28241,30800,32320,83256,29488,-1064,2913,-1553,-60,-237,-385,-61,245,-247,1,0,55,31,720,0,53298,1
2,28252,30682,32352,83257,29507,-1097,2920,-1474,79,-331,-498,-64,250,-264,1,0,55,31,760,0,53298,1
2,28194,30582,32271,83258,29528,-1040,3088,-1633,-181,-479,-855,-71,247,-245,1,0,55,31,800,0,53298,1
2,28117,30447,31729,83259,29547,-1049,3310,-1755,40,-187,-949,-62,246,-252,1,0,55,31,840,0,53298,1
2,27733,31326,31495,83260,29565,-1094,3348,-1525,144,-106,-868,-60,246,-248,1,0,55,31,880,0,53298,1
2,27749,33732,31652,83261,29584,-1017,3347,-1592,-181,-155,-491,-55,253,-259,1,0,55,31,920,0,53298,1
2,27732,31816,31732,83262,29602,-1140,3248,-1696,-1747,273,-338,-54,250,-246,1,0,55,31,960,0,53298,1
1,27911,30376,32245,83263,0,-1282,2600,-1476,-1841,159,-487,-63,243,-249,1,0,55,32,0,1,53298,1
2,27950,30568,32338,83264,28670,-1405,1999,-1161,-1822,-815,-1528,-63,257,-237,1,0,55,32,40,1,53298,1
2,28040,30905,32336,83265,28687,-1840,1395,-782,-1340,-1897,-3197,-57,255,-239,1,0,55,32,80,1,53298,1
2,28124,30444,32426,83266,28702,-2195,1707,-620,778,-4526,-6424,-64,264,-250,1,0,55,32,120,1,53298,1
2,28283,30527,32449,83267,28718,-2060,2393,-1000,754,-6042,-9127,-64,274,-244,1,0,55,32,160,1,53298,1
2,28825,30435,32401,83268,28735,-2572,2385,-1145,-1011,-6020,-10497,-70,294,-244,1,0,55,32,200,1,53298,1
2,29059,30309,32171,83269,28752,-2583,2968,-1526,-2075,-6198,-12058,-76,316,-234,1,0,55,32,240,1,53298,1
2,29308,30346,32119,83270,28768,-2497,3119,-1622,-922,-5346,-11563,-66,320,-236,1,0,55,32,280,1,53298,1
2,29512,30425,32195,83271,28783,-3068,2733,-1505,1547,-4761,-10324,-67,337,-223,1,0,55,32,320,1,53298,1
2,29518,30446,32335,83272,28800,-3473,2650,-1341,2859,-4784,-10283,-56,356,-234,1,0,55,32,360,1,53298,1
2,29357,30440,32279,83273,28815,-3442,2444,-1233,2398,-5044,-10876,-49,377,-235,1,0,55,32,400,1,53298,1
2,29295,30420,32285,83274,28831,-3908,1811,-972,1863,-5062,-11076,-40,398,-220,1,0,55,32,440,1,53298,1
2,28902,30404,32316,83275,28847,-3870,1871,-976,1967,-5699,-11837,-26,410,-216,1,0,55,32,480,1,53298,1
2,28598,30445,32425,83276,28863,-3868,1577,-786,2590,-5672,-11876,-10,424,-210,1,0,55,32,520,1,53298,1
2,28410,30436,32444,83277,28877,-3902,1602,-530,2727,-6304,-11761,13,439,-193,1,0,55,32,560,1,53298,1
2,28371,30364,32401,83278,28892,-4011,1575,-623,1523,-6276,-11912,40,456,-186,1,0,55,32,600,1,53298,1
2,28311,30458,32454,83279,28907,-4147,1576,-658,1380,-5711,-11304,55,471,-169,1,0,55,32,640,1,53298,1
2,28228,30435,32443,83280,28922,-4344,1598,-718,607,-5452,-10290,78,480,-168,1,0,55,32,680,1,53298,1
2,28275,30501,32487,83281,28937,-4339,1503,-865,-8,-5229,-9150,93,491,-161,1,0,55,32,720,1,53298,1
2,28112,30385,32216,83282,28953,-4085,1282,-943,-149,-4724,-7785,116,478,-144,1,0,55,32,760,1,53298,1
2,28132,30400,32289,83283,28968,-3935,970,-1044,-121,-3781,-6206,126,484,-136,1,0,55,32,800,1,53298,1
2,28104,31513,32285,83284,28985,-4017,722,-1268,1600,-2450,-4760,128,478,-128,1,0,55,32,840,1,53298,1
2,28054,30828,32175,83285,29000,-3734,1627,-1380,2986,564,-2301,127,491,-129,1,0,55,32,880,1,53298,1
2,27852,30867,32350,83286,29015,-4716,440,-565,2708,1627,198,126,486,-140,1,0,55,32,920,1,53298,1
2,27881,31006,32750,83287,29030,-5646,-248,311,2478,1307,-150,124,490,-144,1,0,55,32,960,1,53298,1
1,27851,30973,32625,83288,0,-4396,420,-174,1251,880,-584,123,487,-147,1,0,55,33,0,0,53298,1
2,27542,30762,31941,83289,28208,-4264,161,-587,1286,943,-48,124,490,-142,1,0,55,33,40,0,53298,1
2,27541,30746,31914,83290,28224,-4561,182,-614,682,1198,-66,129,491,-135,1,0,55,33,80,0,53298,1
2,27537,30750,31908,83291,28240,-4543,245,-438,519,1096,-188,125,495,-145,1,0,55,33,120,0,53298,1
2,27504,30745,31871,83292,28255,-4442,168,-586,738,767,-129,129,491,-147,1,0,55,33,160,0,53298,1
2,27533,30731,31810,83293,28271,-4428,208,-638,650,538,-106,124,482,-150,1,0,55,33,200,0,53298,1
2,27460,30750,31832,83294,28286,-4496,227,-553,475,297,-205,131,487,-153,1,0,55,33,240,0,53298,1
2,27885,30733,31790,83295,28302,-4472,204,-546,196,170,-314,125,489,-149,1,0,55,33,280,0,53298,1
2,27480,30744,31838,83296,28317,-4477,183,-543,21,194,-339,127,487,-151,1,0,55,33,320,0,53298,1
2,27395,30733,31818,83297,28333,-4477,167,-550,50,204,-261,130,488,-148,1,0,55,33,360,0,53298,1
2,27408,30726,31800,83298,28349,-4466,172,-574,6,188,-160,128,492,-136,1,0,55,33,400,0,53298,1
2,27367,30724,31782,83299,28365,-4484,151,-589,-68,108,-70,131,499,-155,1,0,55,33,440,0,53298,1
2,27370,30719,31775,83300,28380,-4480,157,-581,-107,-28,-3,135,493,-149,1,0,55,33,480,0,53298,1
2,27384,30720,31777,83301,28396,-4485,161,-594,-80,-166,28,124,490,-158,1,0,55,33,520,0,53298,1
2,27388,30725,31795,83302,28411,-4463,181,-561,-117,-261,45,131,489,-145,1,0,55,33,560,0,53298,1
2,27369,30724,31784,83303,28426,-4473,173,-559,-183,-274,50,129,487,-153,1,0,55,33,600,0,53298,1
2,27371,30724,31793,83304,28442,-4476,173,-551,-206,-262,43,125,483,-143,1,0,55,33,640,0,53298,1
2,27340,30723,31792,83305,28458,-4477,169,-532,-205,-255,26,141,489,-151,1,0,55,33,680,0,53298,1
2,27339,30719,31780,83306,28474,-4486,168,-534,-234,-254,31,125,487,-141,1,0,55,33,720,0,53298,1
2,27353,30725,31795,83307,28489,-4481,179,-535,-248,-274,41,128,494,-150,1,0,55,33,760,0,53298,1
2,27347,30719,31801,83308,28505,-4465,188,-512,-262,-302,66,133,481,-145,1,0,55,33,800,0,53298,1
2,27369,30726,31802,83309,28521,-4481,181,-520,-262,-333,82,125,485,-143,1,0,55,33,840,0,53298,1
2,27350,30717,31797,83310,28537,-4477,185,-499,-254,-360,96,133,487,-151,1,0,55,33,880,0,53298,1
2,27336,30725,31805,83311,28554,-4482,174,-484,-262,-380,97,133,491,-151,1,0,55,33,920,0,53298,1
2,27339,30725,31807,83312,28570,-4481,185,-485,-267,-364,93,129,485,-147,1,0,55,33,960,0,53298,1
1,27345,30727,31815,83313,0,-4483,178,-475,-261,-356,90,130,492,-146,1,0,55,34,0,0,53298,1
2,27371,30726,31800,83314,27748,-4479,192,-456,-236,-327,84,137,495,-141,1,0,55,34,40,0,53298,1
2,27363,30726,31813,83315,27763,-4482,189,-458,-220,-311,84,134,492,-148,1,0,55,34,80,0,53298,1
2,27357,30728,31818,83316,27780,-4484,193,-448,-209,-288,88,138,480,-144,1,0,55,34,120,0,53298,1
2,27340,30720,31813,83317,27796,-4488,196,-434,-179,-256,78,135,483,-135,1,0,55,34,160,0,53298,1
2,27324,30726,31805,83318,27812,-4490,205,-438,-147,-236,68,138,484,-138,1,0,55,34,200,0,53298,1
2,27338,30726,31812,83319,27828,-4478,195,-430,-152,-209,56,128,496,-144,1,0,55,34,240,0,53298,1
2,27330,30718,31810,83320,27844,-4472,205,-434,-143,-191,66,124,480,-144,1,0,55,34,280,0,53298,1
2,27345,30721,31815,83321,27860,-4480,194,-418,-119,-174,67,129,483,-141,1,0,55,34,320,0,53298,1
2,27363,30722,31827,83322,27877,-4477,202,-427,-112,-173,62,132,484,-136,1,0,55,34,360,0,53298,1
2,27347,30723,31828,83323,27893,-4495,202,-415,-103,-169,69,127,487,-129,1,0,55,34,400,0,53298,1
2,27358,30724,31835,83324,27908,-4509,185,-417,-60,-156,110,140,480,-132,1,0,55,34,440,0,53298,1
2,27351,30730,31848,83325,27925,-4469,222,-402,-44,-143,146,125,493,-143,1,0,55,34,480,0,53298,1
2,27343,30731,31836,83326,27942,-4478,210,-413,-54,-134,167,136,480,-146,1,0,55,34,520,0,53298,1
2,27350,30730,31831,83327,27959,-4481,217,-424,-56,-147,180,123,489,-137,1,0,55,34,560,0,53298,1
2,27340,30727,31836,83328,27977,-4492,221,-405,-54,-193,179,129,487,-133,1,0,55,34,600,0,53298,1
2,27345,30732,31835,83329,27994,-4492,235,-395,-57,-268,213,130,486,-140,1,0,55,34,640,0,53298,1
2,27351,30731,31842,83330,28011,-4504,237,-390,-53,-404,373,123,493,-135,1,0,55,34,680,0,53298,1
2,27349,30731,31836,83331,28028,-4521,242,-392,-284,-661,662,126,482,-126,1,0,55,34,720,0,53298,1
2,27355,30733,31838,83332,28046,-4448,202,-514,-1037,-1161,1115,113,483,-127,1,0,55,34,760,0,53298,1
2,27360,30731,31824,83333,28063,-4576,243,-493,-1221,-1757,1503,117,487,-121,1,0,55,34,800,0,53298,1
2,27381,30733,31805,83334,28080,-4724,251,-219,-436,-2198,2031,115,473,-127,1,0,55,34,840,0,53298,1
2,27835,30782,32050,83335,28098,-4566,620,-380,-1339,-1966,1578,117,483,-121,1,0,55,34,880,0,53298,1
2,28695,31178,33177,83336,28116,-4142,1128,-961,-1946,-637,1399,114,484,-118,1,0,55,34,920,0,53298,1
2,28918,31233,33382,83337,28134,-4044,1447,-1348,-1749,2409,2395,109,487,-131,1,0,55,34,960,0,53298,1
1,28911,31150,33093,83338,0,-3952,1748,-1183,-646,5445,4472,99,487,-137,1,0,55,35,0,1,53298,1
2,29032,31075,32980,83339,27291,-3853,1982,-1037,645,7147,6922,81,497,-141,1,0,55,35,40,1,53298,1
2,28976,30902,32941,83340,27312,-3654,2151,-1036,1716,8196,9829,39,489,-155,1,0,55,35,80,1,53298,1
2,28621,31049,32197,83341,27333,-3712,2454,-1028,2256,9051,12977,18,486,-190,1,0,55,35,120,1,53298,1
2,28588,31697,32690,83342,27355,-3884,2480,-1083,545,10045,15297,-8,470,-212,1,0,55,35,160,1,53298,1
2,28832,33782,33397,83343,27378,-3930,2585,-1131,-1991,10671,17397,-39,441,-225,1,0,55,35,200,1,53298,1
2,29423,34772,32024,83344,27402,-4270,2551,-1515,-4484,10613,19423,-67,405,-237,1,0,55,35,240,1,53298,1
2,29360,34148,32058,83345,27425,-4830,2160,-1265,-3687,9859,19238,-81,371,-247,1,0,55,35,280,1,53298,1
2,29118,34865,32115,83346,27449,-4298,1833,-1213,-5110,8920,15511,-91,341,-245,1,0,55,35,320,1,53298,1
2,29084,34919,31756,83347,27472,-3388,1892,-1339,-6761,7501,10954,-78,316,-244,1,0,55,35,360,1,53298,1
2,29049,34863,31930,83348,27495,-2569,2116,-1548,-3135,5746,10040,-92,292,-232,1,0,55,35,400,1,53298,1
2,28997,34994,32034,83349,27517,-2375,2222,-1233,2538,5057,10503,-78,288,-254,1,0,55,35,440,1,53298,1
2,28725,34896,31995,83350,27541,-2484,2385,-742,3526,4564,9129,-73,277,-263,1,0,55,35,480,1,53298,1
2,28628,34890,31996,83351,27563,-1678,2672,-1138,-58,3432,6439,-70,270,-260,1,0,55,35,520,1,53298,1
2,28550,34881,31976,83352,27585,-1414,2551,-1235,-1602,3013,5505,-65,259,-257,1,0,55,35,560,1,53298,1
2,28475,35104,32040,83353,27607,-1579,2399,-1259,-385,2388,5095,-64,258,-258,1,0,55,35,600,1,53298,1
2,28254,35113,32032,83354,27630,-1252,2513,-1420,70,1656,3740,-60,252,-248,1,0,55,35,640,1,53298,1
2,28290,35094,32005,83355,27652,-1069,2672,-1461,435,1277,2888,-59,251,-259,1,0,55,35,680,1,53298,1
2,28201,35063,31984,83356,27673,-1212,2649,-1420,734,1127,2502,-58,250,-264,1,0,55,35,720,1,53298,1
2,28415,35014,31950,83357,27695,-1136,2640,-1328,-118,749,1386,-63,243,-255,1,0,55,35,760,1,53298,1
2,28292,35015,31922,83358,27716,-981,2847,-1539,-1137,368,375,-60,250,-252,1,0,55,35,800,1,53298,1
2,28170,34977,31896,83359,27738,-1106,2798,-1379,-438,212,338,-74,252,-244,1,0,55,35,840,1,53298,1
2,28143,34970,31884,83360,27759,-1081,2933,-1351,49,-313,-37,-61,243,-245,1,0,55,35,880,1,53298,1
2,28120,34951,31879,83361,27779,-930,3173,-1567,-95,-636,-356,-58,240,-256,1,0,55,35,920,1,53298,1
2,28074,34947,31860,83362,27800,-975,3146,-1617,-31,-493,-165,-64,240,-250,1,0,55,35,960,1,53298,1
1,28055,34989,31930,83363,0,-957,3082,-1587,150,-581,-110,-52,248,-242,1,0,55,36,0,1,53298,1
2,28052,34997,31954,83364,26832,-922,3139,-1699,114,-577,-63,-68,244,-252,1,0,55,36,40,1,53298,1
2,28081,35018,31959,83365,26852,-999,2990,-1603,102,-344,175,-63,237,-249,1,0,55,36,80,1,53298,1
2,28081,35022,31970,83366,26872,-1037,2913,-1555,6,-458,-94,-67,245,-255,1,0,55,36,120,1,53298,1
2,28076,35015,31976,83367,26892,-999,2908,-1560,4,-454,-271,-70,248,-234,1,0,55,36,160,1,53298,1
2,28039,34999,31956,83368,26911,-1039,2899,-1474,342,-353,-150,-69,245,-251,1,0,55,36,200,1,53298,1
2,28030,34996,31977,83369,26931,-1053,2986,-1529,58,-505,-517,-60,242,-254,1,0,55,36,240,1,53298,1
2,28015,34981,31954,83370,26950,-967,3107,-1713,-119,-444,-539,-63,247,-253,1,0,55,36,280,1,53298,1
2,27970,35008,31987,83371,26969,-1010,3097,-1681,348,-180,-132,-72,250,-246,1,0,55,36,320,1,53298,1
2,27927,35003,31978,83372,26990,-984,3214,-1755,202,-91,-177,-58,240,-256,1,0,55,36,360,1,53298,1
2,27951,35013,32011,83373,27009,-979,3187,-1775,101,223,124,-69,245,-251,1,0,55,36,400,1,53298,1
2,28017,35020,32028,83374,27030,-1092,2987,-1574,317,367,336,-70,252,-242,1,0,55,36,440,1,53298,1
2,27933,35024,32040,83375,27050,-1074,2945,-1545,-36,240,67,-67,245,-247,1,0,55,36,480,1,53298,1
2,27949,35055,32072,83376,27070,-1071,2851,-1489,-43,212,50,-57,247,-259,1,0,55,36,520,1,53298,1
2,27981,35054,32063,83377,27090,-1129,2760,-1369,149,58,-130,-67,249,-257,1,0,55,36,560,1,53298,1
2,27987,35029,32035,83378,27110,-1071,2884,-1514,-53,-318,-654,-64,244,-262,1,0,55,36,600,1,53298,1
2,27962,35048,32072,83379,27129,-1044,2951,-1611,33,-286,-677,-65,241,-257,1,0,55,36,640,1,53298,1
2,27898,35016,32034,83380,27149,-1097,2993,-1567,281,-259,-677,-57,249,-253,1,0,55,36,680,1,53298,1
2,27914,35035,32054,83381,27168,-1053,3129,-1696,-51,-313,-927,-70,256,-246,1,0,55,36,720,1,53298,1
2,27885,35037,32073,83382,27187,-1105,3114,-1645,-51,-85,-669,-68,252,-260,1,0,55,36,760,1,53298,1
2,27941,35051,32074,83383,27206,-1208,2984,-1491,72,-113,-626,-75,253,-253,1,0,55,36,800,1,53298,1
2,27901,35054,32066,83384,27225,-1230,2946,-1445,-34,-433,-970,-66,254,-248,1,0,55,36,840,1,53298,1
2,27900,35065,32094,83385,27244,-1316,2778,-1362,-55,-692,-1190,-79,243,-247,1,0,55,36,880,1,53298,1
2,27918,35047,32100,83386,27263,-1455,2604,-1143,-50,-1253,-1863,-80,260,-250,1,0,55,36,920,1,53298,1
2,27941,35040,32083,83387,27282,-1456,2764,-1279,-477,-2098,-3079,-71,261,-255,1,0,55,36,960,1,53298,1
1,27927,35055,32111,83388,0,-1596,2602,-1349,-781,-2441,-3739,-76,260,-248,1,0,55,37,0,1,53298,1
2,27894,34770,31972,83389,26372,-1902,2656,-1284,-688,-3065,-5042,-71,269,-239,1,0,55,37,40,1,53298,1
2,27891,34932,32234,83390,26390,-1508,3112,-1573,-1614,-3480,-6416,-78,280,-238,1,0,55,37,80,1,53298,1
2,27903,33714,32262,83391,26407,-1615,2797,-1510,-1881,-2593,-5358,-70,278,-244,1,0,55,37,120,1,53298,1
2,28150,32648,32325,83392,26423,-2219,2621,-1287,-1440,-2315,-5094,-79,283,-235,1,0,55,37,160,1,53298,1
2,28148,33043,32428,83393,26439,-2355,2614,-1301,-1606,-2804,-6148,-75,291,-233,1,0,55,37,200,1,53298,1
2,28030,34654,32160,83394,26456,-2620,2748,-1369,-858,-3434,-6744,-81,311,-239,1,0,55,37,240,1,53298,1
2,28218,30420,32296,83395,26471,-2951,2685,-1251,-291,-3158,-7442,-75,315,-229,1,0,55,37,280,1,53298,1
2,28110,31812,32041,83396,26487,-3377,2404,-1134,1695,-4416,-8297,-59,325,-223,1,0,55,37,320,1,53298,1
2,28021,31344,32065,83397,26502,-3389,2495,-1200,1922,-4930,-9462,-70,348,-224,1,0,55,37,360,1,53298,1
2,28065,30754,32148,83398,26517,-3586,2176,-961,1913,-5379,-10322,-58,372,-228,1,0,55,37,400,1,53298,1
2,28134,30644,32187,83399,26533,-3819,1767,-796,219,-5763,-11511,-50,400,-210,1,0,55,37,440,1,53298,1
2,28085,30460,32224,83400,26548,-3962,1607,-677,-502,-6372,-12892,-28,420,-216,1,0,55,37,480,1,53298,1
2,28070,30439,32350,83401,26564,-4184,1409,-465,645,-7070,-13608,-2,436,-208,1,0,55,37,520,1,53298,1
2,28185,30480,32459,83402,26581,-3885,1710,-710,-48,-7555,-14025,23,443,-189,1,0,55,37,560,1,53298,1
2,28220,30430,32498,83403,26596,-3690,1671,-799,219,-6942,-13290,46,468,-170,1,0,55,37,600,1,53298,1
2,28253,30443,32500,83404,26612,-3703,1871,-998,173,-5796,-11979,66,472,-166,1,0,55,37,640,1,53298,1
2,28251,30504,32570,83405,26628,-3807,1994,-856,1041,-4558,-10082,85,479,-151,1,0,55,37,680,1,53298,1
2,28274,30743,32685,83406,26644,-4091,1786,-664,1202,-3604,-7866,97,477,-147,1,0,55,37,720,1,53298,1
2,28385,30766,32715,83407,26662,-4244,1473,-812,414,-2947,-5989,113,489,-131,1,0,55,37,760,1,53298,1
2,28439,30828,32702,83408,26678,-3947,1161,-868,1444,-1880,-4404,113,491,-131,1,0,55,37,800,1,53298,1
2,28408,30832,32766,83409,26695,-3756,915,-1267,1864,-80,-3362,116,488,-130,1,0,55,37,840,1,53298,1
2,28437,30855,32783,83410,26712,-4183,815,-1069,2733,2677,-1307,111,491,-135,1,0,55,37,880,1,53298,1
2,28090,34403,32678,83411,26728,-5386,710,386,5135,1629,393,108,488,-136,1,0,55,37,920,1,53298,1
2,28101,31946,32856,83412,26745,-5240,494,222,2021,63,-44,115,495,-129,1,0,55,37,960,1,53298,1
1,28177,31749,32927,83413,0,-4022,314,-631,-1031,207,-264,105,485,-129,1,0,55,38,0,0,53298,1
2,28233,30980,32805,83414,25909,-4171,289,-675,-331,109,105,118,494,-132,1,0,55,38,40,0,53298,1
2,28188,31762,32950,83415,25926,-4739,379,-317,241,242,187,108,490,-134,1,0,55,38,80,0,53298,1
2,28181,31093,32965,83416,25942,-4496,482,-305,774,130,145,111,495,-135,1,0,55,38,120,0,53298,1
2,28183,31093,32948,83417,25959,-4309,376,-514,618,91,101,118,490,-140,1,0,55,38,160,0,53298,1
2,28150,31098,32965,83418,25975,-4432,450,-428,237,149,-74,100,494,-114,1,0,55,38,200,0,53298,1
2,28151,31095,32970,83419,25992,-4519,425,-365,3,174,-219,115,495,-131,1,0,55,38,240,0,53298,1
2,28156,31092,32945,83420,26008,-4407,365,-471,-66,143,-262,106,494,-140,1,0,55,38,280,0,53298,1
2,28136,31080,32927,83421,26024,-4424,367,-471,45,123,-221,111,495,-139,1,0,55,38,320,0,53298,1
2,28102,31085,32940,83422,26041,-4464,375,-417,265,102,-165,114,502,-138,1,0,55,38,360,0,53298,1
2,28036,30983,32914,83423,26057,-4419,400,-399,295,173,-133,102,490,-122,1,0,55,38,400,0,53298,1
2,28048,31088,32915,83424,26073,-4423,381,-434,142,278,-104,113,495,-135,1,0,55,38,440,0,53298,1
2,28047,31083,32909,83425,26089,-4436,384,-492,64,331,-96,104,490,-132,1,0,55,38,480,0,53298,1
2,28037,31083,32908,83426,26105,-4444,358,-483,166,306,-128,111,485,-137,1,0,55,38,520,0,53298,1
2,28018,31078,32903,83427,26122,-4431,375,-472,288,311,-206,117,489,-135,1,0,55,38,560,0,53298,1
2,28018,31073,32887,83428,26139,-4434,380,-464,299,371,-301,114,498,-142,1,0,55,38,600,0,53298,1
2,28009,31024,32877,83429,26155,-4429,362,-475,227,469,-389,112,498,-142,1,0,55,38,640,0,53298,1
2,28009,31015,32858,83430,26172,-4424,345,-497,200,599,-488,112,500,-134,1,0,55,38,680,0,53298,1
2,27978,31041,32864,83431,26188,-4453,332,-519,275,711,-543,106,496,-132,1,0,55,38,720,0,53298,1
2,27959,31038,32868,83432,26205,-4434,300,-554,221,718,-443,116,492,-138,1,0,55,38,760,0,53298,1
2,27927,31048,32839,83433,26222,-4445,291,-600,92,611,-319,115,489,-151,1,0,55,38,800,0,53298,1
2,27944,31050,32820,83434,26238,-4469,273,-594,77,401,-190,112,490,-148,1,0,55,38,840,0,53298,1
2,27944,31045,32819,83435,26255,-4447,284,-606,66,140,-48,115,497,-133,1,0,55,38,880,0,53298,1
2,27935,31043,32805,83436,26272,-4430,297,-588,-8,-100,74,116,494,-150,1,0,55,38,920,0,53298,1
2,27939,31039,32794,83437,26288,-4442,300,-558,-23,-240,115,113,497,-149,1,0,55,38,960,0,53298,1
1,27939,31038,32790,83438,0,-4454,313,-532,-68,-257,111,122,492,-150,1,0,55,39,0,1,53298,1
2,27947,31032,32785,83439,25451,-4443,311,-548,-112,-211,108,110,498,-154,1,0,55,39,40,1,53298,1
2,27943,31032,32792,83440,25468,-4451,316,-537,-79,-181,161,115,495,-141,1,0,55,39,80,1,53298,1
2,27948,31030,32806,83441,25486,-4447,308,-559,-145,-193,179,123,481,-147,1,0,55,39,120,1,53298,1
2,27952,31005,32777,83442,25504,-4428,316,-562,-71,-233,182,115,497,-145,1,0,55,39,160,1,53298,1
2,27966,30954,32779,83443,25521,-4448,335,-512,33,-234,151,109,493,-145,1,0,55,39,200,1,53298,1
2,27942,31007,32795,83444,25539,-4441,327,-510,-12,-191,163,113,499,-133,1,0,55,39,240,1,53298,1
2,27892,30993,32791,83445,25557,-4463,341,-530,-61,-142,214,119,499,-141,1,0,55,39,280,1,53298,1
2,27869,31041,32771,83446,25575,-4487,363,-560,-14,-157,200,118,488,-148,1,0,55,39,320,1,53298,1
2,27890,31031,32763,83447,25592,-4480,365,-494,-124,-264,352,113,489,-133,1,0,55,39,360,1,53298,1
2,27756,30960,32542,83448,25610,-4664,389,-441,-791,-503,645,120,488,-144,1,0,55,39,400,1,53298,1
2,27855,30934,32491,83449,25627,-4873,393,-411,-2093,-925,335,109,493,-129,1,0,55,39,440,1,53298,1
2,28285,30931,32457,83450,25646,-4678,260,-520,-3655,-1371,-102,111,497,-145,1,0,55,39,480,1,53298,1
2,28683,30974,32832,83451,25665,-4389,1039,-1483,-4049,-412,242,123,491,-143,1,0,55,39,520,1,53298,1
2,28889,30923,32853,83452,25685,-3818,1072,-1523,-3557,1356,1374,121,499,-137,1,0,55,39,560,1,53298,1
2,28720,35400,32666,83453,25704,-3600,1600,-1469,554,3900,3961,101,503,-155,1,0,55,39,600,1,53298,1
2,28998,30868,32560,83454,25724,-3521,1994,-989,4582,5704,7178,86,504,-170,1,0,55,39,640,1,53298,1
2,29056,30634,32467,83455,25745,-3784,1871,-682,4045,7189,10164,46,500,-174,1,0,55,39,680,1,53298,1
2,28970,31646,32660,83456,25767,-4090,1885,-838,1727,7922,12766,24,484,-202,1,0,55,39,720,1,53298,1
2,29052,35220,32794,83457,25790,-4427,2043,-882,409,7677,14539,-4,470,-218,1,0,55,39,760,1,53298,1
2,29784,34073,32391,83458,25814,-4330,1900,-863,-1338,6927,15129,-25,447,-225,1,0,55,39,800,1,53298,1
2,29930,34586,32378,83459,25838,-4245,1672,-1179,-2828,6072,14626,-43,421,-237,1,0,55,39,840,1,53298,1
2,29815,35241,32465,83460,25863,-3866,1799,-1293,-2125,5206,13357,-64,394,-240,1,0,55,39,880,1,53298,1
2,29725,35077,32441,83461,25888,-3560,1926,-1310,-1660,4992,11990,-76,376,-256,1,0,55,39,920,1,53298,1
2,29688,35370,32510,83462,25912,-3191,2084,-1414,-2555,5040,10804,-81,361,-257,1,0,55,39,960,1,53298,1
1,29698,34807,32395,83463,0,-2983,1980,-1455,-3029,5042,9665,-83,341,-247,1,0,55,40,0,0,53298,1
2,29670,35187,32415,83464,24997,-2946,2028,-1491,-2064,4816,9061,-74,322,-242,1,0,55,40,40,0,53298,1
2,29647,35010,32341,83465,25019,-2576,2304,-1578,-473,4478,7909,-79,309,-255,1,0,55,40,80,0,53298,1
2,29500,35039,32294,83466,25042,-2463,2565,-1349,1565,4113,7209,-82,300,-264,1,0,55,40,120,0,53298,1
2,29166,34574,32189,83467,25065,-2313,2935,-1290,2619,3290,6604,-82,288,-262,1,0,55,40,160,0,53298,1
2,29063,34473,31766,83468,25087,-2031,2957,-1350,185,2892,5580,-84,290,-266,1,0,55,40,200,0,53298,1
2,29021,34561,31827,83469,25109,-1666,2877,-1440,-2524,2764,4637,-81,271,-257,1,0,55,40,240,0,53298,1
2,28740,34253,31537,83470,25130,-1831,2577,-1558,-2053,2490,4724,-75,267,-257,1,0,55,40,280,0,53298,1
2,29085,34561,32058,83471,25151,-1749,3007,-1988,-1036,2611,3753,-78,260,-254,1,0,55,40,320,0,53298,1
2,28533,34313,31555,83472,25171,-1421,2733,-1866,437,2555,3763,-81,263,-249,1,0,55,40,360,0,53298,1
2,28530,34580,31655,83473,25191,-1526,3172,-1841,2792,2277,3755,-63,257,-261,1,0,55,40,400,0,53298,1
2,28406,33625,31363,83474,25209,-627,2089,-1550,1890,1970,3014,-62,256,-268,1,0,55,40,440,0,53298,1
2,28383,34506,31409,83475,25229,-1097,3148,-1369,944,1926,3004,-63,251,-261,1,0,55,40,480,0,53298,1
2,28347,34536,31459,83476,25249,-1180,2742,-1443,-702,1278,2399,-66,246,-254,1,0,55,40,520,0,53298,1
2,28448,34646,31627,83477,25269,-1279,2714,-1484,-975,629,1803,-67,241,-265,1,0,55,40,560,0,53298,1
2,28373,34654,31630,83478,25290,-1159,2634,-1684,-731,69,1023,-68,238,-260,1,0,55,40,600,0,53298,1
2,28424,34640,31630,83479,25310,-1027,2701,-1761,88,-160,523,-57,237,-261,1,0,55,40,640,0,53298,1
2,28385,34610,31598,83480,25330,-1025,2794,-1752,866,-89,545,-59,245,-277,1,0,55,40,680,0,53298,1
2,28288,34517,31428,83481,25349,-872,2783,-1671,221,-36,31,-64,246,-268,1,0,55,40,720,0,53298,1
2,28240,34511,31387,83482,25369,-965,2869,-1718,-482,53,-273,-64,242,-252,1,0,55,40,760,0,53298,1
2,28217,34509,31379,83483,25388,-969,2936,-1734,-319,-92,-520,-63,243,-259,1,0,55,40,800,0,53298,1
2,28216,34505,31379,83484,25408,-1011,2967,-1667,69,-47,-370,-56,236,-260,1,0,55,40,840,0,53298,1
2,28230,34510,31374,83485,25428,-1062,2941,-1547,-80,-108,-511,-66,238,-250,1,0,55,40,880,0,53298,1
2,28223,34507,31372,83486,25448,-988,3105,-1772,-372,-280,-693,-58,254,-262,1,0,55,40,920,0,53298,1
2,28215,34507,31376,83487,25467,-1015,3054,-1695,112,-101,-248,-67,243,-247,1,0,55,40,960,0,53298,1
1,28178,34507,31380,83488,0,-989,3103,-1725,3,-164,-307,-63,241,-267,1,0,55,41,0,1,53298,1
2,28216,34509,31373,83489,24535,-975,3119,-1811,-47,-63,-147,-64,252,-270,1,0,55,41,40,1,53298,1
2,28202,34508,31372,83490,24554,-994,3072,-1732,78,162,155,-68,240,-264,1,0,55,41,80,1,53298,1
2,28211,34508,31372,83491,24573,-1013,3029,-1723,-56,203,144,-77,237,-261,1,0,55,41,120,1,53298,1
2,28158,34510,31377,83492,24591,-1003,3036,-1721,-24,294,300,-67,245,-269,1,0,55,41,160,1,53298,1
2,28150,34505,31373,83493,24610,-1034,2943,-1615,91,391,407,-65,247,-263,1,0,55,41,200,1,53298,1
2,28168,34506,31371,83494,24628,-1026,2907,-1614,-219,232,144,-65,249,-267,1,0,55,41,240,1,53298,1
2,28195,34505,31369,83495,24647,-1047,2863,-1592,-141,158,134,-70,242,-252,1,0,55,41,280,1,53298,1
2,28173,34510,31374,83496,24666,-1045,2876,-1589,-14,13,22,-66,246,-260,1,0,55,41,320,1,53298,1
2,28190,34511,31380,83497,24685,-1002,2940,-1664,-80,-88,-173,-59,243,-269,1,0,55,41,360,1,53298,1
2,28129,34514,31378,83498,24704,-1040,2903,-1627,-58,-113,-254,-60,240,-262,1,0,55,41,400,1,53298,1
2,28148,34510,31377,83499,24722,-1047,2945,-1647,-33,-223,-397,-65,247,-265,1,0,55,41,440,1,53298,1
2,28104,34509,31377,83500,24741,-990,3071,-1743,-91,-179,-419,-75,239,-247,1,0,55,41,480,1,53298,1
2,28125,34508,31376,83501,24760,-1010,3099,-1676,101,18,-142,-66,240,-258,1,0,55,41,520,1,53298,1
2,28125,34513,31400,83502,24778,-1026,3127,-1673,-40,0,-140,-63,247,-259,1,0,55,41,560,1,53298,1
2,28301,34638,31627,83503,24795,-1007,3132,-1726,-7,42,39,-66,250,-268,1,0,55,41,600,1,53298,1
2,28311,34666,31667,83504,24813,-1079,2985,-1607,171,140,298,-65,243,-259,1,0,55,41,640,1,53298,1
2,28309,34664,31691,83505,24831,-1046,2947,-1663,-62,-22,108,-65,245,-253,1,0,55,41,680,1,53298,1
2,28331,34705,31746,83506,24849,-1093,2806,-1649,-99,-22,6,-62,240,-256,1,0,55,41,720,1,53298,1
2,28322,34714,31754,83507,24868,-1135,2750,-1632,89,-168,-346,-61,247,-261,1,0,55,41,760,1,53298,1
2,28269,34640,31683,83508,24885,-1277,2440,-1423,258,-548,-1199,-64,248,-256,1,0,55,41,800,1,53298,1
2,28279,30823,31652,83509,24903,-1491,1748,-909,851,-1894,-2645,-58,244,-264,1,0,55,41,840,1,53298,1
2,28147,34656,31746,83510,24920,-1494,2464,-1300,271,-3008,-4185,-71,251,-265,1,0,55,41,880,1,53298,1
2,28013,34555,31586,83511,24937,-1581,2559,-1424,-740,-3391,-5095,-78,256,-254,1,0,55,41,920,1,53298,1
2,27876,34459,31530,83512,24953,-1790,2596,-1418,-1685,-3737,-6218,-72,268,-254,1,0,55,41,960,1,53298,1
1,27897,34556,31647,83513,0,-1699,3014,-1755,-3142,-3776,-7278,-74,278,-252,1,0,55,42,0,1,53298,1
2,27926,34548,31660,83514,24074,-2006,2731,-1573,-2908,-3322,-7068,-78,292,-244,1,0,55,42,40,1,53298,1
2,28014,30703,31673,83515,24091,-2460,2473,-1386,-1397,-3441,-7327,-83,299,-237,1,0,55,42,80,1,53298,1
2,27995,30709,31651,83516,24107,-2774,2514,-1358,294,-4145,-8504,-79,311,-237,1,0,55,42,120,1,53298,1
2,28073,30709,31636,83517,24124,-2862,2728,-1421,1265,-4522,-9321,-81,325,-237,1,0,55,42,160,1,53298,1
2,28124,30708,31645,83518,24140,-3096,2629,-1213,1753,-4643,-9417,-72,344,-230,1,0,55,42,200,1,53298,1
2,28177,30705,31643,83519,24157,-3361,2682,-1312,524,-4859,-9717,-72,358,-242,1,0,55,42,240,1,53298,1
2,28167,30705,31653,83520,24173,-3344,2444,-1137,-897,-4760,-10068,-55,381,-217,1,0,55,42,280,1,53298,1
2,28177,30715,31675,83521,24188,-3784,1695,-800,-841,-4927,-10087,-42,396,-226,1,0,55,42,320,1,53298,1
2,28200,30725,31704,83522,24204,-3837,2019,-959,-810,-5837,-11089,-26,422,-210,1,0,55,42,360,1,53298,1
2,28148,30717,31701,83523,24220,-3839,1706,-729,-263,-6258,-11611,-16,424,-196,1,0,55,42,400,1,53298,1
2,28221,30729,31760,83524,24237,-3883,1691,-672,750,-6406,-11329,4,452,-182,1,0,55,42,440,1,53298,1
2,28295,30751,31863,83525,24253,-3759,1896,-767,158,-6230,-10830,26,458,-180,1,0,55,42,480,1,53298,1
2,28298,30761,31902,83526,24268,-3725,1720,-689,636,-5696,-9658,43,467,-157,1,0,55,42,520,1,53298,1
2,28248,30769,31914,83527,24285,-3837,1770,-833,-67,-4839,-8288,57,479,-147,1,0,55,42,560,1,53298,1
2,28293,30757,31894,83528,24301,-3951,1788,-820,185,-4099,-6763,73,469,-147,1,0,55,42,600,1,53298,1
2,28192,30761,31896,83529,24318,-4058,1658,-789,539,-3163,-5080,79,481,-143,1,0,55,42,640,1,53298,1
2,28194,30757,31887,83530,24334,-4092,1734,-1085,616,-2230,-3466,93,477,-137,1,0,55,42,680,1,53298,1
2,28195,30720,31820,83531,24351,-3946,1782,-954,1106,65,-1124,85,481,-139,1,0,55,42,720,1,53298,1
2,28050,30374,31875,83532,24367,-4125,982,-707,1730,333,553,79,475,-135,1,0,55,42,760,1,53298,1
2,27999,30434,31968,83533,24384,-4204,537,-372,1297,1121,1186,86,478,-136,1,0,55,42,800,1,53298,1
2,27954,30281,32089,83534,24400,-4509,195,60,2412,912,1061,69,479,-143,1,0,55,42,840,1,53298,1
2,27792,34027,32045,83535,24417,-4894,1192,-265,2291,26,438,78,476,-144,1,0,55,42,880,1,53298,1
2,27912,30793,32117,83536,24434,-4356,844,-443,1187,404,105,71,489,-139,1,0,55,42,920,1,53298,1
2,27901,30556,32066,83537,24452,-4124,784,-425,1683,617,11,64,484,-138,1,0,55,42,960,1,53298,1
1,27892,30808,32044,83538,0,-4245,817,-488,1256,790,115,72,474,-152,1,0,55,43,0,1,53298,1
2,27936,30819,32112,83539,23615,-4395,783,-542,942,873,28,77,479,-155,1,0,55,43,40,1,53298,1
2,27944,30825,32119,83540,23633,-4282,806,-614,1109,821,-280,67,475,-151,1,0,55,43,80,1,53298,1
2,27834,34946,32148,83541,23649,-4244,771,-623,1165,704,-424,74,474,-156,1,0,55,43,120,1,53298,1
2,27882,34950,32155,83542,23667,-4295,760,-607,757,631,-481,76,480,-160,1,0,55,43,160,1,53298,1
2,28020,30868,32221,83543,23684,-4311,768,-623,382,616,-615,69,477,-157,1,0,55,43,200,1,53298,1
2,27958,30835,32134,83544,23701,-4303,733,-610,472,590,-597,84,472,-158,1,0,55,43,240,1,53298,1
2,27954,30860,32213,83545,23718,-4313,689,-661,363,562,-422,87,477,-153,1,0,55,43,280,1,53298,1
2,27954,30863,32267,83546,23736,-4299,698,-671,242,517,-282,71,479,-143,1,0,55,43,320,1,53298,1
2,27915,30841,32146,83547,23754,-4277,732,-677,320,435,-179,82,474,-170,1,0,55,43,360,1,53298,1
2,27929,30838,32183,83548,23772,-4307,707,-685,416,371,-126,78,470,-168,1,0,55,43,400,1,53298,1
2,27936,30854,32208,83549,23789,-4286,723,-681,305,284,-81,76,478,-162,1,0,55,43,440,1,53298,1
2,27952,30854,32200,83550,23805,-4297,708,-718,92,210,-83,76,484,-158,1,0,55,43,480,1,53298,1
2,27971,30864,32238,83551,23823,-4290,701,-705,49,114,-89,76,480,-164,1,0,55,43,520,1,53298,1
2,27966,30858,32213,83552,23840,-4295,697,-706,52,44,-87,83,479,-157,1,0,55,43,560,1,53298,1
2,28041,30902,32363,83553,23856,-4283,705,-701,18,1,-47,72,470,-162,1,0,55,43,600,1,53298,1
2,28044,30904,32305,83554,23872,-4299,697,-684,-19,-9,-23,81,477,-161,1,0,55,43,640,1,53298,1
2,28029,30888,32306,83555,23889,-4293,697,-665,-2,-2,10,74,482,-150,1,0,55,43,680,1,53298,1
2,28027,30896,32355,83556,23906,-4307,691,-696,8,33,5,66,478,-176,1,0,55,43,720,1,53298,1
2,28026,30890,32323,83557,23923,-4301,700,-693,37,47,10,86,478,-166,1,0,55,43,760,1,53298,1
2,28012,30895,32341,83558,23941,-4304,689,-709,13,54,4,79,485,-163,1,0,55,43,800,1,53298,1
2,27952,30856,32214,83559,23957,-4283,702,-709,9,43,-3,70,482,-152,1,0,55,43,840,1,53298,1
2,27935,30857,32202,83560,23974,-4282,701,-700,3,17,-8,81,483,-159,1,0,55,43,880,1,53298,1
2,27917,30864,32212,83561,23991,-4305,688,-705,-34,-4,-17,83,475,-169,1,0,55,43,920,1,53298,1
2,27916,30855,32186,83562,24008,-4307,679,-701,-59,-34,-7,87,477,-159,1,0,55,43,960,1,53298,1
1,27815,30783,31939,83563,0,-4305,698,-689,-74,-57,1,77,487,-163,1,0,55,44,0,1,53298,1
2,27775,30778,31894,83564,23156,-4310,688,-680,-44,-62,16,81,491,-159,1,0,55,44,40,1,53298,1
2,27742,30753,31781,83565,23173,-4294,701,-684,-29,-49,30,80,476,-156,1,0,55,44,80,1,53298,1
2,27691,30742,31775,83566,23190,-4308,699,-682,-25,-28,28,76,480,-152,1,0,55,44,120,1,53298,1
2,27701,30739,31774,83567,23207,-4295,705,-693,-32,-9,28,82,476,-162,1,0,55,44,160,1,53298,1
2,27721,30738,31765,83568,23223,-4303,697,-704,-33,-9,27,82,476,-166,1,0,55,44,200,1,53298,1
2,27700,30736,31760,83569,23241,-4303,687,-684,-18,-20,30,70,474,-158,1,0,55,44,240,1,53298,1
2,27687,30734,31755,83570,23258,-4301,696,-674,-11,-29,22,74,474,-168,1,0,55,44,280,1,53298,1
2,27669,30732,31749,83571,23275,-4301,698,-683,-13,-39,26,79,475,-155,1,0,55,44,320,1,53298,1
2,27671,30730,31737,83572,23293,-4282,712,-689,-47,-37,36,76,484,-160,1,0,55,44,360,1,53298,1
2,27625,30728,31732,83573,23311,-4293,703,-679,-81,-53,45,79,477,-157,1,0,55,44,400,1,53298,1
2,27639,30727,31726,83574,23327,-4300,694,-683,-82,-91,106,80,478,-170,1,0,55,44,440,1,53298,1
2,27659,30729,31740,83575,23344,-4296,703,-710,-148,-147,191,82,474,-162,1,0,55,44,480,1,53298,1
2,27647,30730,31728,83576,23362,-4309,706,-683,-278,-273,272,84,480,-162,1,0,55,44,520,1,53298,1
2,27652,30728,31721,83577,23379,-4312,689,-684,-512,-549,510,80,472,-154,1,0,55,44,560,1,53298,1
2,27617,30718,31688,83578,23397,-4326,685,-685,-949,-914,826,82,472,-142,1,0,55,44,600,1,53298,1
2,27637,30719,31672,83579,23414,-4364,741,-664,-1393,-1318,1005,73,463,-149,1,0,55,44,640,1,53298,1
2,27856,30735,31804,83580,23432,-4446,685,-529,-1399,-1524,872,85,473,-149,1,0,55,44,680,1,53298,1
2,28501,31112,32973,83581,23450,-4412,989,-496,-2109,-1593,631,78,480,-154,1,0,55,44,720,1,53298,1
2,28727,31093,32939,83582,23468,-4319,877,-574,-2729,-1405,612,81,479,-155,1,0,55,44,760,1,53298,1
2,28960,31106,32990,83583,23486,-3838,1680,-1052,-3297,-457,918,71,481,-139,1,0,55,44,800,1,53298,1
2,28945,31050,32794,83584,23505,-3711,1940,-1209,-2267,1552,2618,73,477,-149,1,0,55,44,840,1,53298,1
2,29003,31013,32724,83585,23524,-3553,2231,-1334,-487,3599,4866,65,475,-155,1,0,55,44,880,1,53298,1
2,29102,31015,32738,83586,23543,-3577,2283,-1044,1852,5189,7302,45,467,-171,1,0,55,44,920,1,53298,1
2,29044,31015,32708,83587,23563,-3699,2213,-893,2221,6168,9754,13,463,-175,1,0,55,44,960,1,53298,1
1,29150,30998,32694,83588,0,-3800,2222,-1082,1280,7139,12005,-7,447,-201,1,0,55,45,0,1,53298,1
2,29156,31014,32713,83589,22699,-3820,2445,-1247,709,7979,13568,-31,431,-213,1,0,55,45,40,1,53298,1
2,29038,31013,32708,83590,22719,-4080,2563,-1412,-114,8622,14895,-44,398,-230,1,0,55,45,80,1,53298,1
2,28992,31015,32708,83591,22739,-4266,2173,-1209,-742,8406,15062,-65,375,-233,1,0,55,45,120,1,53298,1
2,28851,30884,32768,83592,22760,-3832,2116,-1274,-1569,7760,13635,-77,349,-247,1,0,55,45,160,1,53298,1
2,28688,35662,32733,83593,22781,-3317,2294,-1340,-2525,7089,11666,-82,334,-252,1,0,55,45,200,1,53298,1
2,28669,35675,32745,83594,22801,-2756,2424,-1309,-3132,6520,10625,-87,311,-245,1,0,55,45,240,1,53298,1
2,28668,35701,32759,83595,22823,-2589,2412,-1310,-1154,5789,10901,-79,295,-251,1,0,55,45,280,1,53298,1
2,28714,30860,32744,83596,22845,-2552,2483,-1142,1456,4960,10428,-78,284,-248,1,0,55,45,320,1,53298,1
2,28586,30949,32725,83597,22866,-2135,2618,-1210,691,4264,8477,-76,268,-256,1,0,55,45,360,1,53298,1
2,28493,30878,32638,83598,22887,-1620,2510,-1320,-662,3603,6842,-65,261,-253,1,0,55,45,400,1,53298,1
2,28420,30905,32586,83599,22908,-1649,2474,-1515,484,3105,6522,-71,253,-257,1,0,55,45,440,1,53298,1
2,28331,30900,32549,83600,22930,-1269,2695,-1690,1300,2937,5913,-65,253,-253,1,0,55,45,480,1,53298,1
2,28330,30908,32565,83601,22950,-1194,2745,-1516,1419,3067,5405,-54,244,-266,1,0,55,45,520,1,53298,1
2,28283,30887,32497,83602,22972,-1178,2793,-1619,337,2716,4047,-63,243,-261,1,0,55,45,560,1,53298,1
2,28215,30874,32480,83603,22993,-968,2705,-1700,-682,2420,3011,-48,240,-270,1,0,55,45,600,1,53298,1
2,28224,30855,32456,83604,23014,-927,2591,-1451,-20,2012,2653,-52,240,-262,1,0,55,45,640,1,53298,1
2,28232,30853,32459,83605,23035,-924,2624,-1485,-50,1514,2048,-56,236,-268,1,0,55,45,680,1,53298,1
2,28261,30854,32455,83606,23055,-868,2632,-1413,-93,971,1211,-54,244,-258,1,0,55,45,720,1,53298,1
2,28143,30850,32435,83607,23076,-763,2624,-1476,-356,464,411,-52,236,-258,1,0,55,45,760,1,53298,1
2,28124,30838,32417,83608,23095,-830,2578,-1407,-44,7,-33,-59,237,-269,1,0,55,45,800,1,53298,1
2,28092,30832,32378,83609,23115,-700,2891,-1691,-23,-488,-691,-52,240,-270,1,0,55,45,840,1,53298,1
2,28082,30825,32352,83610,23135,-724,2973,-1684,318,-329,-586,-53,237,-259,1,0,55,45,880,1,53298,1
2,28053,30804,32279,83611,23155,-755,2992,-1715,-113,-387,-976,-48,236,-258,1,0,55,45,920,1,53298,1
2,28039,30799,32269,83612,23173,-737,3037,-1843,-278,-468,-1163,-57,233,-247,1,0,55,45,960,1,53298,1
1,28138,30805,32274,83613,0,-759,3165,-1715,342,-228,-678,-52,240,-256,1,0,55,46,0,1,53298,1
2,28119,30818,32283,83614,22241,-807,3186,-1675,-276,-135,-719,-58,236,-258,1,0,55,46,40,1,53298,1
2,28091,30823,32326,83615,22260,-806,3142,-1775,-811,-78,-714,-61,239,-259,1,0,55,46,80,1,53298,1
2,28101,30833,32317,83616,22279,-863,3064,-1613,-36,28,-240,-61,239,-265,1,0,55,46,120,1,53298,1
2,28107,30834,32319,83617,22298,-829,3066,-1564,29,-160,-300,-53,233,-247,1,0,55,46,160,1,53298,1
2,28117,30830,32314,83618,22316,-859,2977,-1608,-548,-194,-422,-70,240,-252,1,0,55,46,200,1,53298,1
2,28075,30812,32311,83619,22335,-868,2939,-1576,-395,-166,-319,-62,240,-260,1,0,55,46,240,1,53298,1
2,28111,30815,32340,83620,22354,-887,2930,-1588,-123,-284,-404,-54,244,-258,1,0,55,46,280,1,53298,1
2,28138,30774,32327,83621,22373,-877,2999,-1620,-140,-379,-537,-54,242,-258,1,0,55,46,320,1,53298,1
2,28138,30769,32353,83622,22392,-899,3021,-1639,-179,-303,-493,-56,256,-258,1,0,55,46,360,1,53298,1
2,28149,30787,32380,83623,22410,-922,3004,-1607,-126,-338,-555,-69,237,-247,1,0,55,46,400,1,53298,1
2,28162,30785,32385,83624,22429,-921,3053,-1639,-261,-395,-660,-56,244,-266,1,0,55,46,440,1,53298,1
2,28184,30808,32406,83625,22447,-1017,2894,-1542,-101,-372,-611,-66,244,-248,1,0,55,46,480,1,53298,1
2,28162,30836,32437,83626,22465,-1125,2673,-1313,-16,-785,-1077,-65,245,-261,1,0,55,46,520,1,53298,1
2,28155,30929,32420,83627,22483,-1231,2521,-1318,-157,-1686,-2099,-60,246,-262,1,0,55,46,560,1,53298,1
2,28169,30920,32349,83628,22500,-1193,2577,-1453,419,-2268,-2742,-58,250,-264,1,0,55,46,600,1,53298,1
2,28061,35190,32407,83629,22519,-1478,2385,-1085,1093,-2549,-3149,-65,257,-261,1,0,55,46,640,1,53298,1
2,28201,30924,32409,83630,22537,-1532,2659,-1351,-328,-3574,-4940,-67,269,-245,1,0,55,46,680,1,53298,1
2,28230,30919,32393,83631,22555,-1713,2360,-1407,-1132,-3882,-5854,-66,276,-258,1,0,55,46,720,1,53298,1
2,28282,30931,32417,83632,22572,-2098,2362,-1152,-683,-4446,-7025,-71,265,-253,1,0,55,46,760,1,53298,1
2,28308,30923,32416,83633,22589,-1702,3235,-1659,-1485,-4858,-8215,-78,294,-228,1,0,55,46,800,1,53298,1
2,28295,30927,32445,83634,22607,-2092,2954,-1468,-885,-3808,-6679,-81,303,-241,1,0,55,46,840,1,53298,1
2,28313,30938,32466,83635,22624,-2530,3068,-1299,40,-4188,-6870,-76,300,-242,1,0,55,46,880,1,53298,1
2,28350,30936,32451,83636,22642,-2138,3448,-1544,-773,-4246,-7061,-77,309,-251,1,0,55,46,920,1,53298,1
2,28360,30941,32483,83637,22659,-2745,2649,-1347,-683,-3558,-5671,-75,319,-231,1,0,55,46,960,1,53298,1
1,28410,30944,32441,83638,0,-2921,2613,-1226,-491,-3861,-6448,-79,327,-229,1,0,55,47,0,1,53298,1
2,28489,30964,32538,83639,21781,-3059,2418,-1056,-505,-4070,-7053,-78,350,-228,1,0,55,47,40,1,53298,1
2,28553,30975,32539,83640,21799,-3248,2111,-1167,-2210,-4009,-7931,-56,354,-230,1,0,55,47,80,1,53298,1
2,28443,30935,32411,83641,21815,-3324,2243,-1174,-2773,-3904,-8959,-58,376,-198,1,0,55,47,120,1,53298,1
2,28443,30846,32178,83642,21832,-3721,2465,-872,-2653,-3713,-9319,-39,395,-193,1,0,55,47,160,1,53298,1
2,28583,30883,32287,83643,21849,-3985,1963,-809,-3778,-3514,-10405,-29,401,-191,1,0,55,47,200,1,53298,1
2,28586,30877,32301,83644,21866,-4211,1683,-748,-2793,-3944,-11624,0,422,-186,1,0,55,47,240,1,53298,1
2,28488,30695,32336,83645,21883,-4358,1165,-586,964,-4186,-12272,23,443,-179,1,0,55,47,280,1,53298,1
2,28412,30873,32325,83646,21900,-4398,1152,-518,3360,-4853,-12444,37,455,-181,1,0,55,47,320,1,53298,1
2,28305,30863,32320,83647,21918,-4110,1373,-280,4051,-5387,-12197,51,463,-159,1,0,55,47,360,1,53298,1
2,28254,30858,32324,83648,21936,-3904,1414,-326,1809,-5158,-11540,75,463,-161,1,0,55,47,400,1,53298,1
2,28148,30857,32313,83649,21952,-3843,1126,-382,132,-4704,-10580,97,475,-147,1,0,55,47,440,1,53298,1
2,28205,30902,32357,83650,21969,-3675,2907,-1645,-204,-3419,-8853,120,476,-132,1,0,55,47,480,1,53298,1
2,28488,31053,32926,83651,21987,-3819,3396,-1135,5702,-1901,-4126,117,469,-133,1,0,55,47,520,1,53298,1
2,28067,30883,32458,83652,22004,-3642,2637,-1024,3200,-513,-474,109,477,-123,1,0,55,47,560,1,53298,1
2,28495,31293,33462,83653,22022,-4285,241,-448,161,1099,1177,117,471,-139,1,0,55,47,600,1,53298,1
2,28427,31393,33873,83654,22040,-5068,-740,-17,2063,1033,1219,110,474,-142,1,0,55,47,640,1,53298,1
2,28511,31372,33799,83655,22057,-4974,1134,-397,1440,502,-133,103,481,-133,1,0,55,47,680,1,53298,1
2,28524,31357,33771,83656,22074,-4302,546,-152,2119,45,-5,109,469,-141,1,0,55,47,720,1,53298,1
2,28470,31347,33735,83657,22090,-4229,556,-349,1505,249,68,110,474,-146,1,0,55,47,760,1,53298,1
2,28441,31339,33705,83658,22108,-4575,484,-403,691,451,210,110,482,-140,1,0,55,47,800,1,53298,1
2,28339,31325,33678,83659,22125,-4417,542,-449,949,156,210,100,474,-128,1,0,55,47,840,1,53298,1
2,28270,31311,33633,83660,22141,-4360,543,-418,866,21,117,97,483,-135,1,0,55,47,880,1,53298,1
2,28229,31303,33625,83661,22157,-4386,540,-409,756,-4,79,107,469,-145,1,0,55,47,920,1,53298,1
2,28247,31299,33590,83662,22175,-4409,542,-411,703,-9,57,116,470,-142,1,0,55,47,960,1,53298,1
1,28260,31289,33582,83663,0,-4378,571,-394,492,65,-28,96,480,-132,1,0,55,48,0,1,53298,1
2,28349,31280,33573,83664,21322,-4388,542,-408,340,211,-160,99,479,-147,1,0,55,48,40,1,53298,1
2,28285,31288,33574,83665,21339,-4408,528,-408,473,376,-323,102,472,-136,1,0,55,48,80,1,53298,1
2,28293,31281,33566,83666,21355,-4396,523,-418,582,549,-438,106,474,-148,1,0,55,48,120,1,53298,1
2,28295,31285,33551,83667,21373,-4408,509,-439,491,698,-500,106,488,-150,1,0,55,48,160,1,53298,1
2,28212,31277,33533,83668,21390,-4407,473,-494,314,745,-479,107,483,-143,1,0,55,48,200,1,53298,1
2,28256,31276,33535,83669,21407,-4396,467,-532,182,632,-354,106,476,-152,1,0,55,48,240,1,53298,1
2,28208,31269,33515,83670,21424,-4398,459,-567,79,373,-184,105,477,-161,1,0,55,48,280,1,53298,1
2,28232,31271,33522,83671,21442,-4399,451,-566,-14,38,-25,108,484,-152,1,0,55,48,320,1,53298,1
2,28250,31268,33520,83672,21458,-4402,463,-540,-107,-277,80,96,476,-146,1,0,55,48,360,1,53298,1
2,28201,31257,33475,83673,21476,-4414,466,-492,-145,-465,128,115,475,-143,1,0,55,48,400,1,53298,1
2,28177,31255,33488,83674,21494,-4400,507,-458,-141,-485,138,110,474,-150,1,0,55,48,440,1,53298,1
2,28179,31269,33511,83675,21511,-4386,496,-452,-189,-365,105,105,477,-135,1,0,55,48,480,1,53298,1
2,28225,31280,33507,83676,21529,-4402,493,-441,-174,-214,62,116,474,-154,1,0,55,48,520,1,53298,1
2,28208,31280,33495,83677,21547,-4414,478,-462,-136,-114,34,110,476,-144,1,0,55,48,560,1,53298,1
2,28134,31271,33500,83678,21564,-4401,480,-471,-130,-80,40,109,479,-149,1,0,55,48,600,1,53298,1
2,28137,31260,33495,83679,21581,-4399,494,-449,-133,-126,54,102,472,-144,1,0,55,48,640,1,53298,1
2,28105,31255,33480,83680,21598,-4405,471,-459,-149,-195,67,101,481,-143,1,0,55,48,680,1,53298,1
2,28162,31249,33481,83681,21616,-4401,487,-455,-120,-251,100,104,472,-132,1,0,55,48,720,1,53298,1
2,28083,31254,33472,83682,21634,-4411,491,-445,-106,-283,131,105,479,-145,1,0,55,48,760,1,53298,1
2,28065,31233,33415,83683,21650,-4412,511,-418,-194,-295,176,112,474,-144,1,0,55,48,800,1,53298,1
2,28183,31234,33419,83684,21666,-4387,500,-445,-313,-362,248,101,483,-133,1,0,55,48,840,1,53298,1
2,28228,31225,33396,83685,21683,-4418,500,-423,-337,-464,336,107,477,-147,1,0,55,48,880,1,53298,1
2,28212,31209,33351,83686,21699,-4435,540,-397,-350,-647,512,102,476,-142,1,0,55,48,920,1,53298,1
2,28091,31099,32998,83687,21715,-4498,505,-299,-543,-997,922,98,474,-126,1,0,55,48,960,1,53298,1
1,28181,31134,33093,83688,0,-4505,689,-208,-484,-1128,1110,106,474,-138,1,0,55,49,0,0,53298,1
2,28168,31117,33080,83689,20864,-4636,389,-53,-1778,-1434,985,96,472,-122,1,0,55,49,40,0,53298,1
2,28389,31113,33211,83690,20883,-4781,760,-121,-2604,-2241,1215,106,474,-128,1,0,55,49,80,0,53298,1
2,28477,31320,33238,83691,20901,-4151,532,-781,-7344,-1189,204,111,473,-127,1,0,55,49,120,0,53298,1
2,28606,34990,33344,83692,20920,-3917,1442,-535,-6562,-681,270,112,466,-130,1,0,55,49,160,0,53298,1
2,28651,36342,33432,83693,20941,-3875,1791,-354,-4689,226,2150,116,474,-130,1,0,55,49,200,0,53298,1
2,28797,36437,33548,83694,20962,-3971,1872,-280,-1836,775,4701,103,469,-121,1,0,55,49,240,0,53298,1
2,28922,35884,33209,83695,20983,-4101,1767,-226,-1279,1536,6677,88,466,-142,1,0,55,49,280,0,53298,1
2,28973,33693,32881,83696,21006,-4121,1474,-310,-1988,2307,7906,70,464,-140,1,0,55,49,320,0,53298,1
2,29910,34985,32971,83697,21028,-4089,1187,-275,-1617,2767,8843,51,455,-147,1,0,55,49,360,0,53298,1
2,30215,33862,32600,83698,21051,-4098,1132,-366,-1160,2919,9513,41,445,-159,1,0,55,49,400,0,53298,1
2,30790,34512,32192,83699,21075,-4124,1103,-457,-924,3177,9041,19,449,-155,1,0,55,49,440,0,53298,1
2,31332,34515,32045,83700,21099,-4169,1231,-422,-432,3371,7844,11,429,-159,1,0,55,49,480,0,53298,1
2,31323,34200,31930,83701,21123,-3818,1525,-425,442,3297,6480,-4,426,-160,1,0,55,49,520,0,53298,1
2,31569,35115,32100,83702,21147,-3507,2051,-329,1664,3247,5904,-13,425,-173,1,0,55,49,560,0,53298,1
2,31586,35230,32110,83703,21171,-3511,2302,-262,1917,3213,6390,-24,412,-184,1,0,55,49,600,0,53298,1
2,31448,35105,32103,83704,21195,-3530,2347,-419,974,3133,6773,-37,399,-189,1,0,55,49,640,0,53298,1
2,31070,35071,32004,83705,21219,-3507,2295,-542,516,2921,6735,-52,400,-194,1,0,55,49,680,0,53298,1
2,31154,35018,31984,83706,21244,-3265,2485,-689,593,2685,6702,-56,388,-182,1,0,55,49,720,0,53298,1
2,31182,34920,31978,83707,21268,-3017,2611,-922,705,2890,6738,-60,374,-192,1,0,55,49,760,0,53298,1
2,31139,34809,31928,83708,21291,-2920,2733,-996,1176,3457,7294,-70,360,-198,1,0,55,49,800,0,53298,1
2,31155,34784,31909,83709,21314,-2874,2738,-1056,1307,3926,7824,-76,348,-198,1,0,55,49,840,0,53298,1
2,31005,34394,31843,83710,21336,-2736,2732,-970,1679,3977,7917,-84,338,-220,1,0,55,49,880,0,53298,1
2,31021,34585,31904,83711,21359,-2723,2819,-1114,1996,3870,7827,-88,318,-206,1,0,55,49,920,0,53298,1
2,30842,34501,32012,83712,21382,-2633,2740,-978,3326,3526,7823,-92,308,-242,1,0,55,49,960,0,53298,1
1,30455,34247,31837,83713,0,-2246,2869,-1033,3451,3436,7341,-75,299,-235,1,0,55,50,0,1,53298,1
2,30481,34358,31925,83714,20412,-2256,2941,-1112,2549,3461,6991,-95,289,-243,1,0,55,50,40,1,53298,1
2,30513,34466,32037,83715,20435,-2011,2938,-1162,1462,3447,6628,-83,281,-241,1,0,55,50,80,1,53298,1
2,30401,34270,31973,83716,20457,-2013,2723,-1068,779,3272,5974,-83,271,-245,1,0,55,50,120,1,53298,1
2,30573,34176,32031,83717,20479,-1658,2879,-1500,763,2612,5390,-74,264,-250,1,0,55,50,160,1,53298,1
2,30666,33912,32029,83718,20501,-1482,2813,-1368,1216,2655,5301,-69,255,-249,1,0,55,50,200,1,53298,1
2,30637,33758,31990,83719,20524,-1590,2797,-1434,1858,2390,5138,-71,249,-251,1,0,55,50,240,1,53298,1
2,30700,33535,31978,83720,20546,-1314,2950,-1583,1498,2237,4455,-67,241,-257,1,0,55,50,280,1,53298,1
2,30729,33774,31949,83721,20568,-1162,2790,-1402,323,2345,3786,-65,241,-251,1,0,55,50,320,1,53298,1
2,30751,33756,31951,83722,20590,-1304,2621,-1430,-119,1887,3064,-70,240,-248,1,0,55,50,360,1,53298,1
2,30781,33678,31947,83723,20611,-1086,2655,-1583,-121,1350,2170,-69,239,-255,1,0,55,50,400,1,53298,1
2,30771,33497,31932,83724,20633,-1022,2629,-1441,-39,1191,1591,-66,236,-238,1,0,55,50,440,1,53298,1
2,30795,33793,31940,83725,20653,-1045,2590,-1410,-319,799,851,-66,230,-244,1,0,55,50,480,1,53298,1
2,30826,34058,31954,83726,20674,-946,2789,-1491,-227,421,244,-63,229,-251,1,0,55,50,520,1,53298,1
2,30692,33840,31855,83727,20695,-981,2742,-1300,-282,239,-199,-59,235,-259,1,0,55,50,560,1,53298,1
2,30740,33927,31825,83728,20715,-843,2997,-1594,-611,-161,-762,-56,242,-250,1,0,55,50,600,1,53298,1
2,30888,33900,31960,83729,20735,-969,3035,-1428,33,-34,-497,-72,240,-240,1,0,55,50,640,1,53298,1
2,30924,33914,31967,83730,20755,-855,3212,-1569,-614,-213,-883,-64,242,-250,1,0,55,50,680,1,53298,1
2,30923,33787,31975,83731,20776,-920,3237,-1663,-476,-67,-510,-65,229,-247,1,0,55,50,720,1,53298,1
2,30943,33795,31980,83732,20795,-962,3103,-1460,51,-74,-258,-59,241,-249,1,0,55,50,760,1,53298,1
2,30969,33834,31975,83733,20814,-929,3185,-1661,-396,-177,-373,-58,248,-252,1,0,55,50,800,1,53298,1
2,30947,33892,31973,83734,20834,-988,3021,-1518,-70,57,-9,-68,246,-242,1,0,55,50,840,1,53298,1
2,30940,33782,31976,83735,20854,-986,2989,-1507,-73,-23,-85,-65,247,-251,1,0,55,50,880,1,53298,1
2,30965,33872,31976,83736,20874,-915,3061,-1580,-304,-2,-208,-64,248,-250,1,0,55,50,920,1,53298,1
2,30978,33769,31983,83737,20894,-971,2977,-1485,-195,138,-68,-62,240,-246,1,0,55,50,960,1,53298,1
1,30983,33691,31977,83738,0,-956,3007,-1489,-156,28,-221,-63,243,-239,1,0,55,51,0,0,53298,1
2,30946,33776,31973,83739,19952,-953,3066,-1558,-140,27,-271,-63,237,-243,1,0,55,51,40,0,53298,1
2,30968,33743,31957,83740,19972,-995,3044,-1463,1,118,-141,-69,239,-253,1,0,55,51,80,0,53298,1
2,30931,33887,31957,83741,19992,-993,3103,-1545,-183,65,-276,-64,242,-248,1,0,55,51,120,0,53298,1
2,30938,33970,31963,83742,20012,-1003,3063,-1498,-69,112,-152,-60,246,-246,1,0,55,51,160,0,53298,1
2,30963,34109,31974,83743,20033,-1006,3054,-1448,-32,45,-172,-69,249,-251,1,0,55,51,200,0,53298,1
2,30935,34232,31981,83744,20053,-987,3054,-1493,-143,-29,-261,-62,244,-246,1,0,55,51,240,0,53298,1
2,30973,34248,31990,83745,20073,-1002,3035,-1493,-68,0,-180,-70,244,-244,1,0,55,51,280,0,53298,1
2,30980,34267,31993,83746,20091,-1033,3029,-1465,4,-18,-188,-67,231,-251,1,0,55,51,320,0,53298,1
2,30999,34287,31994,83747,20111,-1007,3042,-1491,-130,-32,-264,-67,239,-247,1,0,55,51,360,0,53298,1
2,30999,34274,31999,83748,20130,-1024,3020,-1450,-42,-63,-248,-62,250,-244,1,0,55,51,400,0,53298,1
2,31023,34303,32006,83749,20149,-1023,3076,-1496,-98,-81,-288,-62,246,-248,1,0,55,51,440,0,53298,1
2,31039,34246,32010,83750,20167,-1068,3023,-1420,-79,-52,-267,-64,246,-244,1,0,55,51,480,0,53298,1
2,31056,34232,32013,83751,20186,-1091,3010,-1420,-220,-141,-403,-63,243,-239,1,0,55,51,520,0,53298,1
2,31082,34186,31993,83752,20205,-1133,2913,-1357,-274,-281,-585,-66,244,-238,1,0,55,51,560,0,53298,1
2,31068,34146,32005,83753,20225,-1276,2688,-1186,-404,-536,-990,-61,243,-247,1,0,55,51,600,0,53298,1
2,31060,34132,32001,83754,20244,-1424,2448,-1017,-879,-1271,-2072,-64,250,-248,1,0,55,51,640,0,53298,1
2,31036,34095,31997,83755,20262,-1474,2441,-918,-1375,-2180,-3480,-66,254,-234,1,0,55,51,680,0,53298,1
2,31045,33965,32012,83756,20281,-1639,2478,-951,-2286,-2689,-4678,-68,256,-230,1,0,55,51,720,0,53298,1
2,31046,33995,32002,83757,20298,-1932,2484,-926,-3123,-3432,-6394,-82,266,-212,1,0,55,51,760,0,53298,1
2,31162,34263,32031,83758,20316,-1568,3239,-1374,-3699,-3903,-7773,-87,271,-227,1,0,55,51,800,0,53298,1
2,31232,34489,32075,83759,20334,-1738,3330,-1351,-3333,-3015,-6697,-76,276,-222,1,0,55,51,840,0,53298,1
2,31232,34530,32082,83760,20351,-2177,3417,-1174,-2747,-2809,-6579,-81,289,-199,1,0,55,51,880,0,53298,1
2,31171,34426,32030,83761,20369,-2148,3073,-1168,-3128,-2798,-7122,-74,296,-204,1,0,55,51,920,0,53298,1
2,31196,34578,32093,83762,20387,-2648,2259,-1060,-2743,-2610,-6912,-80,302,-200,1,0,55,51,960,0,53298,1
1,31207,34610,32098,83763,0,-3249,2095,-753,-278,-2999,-8087,-67,327,-201,1,0,55,52,0,1,53298,1
2,31177,34676,32189,83764,19492,-3229,2345,-684,2928,-4303,-9837,-77,345,-205,1,0,55,52,40,1,53298,1
2,31310,33755,32137,83765,19509,-3218,2538,-712,2880,-4768,-10729,-63,359,-187,1,0,55,52,80,1,53298,1
2,31311,34968,32321,83766,19526,-3439,2365,-634,746,-4658,-11079,-48,380,-184,1,0,55,52,120,1,53298,1
2,31315,35004,32309,83767,19543,-3554,2266,-530,-1056,-4685,-11365,-33,401,-183,1,0,55,52,160,1,53298,1
2,31363,30275,32252,83768,19561,-3871,1879,-135,-936,-5571,-11501,-13,411,-171,1,0,55,52,200,1,53298,1
2,31262,31367,32128,83769,19578,-4125,1869,-492,-1544,-5748,-11860,13,425,-167,1,0,55,52,240,1,53298,1
2,31410,35101,32429,83770,19595,-4145,1794,-411,-161,-5999,-12096,23,437,-151,1,0,55,52,280,1,53298,1
2,31514,30489,32410,83771,19612,-4184,1483,126,2489,-6606,-11490,43,439,-147,1,0,55,52,320,1,53298,1
2,31535,30645,32412,83772,19629,-4181,1486,57,2381,-6922,-11058,73,449,-149,1,0,55,52,360,1,53298,1
2,31430,32347,32292,83773,19646,-4113,1533,17,544,-6690,-10605,94,460,-130,1,0,55,52,400,1,53298,1
2,31328,34733,32268,83774,19663,-3632,2174,-1183,-294,-5982,-9887,109,469,-115,1,0,55,52,440,1,53298,1
2,31514,30490,32477,83775,19680,-3759,3106,-1600,772,-2033,-6317,125,451,-121,1,0,55,52,480,1,53298,1
2,31583,32214,32574,83776,19697,-3782,3545,-1467,5334,-814,-1107,111,457,-109,1,0,55,52,520,1,53298,1
2,31635,35554,32912,83777,19714,-4310,136,-511,2787,1028,464,119,453,-121,1,0,55,52,560,1,53298,1
2,31599,34910,32947,83778,19731,-4989,-293,505,54,2479,-1096,108,460,-124,1,0,55,52,600,1,53298,1
2,31400,35301,32625,83779,19748,-4860,1015,120,1386,990,-1834,117,467,-125,1,0,55,52,640,1,53298,1
2,31496,30928,32530,83780,19765,-4307,596,-809,1041,2052,-1467,109,467,-121,1,0,55,52,680,1,53298,1
2,31335,30883,32426,83781,19782,-4040,193,-359,6283,2381,-1075,103,475,-127,1,0,55,52,720,1,53298,1
2,31303,30877,32413,83782,19798,-3938,509,220,7852,2570,-776,101,477,-133,1,0,55,52,760,1,53298,1
2,31309,30884,32460,83783,19815,-4105,1090,809,6514,1454,-206,92,464,-138,1,0,55,52,800,1,53298,1
2,31245,30895,32474,83784,19832,-4620,1205,198,2391,364,535,89,487,-141,1,0,55,52,840,1,53298,1
2,31059,35090,32448,83785,19848,-4897,452,-769,-446,739,726,103,475,-131,1,0,55,52,880,1,53298,1
2,31145,30880,32409,83786,19864,-4315,378,-655,20,723,141,91,477,-147,1,0,55,52,920,1,53298,1
2,31016,30812,32242,83787,19881,-4788,899,-771,-833,658,-1047,92,480,-138,1,0,55,52,960,1,53298,1
1,30987,30773,32192,83788,0,-4532,321,-493,-135,449,-1423,102,472,-148,1,0,55,53,0,1,53298,1
2,30914,30745,32124,83789,19034,-4318,758,-240,97,549,-884,97,477,-133,1,0,55,53,40,1,53298,1
2,30927,30636,32118,83790,19051,-4304,268,-790,-1082,862,-836,109,489,-151,1,0,55,53,80,1,53298,1
2,30924,30632,32154,83791,19069,-4333,253,-357,4,993,-763,97,485,-151,1,0,55,53,120,1,53298,1
2,30930,30255,32120,83792,19086,-4365,573,-296,-80,880,-727,101,487,-155,1,0,55,53,160,1,53298,1
2,30910,30643,32076,83793,19102,-4418,534,-302,-658,591,-583,102,486,-152,1,0,55,53,200,1,53298,1
2,30828,30358,32034,83794,19118,-4302,565,-249,-1084,281,-302,107,477,-155,1,0,55,53,240,1,53298,1
2,30878,30275,32079,83795,19135,-4300,418,-429,-1803,53,-161,108,480,-146,1,0,55,53,280,1,53298,1
2,30883,30481,32094,83796,19151,-4298,200,-569,-1864,143,-112,108,476,-152,1,0,55,53,320,1,53298,1
2,30905,30142,32102,83797,19167,-4553,456,-782,-1002,311,-73,107,489,-145,1,0,55,53,360,1,53298,1
2,30911,30140,32107,83798,19184,-4580,429,-491,155,262,-144,105,471,-149,1,0,55,53,400,1,53298,1
2,30915,30055,32102,83799,19200,-4331,432,-404,847,54,56,112,482,-158,1,0,55,53,440,1,53298,1
2,31077,30145,32122,83800,19216,-4384,394,-539,387,59,97,112,480,-160,1,0,55,53,480,1,53298,1
2,31004,30479,32165,83801,19231,-4494,466,-492,221,41,71,103,479,-151,1,0,55,53,520,1,53298,1
2,31049,30570,32160,83802,19248,-4455,524,-453,362,-56,107,106,478,-144,1,0,55,53,560,1,53298,1
2,31001,30265,32144,83803,19265,-4482,396,-575,360,-99,98,105,477,-143,1,0,55,53,600,1,53298,1
2,31017,30757,32161,83804,19281,-4415,464,-615,1052,-160,258,104,486,-148,1,0,55,53,640,1,53298,1
2,30986,30494,32134,83805,19297,-4416,548,-623,1915,-112,331,109,475,-159,1,0,55,53,680,1,53298,1
2,30932,30131,32073,83806,19313,-4408,471,-559,3262,21,811,95,481,-151,1,0,55,53,720,1,53298,1
2,31001,30711,32138,83807,19329,-4289,338,-403,3338,288,842,93,477,-151,1,0,55,53,760,1,53298,1
2,30961,30542,32117,83808,19345,-4355,422,-401,2718,220,642,93,479,-163,1,0,55,53,800,1,53298,1
2,30932,30357,32108,83809,19362,-4553,268,-1012,1576,324,366,91,489,-159,1,0,55,53,840,1,53298,1
2,30833,30070,32049,83810,19379,-4319,82,-1197,4806,790,612,96,482,-172,1,0,55,53,880,1,53298,1
2,30912,30623,32108,83811,19396,-4118,-92,-1761,9134,1531,992,71,493,-167,1,0,55,53,920,1,53298,1
2,31000,30463,32165,83812,19413,-3376,617,-1962,16101,3204,852,60,494,-186,1,0,55,53,960,1,53298,1
1,31016,34076,32230,83813,0,-4393,1777,-1269,16488,4472,2085,44,502,-206,1,0,55,54,0,0,53298,1
2,30946,34973,32398,83814,18578,-4382,1142,-1763,10621,5566,2509,28,508,-226,1,0,55,54,40,0,53298,1
2,30749,34962,32360,83815,18599,-4087,1750,-1560,9781,5881,3944,27,503,-249,1,0,55,54,80,0,53298,1
2,30715,30443,32352,83816,18619,-3446,1857,-2011,4388,6980,4992,-4,496,-272,1,0,55,54,120,0,53298,1
2,30976,34989,32159,83817,18640,-3518,1468,-3142,-3500,10253,6552,-15,481,-297,1,0,55,54,160,0,53298,1
2,30941,30488,32190,83818,18662,-3833,2123,-2198,-1012,12015,9016,-29,465,-321,1,0,55,54,200,0,53298,1
2,30899,30891,32197,83819,18684,-3983,1979,-2346,-1928,12495,10914,-43,431,-333,1,0,55,54,240,0,53298,1
2,30786,31506,32151,83820,18707,-3893,2026,-2361,-2625,11797,12943,-58,400,-348,1,0,55,54,280,0,53298,1
2,30677,30804,32135,83821,18729,-3930,2262,-2473,-5595,12037,14493,-72,362,-354,1,0,55,54,320,0,53298,1
2,30751,30640,32114,83822,18751,-4338,1559,-2714,-8239,11496,15380,-72,326,-350,1,0,55,54,360,0,53298,1
2,30655,30490,32071,83823,18772,-3879,943,-2836,-4488,8987,14229,-82,304,-354,1,0,55,54,400,0,53298,1
2,30723,30451,32042,83824,18794,-2909,1396,-2741,1691,6966,11524,-75,281,-353,1,0,55,54,440,0,53298,1
2,30870,30470,32109,83825,18815,-2393,1542,-2717,3809,6765,9394,-71,271,-363,1,0,55,54,480,0,53298,1
2,30828,30503,31993,83826,18839,-2176,1570,-2272,5662,5705,8879,-58,250,-368,1,0,55,54,520,0,53298,1
2,30580,30720,31940,83827,18861,-1896,1621,-2081,3360,5154,6887,-64,244,-372,1,0,55,54,560,0,53298,1
2,30720,30610,32035,83828,18884,-1507,1151,-2688,-15,4390,4979,-56,240,-368,1,0,55,54,600,0,53298,1
2,30677,30327,32057,83829,18907,-1472,1357,-2380,3823,3203,4541,-41,233,-365,1,0,55,54,640,0,53298,1
2,30761,30337,32150,83830,18930,-1313,1641,-2303,2905,2396,2821,-40,230,-376,1,0,55,54,680,0,53298,1
2,30662,30248,32036,83831,18953,-1065,1500,-2890,-244,1857,1543,-52,236,-372,1,0,55,54,720,0,53298,1
2,30667,30242,32036,83832,18977,-1147,1616,-2465,1463,1308,1281,-41,227,-373,1,0,55,54,760,0,53298,1
2,30680,30215,32046,83833,19000,-1104,1742,-2760,-264,639,91,-54,232,-370,1,0,55,54,800,0,53298,1
2,30737,30187,32054,83834,19023,-1060,1814,-2937,-768,326,-212,-53,227,-369,1,0,55,54,840,0,53298,1
2,30810,30226,32108,83835,19047,-1096,1865,-2934,-809,225,-504,-49,223,-375,1,0,55,54,880,0,53298,1
2,30873,30247,32151,83836,19070,-1056,2016,-3162,-652,-109,-724,-53,231,-375,1,0,55,54,920,0,53298,1
2,30921,30266,32180,83837,19093,-1003,2240,-3140,-68,-65,-664,-45,233,-365,1,0,55,54,960,0,53298,1
1,30903,30268,32204,83838,0,-983,2122,-3221,-738,222,-487,-47,235,-371,1,0,55,55,0,0,53298,1
2,30717,30122,32136,83839,18122,-995,2270,-3104,283,112,-100,-51,237,-379,1,0,55,55,40,0,53298,1
2,30620,30078,31933,83840,18145,-1012,2057,-3053,-257,403,-129,-47,239,-367,1,0,55,55,80,0,53298,1
2,30580,30067,31924,83841,18167,-1003,2044,-2908,465,261,138,-49,235,-375,1,0,55,55,120,0,53298,1
2,30627,30065,31920,83842,18190,-1041,2125,-2802,1539,-106,279,-54,234,-358,1,0,55,55,160,0,53298,1
2,30610,30064,31923,83843,18213,-1038,1808,-2998,358,-103,243,-46,234,-374,1,0,55,55,200,0,53298,1
2,30622,30060,31925,83844,18236,-1038,1949,-2898,1338,-369,251,-50,232,-372,1,0,55,55,240,0,53298,1
2,30744,30075,31928,83845,18258,-1055,1890,-3120,101,-186,-10,-46,238,-370,1,0,55,55,280,0,53298,1
2,30765,30086,31938,83846,18280,-1004,1940,-3166,-154,51,14,-47,235,-375,1,0,55,55,320,0,53298,1
2,30912,30157,32028,83847,18301,-991,1957,-3283,-90,72,-51,-51,231,-367,1,0,55,55,360,0,53298,1
2,31034,30209,32155,83848,18323,-995,2008,-3222,683,-33,133,-50,228,-380,1,0,55,55,400,0,53298,1
2,31061,30204,32153,83849,18345,-1028,1969,-3119,595,154,156,-47,235,-373,1,0,55,55,440,0,53298,1
2,31110,30205,32155,83850,18367,-1025,1972,-3073,422,232,120,-41,227,-371,1,0,55,55,480,0,53298,1
2,31160,30210,32190,83851,18389,-1046,1864,-3040,-120,337,91,-50,228,-370,1,0,55,55,520,0,53298,1
2,31149,30213,32183,83852,18410,-1004,1865,-3047,-98,263,15,-48,230,-378,1,0,55,55,560,0,53298,1
2,31136,30204,32171,83853,18431,-1013,1856,-3055,-549,337,-111,-40,226,-380,1,0,55,55,600,0,53298,1
2,31158,30205,32170,83854,18452,-992,1794,-3178,-841,307,-250,-54,230,-374,1,0,55,55,640,0,53298,1
2,31155,30198,32153,83855,18473,-980,1947,-3083,163,148,-77,-57,235,-377,1,0,55,55,680,0,53298,1
2,31120,30192,32150,83856,18494,-997,1961,-3026,-268,161,-280,-43,231,-365,1,0,55,55,720,0,53298,1
2,31146,30195,32149,83857,18515,-1019,1865,-3096,-250,94,-251,-34,224,-376,1,0,55,55,760,0,53298,1
2,31146,30200,32153,83858,18535,-1015,2006,-3003,529,-74,-129,-47,239,-377,1,0,55,55,800,0,53298,1
2,31157,30195,32150,83859,18556,-1030,1924,-3110,-394,49,-249,-39,233,-375,1,0,55,55,840,0,53298,1
2,31146,30187,32142,83860,18575,-1030,1962,-3011,209,-105,-173,-43,229,-379,1,0,55,55,880,0,53298,1
2,31150,30189,32144,83861,18596,-1045,1906,-3069,-287,-48,-291,-48,234,-366,1,0,55,55,920,0,53298,1
2,31109,30179,32122,83862,18616,-1045,1856,-3031,-14,-209,-315,-53,231,-373,1,0,55,55,960,0,53298,1
1,31111,30180,32112,83863,0,-1056,2008,-2972,105,-272,-384,-48,222,-370,1,0,55,56,0,1,53298,1
2,31110,30180,32103,83864,17663,-1146,1821,-2911,-765,-121,-608,-48,238,-374,1,0,55,56,40,1,53298,1
2,31130,30174,32091,83865,17682,-1099,1730,-2833,-895,-275,-1075,-44,238,-362,1,0,55,56,80,1,53298,1
2,31209,30186,32122,83866,17701,-1254,1662,-2756,-1530,-694,-1514,-55,233,-365,1,0,55,56,120,1,53298,1
2,31214,30190,32133,83867,17720,-1324,1878,-2828,-1033,-1252,-2037,-50,240,-368,1,0,55,56,160,1,53298,1
2,31218,30183,32098,83868,17738,-1411,1768,-2466,-2232,-1357,-3059,-62,244,-358,1,0,55,56,200,1,53298,1
2,31230,30193,32099,83869,17755,-1557,2007,-2385,-7042,-1509,-4569,-56,258,-344,1,0,55,56,240,1,53298,1
2,31232,30197,32092,83870,17772,-1721,1356,-2685,-11299,-1955,-6285,-67,255,-337,1,0,55,56,280,1,53298,1
2,31130,30183,32065,83871,17789,-2221,1452,-2456,-8360,-3264,-7771,-83,275,-331,1,0,55,56,320,1,53298,1
2,31050,30137,31991,83872,17808,-2027,2007,-2403,-6082,-4120,-9102,-71,295,-329,1,0,55,56,360,1,53298,1
2,30941,30132,31990,83873,17825,-2297,1613,-2628,-4961,-3846,-9722,-72,306,-320,1,0,55,56,400,1,53298,1
2,31035,30129,32017,83874,17842,-2826,2097,-2213,3285,-4819,-9534,-82,324,-324,1,0,55,56,440,1,53298,1
2,31120,30353,32039,83875,17859,-3022,2075,-2253,7797,-6135,-9575,-81,353,-353,1,0,55,56,480,1,53298,1
2,31124,30207,32061,83876,17877,-3222,2125,-2372,8619,-6795,-10038,-68,378,-344,1,0,55,56,520,1,53298,1
2,31176,30322,32099,83877,17894,-3474,2103,-2160,9128,-7440,-9664,-64,404,-350,1,0,55,56,560,1,53298,1
2,31104,30826,32068,83878,17912,-3577,2017,-2198,7427,-8239,-9056,-56,414,-338,1,0,55,56,600,1,53298,1
2,31094,30510,32056,83879,17930,-3325,1925,-2482,4550,-8662,-8874,-49,441,-345,1,0,55,56,640,1,53298,1
2,31093,30320,32059,83880,17947,-3727,1364,-2171,3377,-8525,-8044,-25,451,-333,1,0,55,56,680,1,53298,1
2,31194,30237,32084,83881,17964,-3761,1158,-2097,2663,-9152,-7739,-21,471,-315,1,0,55,56,720,1,53298,1
2,31172,30154,32048,83882,17980,-3611,856,-2276,402,-8488,-7442,6,480,-282,1,0,55,56,760,1,53298,1
2,31067,32035,31991,83883,17997,-3544,818,-2365,369,-7409,-6474,8,494,-272,1,0,55,56,800,1,53298,1
2,31257,30945,32126,83884,18014,-3715,356,-2216,1137,-5960,-5423,18,494,-250,1,0,55,56,840,1,53298,1
2,31317,30791,32165,83885,18031,-3996,595,-1931,3259,-4889,-4325,20,500,-252,1,0,55,56,880,1,53298,1
2,31180,30785,32145,83886,18049,-3956,1106,-3011,-1173,-1757,-3030,29,513,-241,1,0,55,56,920,1,53298,1
2,31062,30780,32110,83887,18065,-3878,1808,-2971,3802,-1248,-945,27,513,-247,1,0,55,56,960,1,53298,1
1,31066,30325,32080,83888,0,-4403,147,-1526,2342,465,-104,26,504,-242,1,0,55,57,0,0,53298,1
2,31091,30660,32141,83889,17205,-4346,-49,-1143,3023,151,-411,21,511,-261,1,0,55,57,40,0,53298,1
2,31079,34701,32163,83890,17222,-4174,74,-1410,2559,-208,-911,32,512,-264,1,0,55,57,80,0,53298,1
2,31052,34699,32156,83891,17239,-3997,660,-1842,3805,-440,-503,33,521,-255,1,0,55,57,120,0,53298,1
2,31087,34676,32146,83892,17256,-4043,199,-1951,2361,570,-31,25,519,-251,1,0,55,57,160,0,53298,1
2,31060,34672,32150,83893,17275,-4352,-357,-1802,3261,714,-134,23,513,-261,1,0,55,57,200,0,53298,1
2,31116,30733,32164,83894,17293,-4171,301,-1351,6063,-476,-44,23,515,-273,1,0,55,57,240,0,53298,1
2,31087,30723,32119,83895,17310,-3890,319,-1942,4752,-501,122,25,517,-283,1,0,55,57,280,0,53298,1
2,31084,30695,32107,83896,17327,-3948,26,-1744,-44,855,-278,33,513,-273,1,0,55,57,320,0,53298,1
2,31026,34663,32138,83897,17345,-4247,181,-1575,-1386,1274,-128,37,505,-283,1,0,55,57,360,0,53298,1
2,31063,34645,32136,83898,17362,-4337,-145,-1829,-2050,1465,-264,31,517,-263,1,0,55,57,400,0,53298,1
2,30966,34645,32120,83899,17379,-4030,-24,-1933,-1391,1161,-510,32,510,-270,1,0,55,57,440,0,53298,1
2,31044,34670,32165,83900,17397,-4060,-124,-1946,-1597,1327,-680,37,509,-277,1,0,55,57,480,0,53298,1
2,31076,34709,32209,83901,17413,-4166,-104,-1846,-1196,1351,-729,37,501,-273,1,0,55,57,520,0,53298,1
2,31079,34720,32219,83902,17429,-4192,-33,-1847,-588,1034,-616,33,515,-269,1,0,55,57,560,0,53298,1
2,31081,34722,32217,83903,17446,-4112,-79,-1924,-377,582,-417,38,510,-282,1,0,55,57,600,0,53298,1
2,31083,34718,32220,83904,17462,-4029,-45,-1968,-28,225,-139,34,520,-288,1,0,55,57,640,0,53298,1
2,31075,34710,32216,83905,17479,-4077,-20,-1908,143,32,76,42,514,-278,1,0,55,57,680,0,53298,1
2,31063,34707,32214,83906,17496,-4124,-9,-1865,-42,-76,160,45,507,-285,1,0,55,57,720,0,53298,1
2,31066,34707,32222,83907,17512,-4125,-12,-1850,-263,-127,171,33,513,-279,1,0,55,57,760,0,53298,1
2,31174,31327,32190,83908,17529,-4090,-13,-1875,-319,-102,149,34,516,-272,1,0,55,57,800,0,53298,1
2,31176,30769,32180,83909,17545,-4084,3,-1883,-217,-63,139,37,509,-279,1,0,55,57,840,0,53298,1
2,31229,30765,32177,83910,17562,-4102,1,-1869,-177,-65,125,31,513,-281,1,0,55,57,880,0,53298,1
2,31200,30762,32174,83911,17580,-4088,8,-1880,-249,-91,119,42,512,-270,1,0,55,57,920,0,53298,1
2,31182,30740,32162,83912,17597,-4077,7,-1889,-328,-136,132,30,510,-266,1,0,55,57,960,0,53298,1
1,31160,30725,32150,83913,0,-4091,16,-1874,-331,-178,150,36,508,-280,1,0,55,58,0,0,53298,1
2,31171,30713,32156,83914,16748,-4091,32,-1857,-321,-196,168,32,506,-278,1,0,55,58,40,0,53298,1
2,31127,30702,32102,83915,16764,-4104,36,-1843,-327,-215,162,31,505,-263,1,0,55,58,80,0,53298,1
2,31063,30710,32077,83916,16781,-4113,39,-1838,-317,-198,156,32,516,-270,1,0,55,58,120,0,53298,1
2,31074,30702,32078,83917,16798,-4099,48,-1840,-325,-175,139,46,522,-270,1,0,55,58,160,0,53298,1
2,31076,30703,32076,83918,16816,-4098,49,-1835,-307,-155,139,41,507,-279,1,0,55,58,200,0,53298,1
2,31067,30701,32060,83919,16833,-4107,57,-1826,-300,-145,143,33,513,-277,1,0,55,58,240,0,53298,1
2,31030,30703,32045,83920,16852,-4101,67,-1824,-262,-155,160,33,509,-261,1,0,55,58,280,0,53298,1
2,31027,30704,32030,83921,16869,-4106,82,-1809,-236,-146,169,30,516,-264,1,0,55,58,320,0,53298,1
2,31035,30703,32030,83922,16887,-4109,63,-1823,-247,-165,164,27,513,-271,1,0,55,58,360,0,53298,1
2,31000,30705,32018,83923,16905,-4103,72,-1826,-257,-155,148,23,507,-261,1,0,55,58,400,0,53298,1
2,31007,30705,32021,83924,16923,-4126,81,-1789,-149,-127,116,34,498,-258,1,0,55,58,440,0,53298,1
2,30986,30699,32012,83925,16940,-4112,95,-1803,-95,-91,89,26,512,-264,1,0,55,58,480,0,53298,1
2,30998,30700,32008,83926,16956,-4149,109,-1756,-41,-96,86,32,510,-268,1,0,55,58,520,0,53298,1
2,30961,30693,31998,83927,16973,-4164,103,-1784,-194,-171,95,37,509,-277,1,0,55,58,560,0,53298,1
2,30987,30716,31995,83928,16990,-4231,138,-1818,-178,-744,162,36,500,-272,1,0,55,58,600,0,53298,1
2,31056,30716,32004,83929,17008,-4603,-474,-1667,-467,-1359,381,31,509,-261,1,0,55,58,640,0,53298,1
2,31061,34626,32034,83930,17027,-4777,-512,-2268,-573,-2007,-384,31,517,-255,1,0,55,58,680,0,53298,1
2,31031,34659,32050,83931,17046,-4136,117,-1667,-6033,-1508,-1317,38,516,-250,1,0,55,58,720,0,53298,1
2,31093,34721,32090,83932,17064,-4445,-165,-1238,-5411,-2505,-1085,40,528,-254,1,0,55,58,760,0,53298,1
2,31217,34855,32171,83933,17084,-3971,369,-1730,-5870,-1981,-1235,49,531,-243,1,0,55,58,800,0,53298,1
2,31243,34907,32184,83934,17105,-3506,890,-1856,-6538,-415,-1213,46,536,-242,1,0,55,58,840,0,53298,1
2,31338,34983,32191,83935,17124,-3305,1596,-2127,-9560,2357,-493,51,537,-245,1,0,55,58,880,0,53298,1
2,31407,35049,32235,83936,17144,-3247,1903,-2390,-10566,4896,1742,45,531,-251,1,0,55,58,920,0,53298,1
2,31363,35074,32197,83937,17165,-3395,2107,-2138,-8289,6311,5265,20,526,-250,1,0,55,58,960,0,53298,1
1,31140,31642,32010,83938,0,-3739,2103,-1968,-6093,6835,9088,2,502,-262,1,0,55,59,0,0,53298,1
2,31292,30494,32002,83939,16292,-3982,2226,-1703,-5064,6444,12127,-21,483,-281,1,0,55,59,40,0,53298,1
2,31327,30257,32041,83940,16314,-4081,2002,-1992,-7010,6249,13876,-39,449,-273,1,0,55,59,80,0,53298,1
2,31200,34998,31934,83941,16336,-4016,1660,-1901,-7451,5844,14562,-60,418,-282,1,0,55,59,120,0,53298,1
2,31028,34241,31922,83942,16358,-3933,1742,-1889,-6247,5347,15132,-64,382,-288,1,0,55,59,160,0,53298,1
2,31118,31500,31908,83943,16379,-3527,1956,-1929,-6122,5417,14719,-69,355,-281,1,0,55,59,200,0,53298,1
2,31192,33051,31911,83944,16399,-3311,1976,-1988,-6856,5815,13785,-79,331,-267,1,0,55,59,240,0,53298,1
2,31008,33071,31846,83945,16419,-3011,2319,-1976,-6363,5935,12895,-83,311,-263,1,0,55,59,280,0,53298,1
2,30885,31911,31812,83946,16440,-2861,2363,-1919,-4184,5734,12355,-76,292,-272,1,0,55,59,320,0,53298,1
2,30500,34128,31797,83947,16461,-2616,2236,-1783,-2079,5094,10866,-78,274,-270,1,0,55,59,360,0,53298,1
2,30884,34211,31799,83948,16482,-1977,2432,-1492,-1204,4481,8442,-67,267,-261,1,0,55,59,400,0,53298,1
2,30604,33463,31723,83949,16502,-1859,2525,-1749,155,3964,7901,-71,255,-253,1,0,55,59,440,0,53298,1
2,30522,32435,31685,83950,16522,-1631,2579,-1572,1836,3898,7647,-59,251,-261,1,0,55,59,480,0,53298,1
2,30641,31709,31680,83951,16542,-1422,2726,-1469,749,3769,6015,-64,238,-262,1,0,55,59,520,0,53298,1
2,30359,31709,31670,83952,16563,-1198,2461,-1501,-1043,2925,4492,-67,235,-259,1,0,55,59,560,0,53298,1
2,30603,31820,31670,83953,16583,-1034,2478,-1607,-983,2276,3564,-60,230,-258,1,0,55,59,600,0,53298,1
2,30510,31517,31665,83954,16603,-1040,2735,-1872,-377,2081,2773,-55,237,-255,1,0,55,59,640,0,53298,1
2,30546,32072,31661,83955,16622,-943,2475,-1612,817,1594,2445,-55,221,-259,1,0,55,59,680,0,53298,1
2,30197,32461,31639,83956,16642,-856,2659,-1418,1228,718,1441,-52,236,-266,1,0,55,59,720,0,53298,1
2,30135,32791,31630,83957,16661,-716,2410,-1386,-480,390,383,-55,225,-259,1,0,55,59,760,0,53298,1
2,29721,32635,31630,83958,16680,-827,2627,-1651,-2184,492,-151,-54,232,-244,1,0,55,59,800,0,53298,1
2,30052,32824,31632,83959,16699,-746,2745,-1717,-2255,45,-825,-53,221,-255,1,0,55,59,840,0,53298,1
2,29982,32924,31628,83960,16719,-766,2918,-1634,-663,-363,-825,-60,240,-256,1,0,55,59,880,0,53298,1
2,29677,32437,31613,83961,16738,-744,3050,-1562,-334,-558,-858,-50,232,-252,1,0,55,59,920,0,53298,1
2,29761,32762,31619,83962,16757,-806,3042,-1595,-1264,-533,-1083,-55,229,-243,1,0,55,59,960,0,53298,1
1,29535,32458,31619,83963,0,-802,3020,-1674,-1743,-568,-1269,-55,243,-243,1,0,56,0,0,1,53298,1
2,29777,32893,31620,83964,15835,-776,3112,-1686,-1325,-431,-1069,-54,240,-248,1,0,56,0,40,1,53298,1
2,29429,32220,31614,83965,15854,-828,3125,-1651,-720,-319,-751,-52,240,-246,1,0,56,0,80,1,53298,1
2,29492,32727,31605,83966,15872,-829,3201,-1665,-591,-366,-785,-59,241,-241,1,0,56,0,120,1,53298,1
2,29265,31833,31604,83967,15890,-869,3214,-1677,-557,-238,-621,-56,238,-236,1,0,56,0,160,1,53298,1
2,29521,31381,31600,83968,15907,-866,3011,-1576,-362,-136,-361,-54,230,-246,1,0,56,0,200,1,53298,1
2,29546,31106,31612,83969,15925,-898,3137,-1494,-800,58,-452,-57,235,-231,1,0,56,0,240,1,53298,1
2,29290,31632,31603,83970,15942,-898,3022,-1512,-1163,67,-454,-54,240,-232,1,0,56,0,280,1,53298,1
2,29540,31669,31609,83971,15960,-965,2995,-1416,-951,102,-410,-60,226,-234,1,0,56,0,320,1,53298,1
2,28760,32402,31594,83972,15978,-964,2926,-1374,-801,-137,-638,-57,243,-243,1,0,56,0,360,1,53298,1
2,28676,32924,31607,83973,15995,-995,2929,-1306,-857,-360,-945,-59,241,-235,1,0,56,0,400,1,53298,1
2,28554,32251,31596,83974,16012,-1029,2937,-1329,-865,-493,-1115,-55,239,-233,1,0,56,0,440,1,53298,1
2,28739,32518,31597,83975,16029,-1066,2949,-1300,-696,-636,-1260,-62,230,-228,1,0,56,0,480,1,53298,1
2,28546,32340,31595,83976,16046,-1062,3061,-1347,-625,-836,-1481,-60,244,-236,1,0,56,0,520,1,53298,1
2,28488,30233,31635,83977,16063,-1093,3071,-1366,-758,-838,-1525,-60,238,-234,1,0,56,0,560,1,53298,1
2,28346,30025,31627,83978,16078,-1155,3100,-1388,-220,-953,-1453,-59,251,-239,1,0,56,0,600,1,53298,1
2,28603,30049,31633,83979,16095,-1191,3081,-1325,539,-1204,-1474,-65,243,-235,1,0,56,0,640,1,53298,1
2,28914,29974,31616,83980,16111,-1275,3049,-1316,91,-1218,-1701,-68,248,-222,1,0,56,0,680,1,53298,1
2,29062,30043,31578,83981,16127,-1317,3049,-1328,-420,-1288,-1982,-60,248,-228,1,0,56,0,720,1,53298,1
2,29741,31976,31573,83982,16143,-1370,2945,-1335,-649,-1347,-2178,-58,254,-234,1,0,56,0,760,1,53298,1
2,29563,31514,31585,83983,16159,-1431,2930,-1232,-602,-1583,-2611,-60,256,-228,1,0,56,0,800,1,53298,1
2,30422,31141,31607,83984,16175,-1521,2696,-1175,-373,-1954,-2990,-69,261,-225,1,0,56,0,840,1,53298,1
2,30074,32220,31605,83985,16191,-1647,2631,-1119,-115,-2158,-3348,-68,268,-224,1,0,56,0,880,1,53298,1
2,30144,30331,31634,83986,16207,-2078,2239,-863,-582,-2646,-4490,-66,266,-228,1,0,56,0,920,1,53298,1
2,30571,30536,31642,83987,16223,-2119,2590,-1079,-1821,-3416,-6331,-64,276,-218,1,0,56,0,960,1,53298,1
1,30406,31517,31624,83988,0,-2424,2072,-1014,-2098,-3836,-7427,-67,289,-225,1,0,56,1,0,0,53298,1
2,30205,33096,31644,83989,15377,-2894,2250,-1237,-969,-4002,-9749,-69,299,-215,1,0,56,1,40,0,53298,1
2,30130,33978,31697,83990,15393,-2853,2491,-1545,1376,-5013,-11432,-71,323,-215,1,0,56,1,80,0,53298,1
2,29996,33742,31679,83991,15409,-2432,2647,-1656,2916,-4051,-11284,-63,345,-223,1,0,56,1,120,0,53298,1
2,30041,34142,31744,83992,15425,-2702,2886,-1361,5073,-3010,-9567,-62,362,-226,1,0,56,1,160,0,53298,1
2,29970,34210,31765,83993,15443,-3361,2660,-1168,3690,-2509,-8816,-59,381,-219,1,0,56,1,200,0,53298,1
2,30004,34229,31778,83994,15459,-3790,2589,-1034,3288,-2770,-9147,-44,392,-222,1,0,56,1,240,0,53298,1
2,29835,34231,31779,83995,15476,-3705,2530,-879,2791,-3735,-9744,-34,400,-224,1,0,56,1,280,0,53298,1
2,29890,34218,31786,83996,15493,-4029,1917,-662,1753,-4339,-9582,-22,424,-214,1,0,56,1,320,0,53298,1
2,29891,34210,31792,83997,15510,-3948,1978,-842,477,-4914,-9644,-6,432,-206,1,0,56,1,360,0,53298,1
2,29930,34193,31798,83998,15527,-3940,1625,-647,455,-5342,-9330,3,445,-193,1,0,56,1,400,0,53298,1
2,29962,34220,31810,83999,15543,-4072,1520,-755,35,-5668,-8893,17,461,-175,1,0,56,1,440,0,53298,1
2,29930,34211,31814,84000,15560,-4032,1395,-818,-846,-5652,-8723,38,474,-164,1,0,56,1,480,0,53298,1
2,30241,34209,31820,84001,15577,-3911,1243,-780,307,-5371,-8214,63,469,-165,1,0,56,1,520,0,53298,1
2,30139,34180,31802,84002,15594,-3956,1410,-930,757,-4451,-7376,79,473,-157,1,0,56,1,560,0,53298,1
2,30115,34020,31753,84003,15611,-3975,1388,-877,1361,-3720,-6366,83,481,-139,1,0,56,1,600,0,53298,1
2,30220,34101,31768,84004,15628,-3948,1144,-772,1738,-2845,-5242,100,490,-140,1,0,56,1,640,0,53298,1
2,30070,33965,31769,84005,15644,-3735,1705,-1448,456,-839,-3693,95,491,-139,1,0,56,1,680,0,53298,1
2,29835,34128,31819,84006,15660,-3819,2607,-1051,3991,85,-180,95,485,-149,1,0,56,1,720,0,53298,1
2,30197,30679,31825,84007,15677,-5076,128,-312,3210,582,1194,86,482,-142,1,0,56,1,760,0,53298,1
2,30024,30690,31792,84008,15695,-4933,292,79,3369,189,226,87,495,-143,1,0,56,1,800,0,53298,1
2,30234,30679,31794,84009,15711,-4105,763,-430,540,340,-450,91,485,-145,1,0,56,1,840,0,53298,1
2,29900,30185,31734,84010,15727,-4207,674,-574,938,491,-74,89,483,-141,1,0,56,1,880,0,53298,1
2,30347,30654,31796,84011,15743,-4515,609,-565,479,812,-140,80,480,-148,1,0,56,1,920,0,53298,1
2,30499,30133,31798,84012,15760,-4423,576,-550,228,903,-319,79,489,-149,1,0,56,1,960,0,53298,1
1,30570,30355,31809,84013,0,-4314,545,-705,218,584,-226,77,483,-151,1,0,56,2,0,0,53298,1
2,30496,34491,31861,84014,14920,-4363,559,-721,139,276,-185,87,481,-145,1,0,56,2,40,0,53298,1
2,30467,33211,31869,84015,14937,-4366,594,-604,268,-79,-114,82,484,-152,1,0,56,2,80,0,53298,1
2,30530,34580,31872,84016,14954,-4342,557,-622,46,-261,-11,85,487,-149,1,0,56,2,120,0,53298,1
2,30585,34588,31870,84017,14971,-4360,607,-523,32,-231,25,94,482,-150,1,0,56,2,160,0,53298,1
2,30543,34594,31885,84018,14987,-4375,593,-539,150,-94,22,90,484,-160,1,0,56,2,200,0,53298,1
2,30404,34594,31883,84019,15004,-4346,591,-570,82,116,-4,88,484,-150,1,0,56,2,240,0,53298,1
2,30450,34560,31893,84020,15020,-4336,589,-591,5,224,-36,87,475,-145,1,0,56,2,280,0,53298,1
2,30331,30679,31858,84021,15037,-4360,558,-613,53,226,-71,90,484,-152,1,0,56,2,320,0,53298,1
2,30282,30357,31838,84022,15054,-4353,565,-618,195,164,-73,87,489,-151,1,0,56,2,360,0,53298,1
2,30208,30571,31836,84023,15071,-4350,595,-603,252,152,-100,83,483,-153,1,0,56,2,400,0,53298,1
2,29978,30622,31835,84024,15087,-4350,585,-587,213,203,-176,91,487,-155,1,0,56,2,440,0,53298,1
2,29935,30435,31821,84025,15104,-4357,575,-604,170,272,-218,88,488,-160,1,0,56,2,480,0,53298,1
2,29927,34508,31872,84026,15121,-4344,557,-652,84,315,-229,90,486,-154,1,0,56,2,520,0,53298,1
2,30013,34562,31862,84027,15137,-4356,556,-632,80,298,-215,90,472,-156,1,0,56,2,560,0,53298,1
2,29938,34578,31870,84028,15154,-4347,538,-661,63,214,-121,95,483,-147,1,0,56,2,600,0,53298,1
2,29928,34570,31861,84029,15172,-4367,524,-685,26,103,-48,90,484,-158,1,0,56,2,640,0,53298,1
2,29935,34572,31857,84030,15189,-4351,543,-662,38,-11,-3,87,489,-151,1,0,56,2,680,0,53298,1
2,29957,34570,31860,84031,15206,-4368,537,-642,1,-65,29,90,486,-144,1,0,56,2,720,0,53298,1
2,30383,34579,31863,84032,15223,-4366,551,-628,-23,-68,10,93,485,-159,1,0,56,2,760,0,53298,1
2,31280,34708,31990,84033,15240,-4357,543,-615,-36,-37,6,83,485,-153,1,0,56,2,800,0,53298,1
2,31330,34705,32003,84034,15258,-4348,559,-627,-72,-18,2,96,480,-154,1,0,56,2,840,0,53298,1
2,31330,34712,32002,84035,15275,-4347,564,-641,-58,-30,11,77,493,-153,1,0,56,2,880,0,53298,1
2,31352,34709,32004,84036,15292,-4366,549,-633,-37,-45,35,94,488,-154,1,0,56,2,920,0,53298,1
2,31335,34706,32004,84037,15309,-4357,555,-645,-38,-56,39,85,483,-155,1,0,56,2,960,0,53298,1
1,31341,34711,32005,84038,0,-4360,547,-641,-50,-64,42,90,486,-152,1,0,56,3,0,1,53298,1
2,31325,34701,31998,84039,14464,-4371,549,-615,-52,-48,41,88,488,-154,1,0,56,3,40,1,53298,1
2,31321,34688,31993,84040,14481,-4366,554,-630,-70,-49,36,88,484,-154,1,0,56,3,80,1,53298,1
2,31331,34689,31999,84041,14498,-4378,544,-626,-66,-62,46,86,490,-150,1,0,56,3,120,1,53298,1
2,31328,34694,31996,84042,14515,-4370,542,-619,-112,-97,62,96,480,-156,1,0,56,3,160,1,53298,1
2,31328,34685,31989,84043,14533,-4366,553,-614,-209,-144,97,89,489,-153,1,0,56,3,200,1,53298,1
2,31328,34651,31994,84044,14549,-4428,579,-601,-399,-224,142,88,486,-148,1,0,56,3,240,1,53298,1
2,31334,34686,32007,84045,14566,-4390,575,-554,-1196,-282,72,93,485,-155,1,0,56,3,280,1,53298,1
2,31321,34696,31997,84046,14583,-4448,542,-556,-1797,-187,76,91,489,-153,1,0,56,3,320,1,53298,1
2,31328,34683,31980,84047,14600,-4527,522,-602,-1850,-326,82,97,483,-151,1,0,56,3,360,1,53298,1
2,31279,34647,31932,84048,14617,-4475,537,-654,-2035,-455,-148,98,488,-142,1,0,56,3,400,1,53298,1
2,31233,34623,31907,84049,14635,-4530,516,-570,-1899,-598,-194,95,483,-143,1,0,56,3,440,1,53298,1
2,31307,34789,32001,84050,14653,-4434,479,-446,-2066,-610,-191,102,480,-150,1,0,56,3,480,1,53298,1
2,31415,30784,32005,84051,14672,-4667,646,-870,-4240,790,69,101,483,-157,1,0,56,3,520,1,53298,1
2,31343,32827,32067,84052,14693,-4628,1110,-835,-2089,949,709,98,496,-152,1,0,56,3,560,1,53298,1
2,31530,32751,32071,84053,14715,-4345,1400,-773,-1045,851,1179,88,502,-156,1,0,56,3,600,1,53298,1
2,31672,34344,32200,84054,14737,-3994,1397,-897,-1458,1264,2302,88,494,-168,1,0,56,3,640,1,53298,1
2,31441,31660,32080,84055,14761,-3766,1465,-943,-2325,2104,3442,81,495,-161,1,0,56,3,680,1,53298,1
2,31469,32671,32153,84056,14786,-3397,1865,-1063,-1686,3219,5007,73,489,-173,1,0,56,3,720,1,53298,1
2,31547,34055,32120,84057,14810,-3241,1986,-1062,27,4373,7486,48,490,-192,1,0,56,3,760,1,53298,1
2,31481,34859,32106,84058,14835,-3160,2257,-1035,1774,5454,10045,23,481,-195,1,0,56,3,800,1,53298,1
2,31227,32146,31914,84059,14860,-3255,2427,-838,2113,6401,12219,-2,454,-208,1,0,56,3,840,1,53298,1
2,29726,34263,31859,84060,14885,-3700,2403,-972,412,6889,14355,-26,436,-228,1,0,56,3,880,1,53298,1
2,29768,34153,31785,84061,14910,-3722,2359,-1338,-239,6776,15578,-52,416,-226,1,0,56,3,920,1,53298,1
2,29684,34358,31752,84062,14934,-3533,2603,-1597,866,7013,16586,-75,375,-245,1,0,56,3,960,1,53298,1
1,29616,33528,31738,84063,0,-3450,2955,-1823,1049,8321,17429,-82,348,-244,1,0,56,4,0,1,53298,1
2,29655,32508,31777,84064,14010,-4456,2385,-1490,278,9235,17583,-90,322,-258,1,0,56,4,40,1,53298,1
2,29587,34044,31740,84065,14032,-3897,1774,-1273,-1153,7883,13977,-79,299,-265,1,0,56,4,80,1,53298,1
2,29719,33125,31696,84066,14055,-2737,2399,-1364,-1786,5754,9279,-76,286,-260,1,0,56,4,120,1,53298,1
2,29601,33183,31679,84067,14077,-2270,2413,-1469,-415,4471,8204,-69,283,-267,1,0,56,4,160,1,53298,1
2,29542,32659,31653,84068,14098,-2137,2435,-1164,1361,4050,8195,-69,261,-273,1,0,56,4,200,1,53298,1
2,29510,32437,31631,84069,14119,-1706,2413,-1046,320,3489,6765,-63,253,-265,1,0,56,4,240,1,53298,1
2,29435,32346,31648,84070,14140,-1383,2616,-1440,-1216,2812,5359,-63,253,-257,1,0,56,4,280,1,53298,1
2,29246,32516,31645,84071,14161,-1253,2476,-1563,-1503,2517,4554,-55,251,-253,1,0,56,4,320,1,53298,1
2,29087,32243,31642,84072,14182,-1152,2498,-1561,-720,1992,3682,-60,236,-264,1,0,56,4,360,1,53298,1
2,29161,31985,31651,84073,14203,-1088,2481,-1589,230,1420,2803,-63,239,-249,1,0,56,4,400,1,53298,1
2,29047,31815,31650,84074,14224,-1039,2548,-1576,493,985,1829,-61,241,-269,1,0,56,4,440,1,53298,1
2,29010,32502,31642,84075,14244,-1020,2521,-1596,306,683,941,-57,243,-265,1,0,56,4,480,1,53298,1
2,28950,32934,31645,84076,14265,-1031,2576,-1522,469,376,315,-62,242,-258,1,0,56,4,520,1,53298,1
2,28961,32370,31645,84077,14284,-970,2694,-1505,217,23,-415,-56,232,-256,1,0,56,4,560,1,53298,1
2,28909,32749,31651,84078,14303,-907,2991,-1670,-97,-210,-938,-64,246,-264,1,0,56,4,600,1,53298,1
2,28928,32944,31652,84079,14322,-948,2949,-1634,8,-172,-843,-58,244,-266,1,0,56,4,640,1,53298,1
2,28843,32750,31646,84080,14341,-939,3107,-1649,-94,-440,-1087,-59,249,-263,1,0,56,4,680,1,53298,1
2,28787,33040,31642,84081,14360,-925,3167,-1811,2,-503,-943,-65,239,-249,1,0,56,4,720,1,53298,1
2,28805,33114,31648,84082,14379,-1019,3114,-1632,153,-374,-577,-63,251,-261,1,0,56,4,760,1,53298,1
2,28885,32935,31648,84083,14398,-989,3087,-1719,-234,-496,-656,-56,242,-254,1,0,56,4,800,1,53298,1
2,28854,32457,31642,84084,14418,-1001,3102,-1808,-200,-415,-416,-62,240,-262,1,0,56,4,840,1,53298,1
2,28801,33138,31665,84085,14437,-996,3015,-1739,311,-230,17,-67,241,-265,1,0,56,4,880,1,53298,1
2,28854,34083,31703,84086,14456,-1036,3015,-1702,476,-250,63,-64,246,-262,1,0,56,4,920,1,53298,1
2,28901,33925,31704,84087,14474,-951,3058,-1842,50,-108,47,-66,242,-246,1,0,56,4,960,1,53298,1
1,28904,33994,31716,84088,0,-1034,2904,-1686,-109,242,297,-53,249,-261,1,0,56,5,0,1,53298,1
2,28904,34022,31707,84089,13552,-1022,2899,-1669,-328,173,38,-64,240,-254,1,0,56,5,40,1,53298,1
2,28906,33493,31665,84090,13571,-993,3000,-1714,-135,166,58,-54,246,-264,1,0,56,5,80,1,53298,1
2,28906,33534,31671,84091,13589,-1025,2944,-1576,93,281,235,-61,245,-253,1,0,56,5,120,1,53298,1
2,28877,33267,31667,84092,13608,-1032,2922,-1624,-239,78,-89,-63,241,-255,1,0,56,5,160,1,53298,1
2,28878,33133,31662,84093,13627,-1039,2932,-1652,-145,-34,-130,-65,251,-255,1,0,56,5,200,1,53298,1
2,28888,33105,31664,84094,13646,-1036,2924,-1613,51,-29,-76,-58,238,-256,1,0,56,5,240,1,53298,1
2,28858,32887,31660,84095,13664,-996,3033,-1664,8,-115,-210,-76,246,-254,1,0,56,5,280,1,53298,1
2,28859,32944,31660,84096,13682,-1017,3033,-1662,-91,-81,-159,-62,240,-260,1,0,56,5,320,1,53298,1
2,28820,33359,31661,84097,13701,-1037,2990,-1647,-111,-130,-176,-63,247,-255,1,0,56,5,360,1,53298,1
2,28791,33497,31672,84098,13720,-1042,2966,-1658,-18,-190,-200,-70,242,-256,1,0,56,5,400,1,53298,1
2,28821,33465,31660,84099,13738,-1002,2973,-1680,-1,-190,-203,-57,249,-257,1,0,56,5,440,1,53298,1
2,28790,33450,31660,84100,13757,-1027,2999,-1695,-50,-135,-158,-59,245,-265,1,0,56,5,480,1,53298,1
2,28767,33672,31693,84101,13775,-1010,3010,-1731,-17,-101,-136,-60,240,-262,1,0,56,5,520,1,53298,1
2,28785,33510,31677,84102,13794,-1051,2975,-1720,-138,-26,-144,-67,249,-255,1,0,56,5,560,1,53298,1
2,28814,33600,31672,84103,13811,-1085,2955,-1680,-186,-14,-216,-69,249,-263,1,0,56,5,600,1,53298,1
2,28793,33891,31709,84104,13829,-1078,2938,-1662,-173,27,-207,-66,248,-254,1,0,56,5,640,1,53298,1
2,28766,33943,31698,84105,13848,-1118,2926,-1557,-117,27,-261,-63,251,-255,1,0,56,5,680,1,53298,1
2,28737,34236,31754,84106,13867,-1122,2913,-1547,-243,-143,-467,-73,249,-259,1,0,56,5,720,1,53298,1
2,28721,34145,31739,84107,13885,-1161,2871,-1523,-276,-317,-640,-63,249,-257,1,0,56,5,760,1,53298,1
2,28721,34095,31728,84108,13903,-1226,2766,-1477,-212,-577,-938,-68,248,-252,1,0,56,5,800,1,53298,1
2,28694,33822,31710,84109,13921,-1304,2634,-1413,-343,-976,-1517,-65,249,-257,1,0,56,5,840,1,53298,1
2,28677,34074,31731,84110,13939,-1466,2453,-1254,-308,-1530,-2375,-68,258,-256,1,0,56,5,880,1,53298,1
2,28722,34579,31783,84111,13956,-1749,2147,-937,62,-2664,-4006,-74,266,-254,1,0,56,5,920,1,53298,1
2,28669,30051,31709,84112,13973,-2045,1960,-812,504,-4566,-6522,-72,274,-250,1,0,56,5,960,1,53298,1
1,28686,33781,31803,84113,0,-2271,2234,-1108,-256,-6082,-9160,-68,278,-246,1,0,56,6,0,1,53298,1
2,28639,30356,31759,84114,13094,-2259,2755,-1545,-2110,-6327,-10838,-82,294,-244,1,0,56,6,40,1,53298,1
2,28615,31400,31789,84115,13110,-2269,2920,-1762,-2840,-5584,-10522,-76,304,-238,1,0,56,6,80,1,53298,1
