sensorStatus,cap1,cap2,cap3,counter,microseconds_since_last_tick,accX,accY,accZ,gyroX,gyroY,gyroZ,magnetX,magnetY,magnetZ,day,hour,min,sec,msec,sync,battery_fuel,crc_good
2,32015,30889,32098,46564,39014,-4372,425,-808,10,-3,21,110,468,-180,1,0,31,4,40,0,53298,1
2,32014,30887,32102,46565,39037,-4382,412,-798,12,-6,24,111,473,-175,1,0,31,4,80,0,53298,1
2,32015,30883,32099,46566,39058,-4383,405,-797,3,2,19,111,473,-175,1,0,31,4,120,0,53298,1
2,32019,30886,32104,46567,39080,-4374,419,-801,-6,-11,27,115,473,-175,1,0,31,4,160,0,53298,1
2,32016,30885,32097,46568,39102,-4375,416,-799,6,-11,15,98,472,-162,1,0,31,4,200,0,53298,1
2,32023,30886,32095,46569,39125,-4385,415,-789,5,-17,24,109,473,-181,1,0,31,4,240,0,53298,1
2,32015,30885,32098,46570,39147,-4382,410,-786,-1,-14,24,118,482,-164,1,0,31,4,280,0,53298,1
2,32020,30890,32109,46571,39169,-4382,417,-798,6,-3,19,104,474,-170,1,0,31,4,320,0,53298,1
2,32023,30888,32099,46572,39192,-4394,401,-789,6,3,19,108,474,-174,1,0,31,4,360,0,53298,1
2,32021,30887,32101,46573,39214,-4379,426,-795,7,-4,23,105,467,-175,1,0,31,4,400,0,53298,1
2,32021,30886,32107,46574,39237,-4380,414,-788,8,-2,24,106,468,-176,1,0,31,4,440,0,53298,1
2,32014,30887,32090,46575,39259,-4393,405,-795,12,4,19,114,472,-178,1,0,31,4,480,0,53298,1
2,32023,30888,32100,46576,39281,-4388,420,-800,16,-3,24,109,473,-171,1,0,31,4,520,0,53298,1
2,32022,30890,32095,46577,39304,-4375,415,-792,4,-5,24,112,466,-174,1,0,31,4,560,0,53298,1
2,32023,30893,32101,46578,39326,-4391,423,-795,-3,-6,22,113,465,-181,1,0,31,4,600,0,53298,1
2,32021,30891,32098,46579,39348,-4396,401,-790,14,-8,23,109,473,-173,1,0,31,4,640,0,53298,1
2,32018,30889,32104,46580,39371,-4378,426,-807,0,-3,24,113,477,-189,1,0,31,4,680,0,53298,1
2,32020,30890,32096,46581,39393,-4376,423,-802,-1,-1,16,106,464,-182,1,0,31,4,720,0,53298,1
2,32022,30891,32091,46582,39414,-4383,419,-801,1,0,20,113,475,-177,1,0,31,4,760,0,53298,1
2,32017,30894,32094,46583,39436,-4385,414,-785,14,-9,26,114,472,-176,1,0,31,4,800,0,53298,1
2,32022,30892,32097,46584,39458,-4378,422,-813,10,-9,35,104,468,-178,1,0,31,4,840,0,53298,1
2,32022,30889,32110,46585,39479,-4391,411,-810,4,0,39,109,473,-175,1,0,31,4,880,0,53298,1
2,32017,30891,32095,46586,39501,-4384,420,-803,14,-17,35,114,472,-172,1,0,31,4,920,0,53298,1
2,32020,30893,32105,46587,39523,-4387,418,-792,16,-30,7,101,471,-157,1,0,31,4,960,0,53298,1
1,32024,30894,32104,46588,0,-4376,416,-795,-13,-40,2,119,467,-177,1,0,31,5,0,0,53298,1
2,32026,30894,32108,46589,38566,-4389,410,-797,-42,-36,3,111,479,-169,1,0,31,5,40,0,53298,1
2,32025,30891,32100,46590,38588,-4381,407,-777,-10,-49,7,113,473,-165,1,0,31,5,80,0,53298,1
2,32022,30894,32097,46591,38610,-4372,412,-774,11,-28,18,115,465,-179,1,0,31,5,120,0,53298,1
2,32024,30896,32106,46592,38632,-4390,412,-793,1,10,22,114,470,-176,1,0,31,5,160,0,53298,1
2,32022,30896,32104,46593,38654,-4392,399,-801,1,24,21,106,466,-168,1,0,31,5,200,0,53298,1
2,32023,30895,32096,46594,38677,-4382,418,-783,65,-3,24,107,467,-181,1,0,31,5,240,0,53298,1
2,32022,30897,32109,46595,38699,-4398,431,-798,53,-2,27,103,473,-171,1,0,31,5,280,0,53298,1
2,32023,30897,32111,46596,38721,-4398,396,-816,37,-16,26,111,467,-173,1,0,31,5,320,0,53298,1
2,32018,30896,32110,46597,38743,-4385,435,-810,-31,-23,11,110,472,-172,1,0,31,5,360,0,53298,1
2,32018,30894,32099,46598,38763,-4379,379,-817,-111,-87,45,111,477,-175,1,0,31,5,400,0,53298,1
2,32014,30894,32106,46599,38785,-4367,420,-779,30,-159,69,108,472,-180,1,0,31,5,440,0,53298,1
2,32014,30890,32092,46600,38806,-4428,420,-811,-102,-154,64,116,474,-174,1,0,31,5,480,0,53298,1
2,32016,30891,32097,46601,38828,-4366,409,-778,-156,-207,77,112,478,-164,1,0,31,5,520,0,53298,1
2,32009,30890,32094,46602,38850,-4356,398,-777,-293,-273,56,105,477,-167,1,0,31,5,560,0,53298,1
2,32015,30889,32095,46603,38871,-4421,428,-799,-477,-330,12,110,464,-182,1,0,31,5,600,0,53298,1
2,32009,30892,32095,46604,38894,-4372,430,-729,-408,-403,-15,113,473,-173,1,0,31,5,640,0,53298,1
2,32009,30891,32095,46605,38915,-4364,400,-712,-373,-334,-4,113,469,-173,1,0,31,5,680,0,53298,1
2,32005,30895,32095,46606,38938,-4407,445,-699,-359,-229,20,116,474,-172,1,0,31,5,720,0,53298,1
2,32009,30893,32092,46607,38961,-4398,434,-696,-149,-115,80,108,462,-168,1,0,31,5,760,0,53298,1
2,32008,30893,32103,46608,38982,-4375,424,-696,51,24,87,113,471,-169,1,0,31,5,800,0,53298,1
2,32011,30892,32093,46609,39004,-4387,445,-721,62,152,40,114,464,-170,1,0,31,5,840,0,53298,1
2,32006,30894,32096,46610,39025,-4402,423,-742,45,196,-10,117,461,-175,1,0,31,5,880,0,53298,1
2,32010,30893,32098,46611,39047,-4400,424,-764,111,162,-44,109,469,-175,1,0,31,5,920,0,53298,1
2,32012,30896,32098,46612,39069,-4393,408,-775,88,102,-12,111,477,-165,1,0,31,5,960,0,53298,1
1,32013,30895,32100,46613,0,-4408,430,-760,117,37,63,97,469,-169,1,0,31,6,0,1,53298,1
2,32010,30893,32100,46614,38118,-4381,421,-763,80,-15,104,112,470,-174,1,0,31,6,40,1,53298,1
2,32012,30891,32096,46615,38140,-4414,434,-746,49,-67,103,111,471,-177,1,0,31,6,80,1,53298,1
2,32012,30890,32096,46616,38162,-4437,467,-795,-13,-138,96,115,475,-169,1,0,31,6,120,1,53298,1
2,32009,30888,32095,46617,38184,-4465,552,-842,277,-279,191,102,470,-162,1,0,31,6,160,1,53298,1
2,31995,30896,32091,46618,38206,-4577,635,-879,449,-493,579,104,474,-170,1,0,31,6,200,1,53298,1
2,31918,30571,31932,46619,38229,-4506,750,-846,974,-959,1241,110,468,-168,1,0,31,6,240,1,53298,1
2,31939,30650,32028,46620,38252,-4282,987,-1341,63,-250,1730,104,470,-176,1,0,31,6,280,1,53298,1
2,31857,30338,32040,46621,38276,-3642,1904,-1776,-2862,1108,3492,104,466,-176,1,0,31,6,320,1,53298,1
2,31898,31676,31925,46622,38300,-3868,1612,-1917,-2621,3071,6136,85,471,-181,1,0,31,6,360,1,53298,1
2,31914,30739,32033,46623,38323,-4147,1316,-1786,-1906,5066,8146,79,455,-199,1,0,31,6,400,1,53298,1
2,31900,30668,32034,46624,38346,-4252,920,-1869,-1010,6806,8979,65,461,-211,1,0,31,6,440,1,53298,1
2,31980,30532,32095,46625,38368,-4340,522,-1849,22,8512,8345,30,442,-222,1,0,31,6,480,1,53298,1
2,32030,30542,32116,46626,38390,-4401,121,-1391,2314,9332,6750,21,441,-237,1,0,31,6,520,1,53298,1
2,31810,30669,32014,46627,38413,-4339,18,-1163,4054,9441,4421,-4,442,-250,1,0,31,6,560,1,53298,1
2,31816,30856,31962,46628,38434,-4188,-11,-1241,4702,9120,1553,-5,439,-275,1,0,31,6,600,1,53298,1
2,31839,30518,31928,46629,38454,-3932,-137,-1548,5908,8506,-1568,-17,443,-299,1,0,31,6,640,1,53298,1
2,31763,30462,31876,46630,38475,-4143,-343,-1343,8600,7778,-4655,-1,457,-319,1,0,31,6,680,1,53298,1
2,31752,30324,31940,46631,38495,-4472,-63,-1028,10350,5738,-7775,4,474,-358,1,0,31,6,720,1,53298,1
2,31834,30480,31892,46632,38516,-4406,300,-956,8528,2623,-10414,16,492,-372,1,0,31,6,760,1,53298,1
2,31873,30586,31978,46633,38538,-4263,790,-1182,5328,-894,-12044,51,515,-379,1,0,31,6,800,1,53298,1
2,31888,30662,31980,46634,38560,-4079,1336,-1198,868,-3044,-12697,67,539,-377,1,0,31,6,840,1,53298,1
2,31850,30566,31911,46635,38583,-4119,1668,-1579,-1747,-5080,-11110,94,556,-372,1,0,31,6,880,1,53298,1
2,32007,30736,32109,46636,38605,-3692,230,-1905,-4053,-7246,-7330,109,565,-341,1,0,31,6,920,1,53298,1
2,32069,30754,32249,46637,38629,-4033,-408,-1941,-771,-6318,-5087,129,579,-331,1,0,31,6,960,1,53298,1
1,32349,30641,32572,46638,0,-2404,871,-1984,5576,-7689,-6168,137,593,-305,1,0,31,7,0,0,53298,1
2,32280,30919,33380,46639,37673,-4782,1358,-3415,19717,-7963,-4445,138,606,-278,1,0,31,7,40,0,53298,1
2,32074,30900,32996,46640,37699,-4440,-880,-1927,-6100,5023,1993,125,605,-283,1,0,31,7,80,0,53298,1
2,31867,33729,33027,46641,37723,-4995,139,-1714,1568,791,3432,127,595,-295,1,0,31,7,120,0,53298,1
2,32068,30748,33826,46642,37747,-3998,-1193,-2895,-208,1091,2725,114,590,-282,1,0,31,7,160,0,53298,1
2,31745,30855,34046,46643,37772,-4051,-1044,-2511,2643,2990,1625,108,590,-286,1,0,31,7,200,0,53298,1
2,32067,30415,34000,46644,37796,-4064,-723,-1701,1949,903,888,109,591,-289,1,0,31,7,240,0,53298,1
2,32171,30817,34096,46645,37822,-4254,-664,-1660,158,365,268,112,592,-302,1,0,31,7,280,0,53298,1
2,32018,30671,34188,46646,37847,-4040,-485,-2135,-1059,-249,231,117,589,-295,1,0,31,7,320,0,53298,1
2,32091,33177,34345,46647,37871,-4121,-400,-2142,-1742,-573,275,113,597,-299,1,0,31,7,360,0,53298,1
2,32030,31181,34342,46648,37896,-4161,-368,-2089,-1306,-289,201,99,595,-283,1,0,31,7,400,0,53298,1
2,31728,31383,33723,46649,37920,-4102,-418,-2053,-370,-119,212,106,606,-290,1,0,31,7,440,0,53298,1
2,32240,30374,34416,46650,37944,-4116,-451,-1913,197,-231,320,108,588,-290,1,0,31,7,480,0,53298,1
2,31701,30368,33818,46651,37968,-4102,-470,-1884,-190,-288,280,104,592,-282,1,0,31,7,520,0,53298,1
2,32116,30350,34316,46652,37992,-4133,-396,-1911,-878,-344,133,99,591,-299,1,0,31,7,560,0,53298,1
2,31985,30798,34220,46653,38015,-4151,-377,-1925,-1277,-352,10,101,601,-275,1,0,31,7,600,0,53298,1
2,32035,30632,34200,46654,38038,-4128,-373,-1952,-836,-213,42,106,594,-280,1,0,31,7,640,0,53298,1
2,32158,30307,34318,46655,38062,-4138,-363,-1925,-140,-7,105,100,596,-288,1,0,31,7,680,0,53298,1
2,31706,31926,33787,46656,38086,-4167,-341,-1905,191,101,101,104,592,-286,1,0,31,7,720,0,53298,1
2,31746,33838,33826,46657,38111,-4134,-356,-1902,241,69,66,111,585,-289,1,0,31,7,760,0,53298,1
2,31606,30157,33678,46658,38135,-4110,-400,-1946,155,-1,33,108,602,-292,1,0,31,7,800,0,53298,1
2,31518,31122,33631,46659,38158,-4115,-422,-1961,12,-51,30,102,592,-290,1,0,31,7,840,0,53298,1
2,31552,30112,33660,46660,38183,-4107,-405,-1967,-120,-107,59,100,588,-284,1,0,31,7,880,0,53298,1
2,31533,30358,33644,46661,38207,-4109,-377,-1931,-135,-135,100,109,595,-283,1,0,31,7,920,0,53298,1
2,31510,30109,33623,46662,38231,-4138,-358,-1926,-56,-101,141,102,602,-286,1,0,31,7,960,0,53298,1
1,31525,33248,33639,46663,0,-4143,-352,-1908,57,-23,143,104,592,-290,1,0,31,8,0,0,53298,1
2,31513,30782,33639,46664,37225,-4137,-338,-1901,67,35,86,104,590,-286,1,0,31,8,40,0,53298,1
2,31494,32480,33595,46665,37249,-4134,-370,-1934,67,55,32,100,596,-284,1,0,31,8,80,0,53298,1
2,31492,32840,33614,46666,37273,-4127,-385,-1938,142,71,14,103,601,-277,1,0,31,8,120,0,53298,1
2,31489,30951,33626,46667,37297,-4122,-384,-1938,230,119,15,105,599,-291,1,0,31,8,160,0,53298,1
2,31534,30043,33688,46668,37320,-4129,-393,-1958,256,136,18,98,596,-290,1,0,31,8,200,0,53298,1
2,31544,30127,33710,46669,37342,-4122,-389,-1960,233,81,32,96,594,-288,1,0,31,8,240,0,53298,1
2,31537,30099,33732,46670,37366,-4127,-408,-1958,159,28,60,109,595,-293,1,0,31,8,280,0,53298,1
2,31515,30046,33688,46671,37389,-4125,-402,-1962,6,-30,84,99,597,-291,1,0,31,8,320,0,53298,1
2,31530,30107,33703,46672,37412,-4113,-372,-1948,-117,-81,83,95,605,-291,1,0,31,8,360,0,53298,1
2,31528,30128,33696,46673,37436,-4123,-362,-1936,-99,-84,69,98,594,-286,1,0,31,8,400,0,53298,1
2,31518,30000,33689,46674,37461,-4130,-351,-1925,-12,-38,58,97,589,-287,1,0,31,8,440,0,53298,1
2,31506,30208,33672,46675,37485,-4135,-382,-1917,49,-2,27,98,598,-288,1,0,31,8,480,0,53298,1
2,31521,30077,33707,46676,37509,-4131,-378,-1929,127,48,1,106,596,-292,1,0,31,8,520,0,53298,1
2,31543,30019,33735,46677,37533,-4130,-398,-1955,160,56,-14,101,595,-279,1,0,31,8,560,0,53298,1
2,31545,30101,33729,46678,37557,-4129,-444,-2008,39,23,-35,94,592,-292,1,0,31,8,600,0,53298,1
2,31538,30038,33592,46679,37580,-4106,-557,-2286,-621,74,-226,97,591,-289,1,0,31,8,640,0,53298,1
2,31535,30099,33043,46680,37603,-4618,-526,-2607,-4251,128,-687,107,605,-275,1,0,31,8,680,0,53298,1
2,31785,31511,32679,46681,37627,-4490,221,-1672,-12534,-748,-1383,107,593,-291,1,0,31,8,720,0,53298,1
2,31680,31573,32057,46682,37650,-4615,662,-2070,-13498,229,-1545,110,592,-286,1,0,31,8,760,0,53298,1
2,31555,30565,31746,46683,37674,-3365,1692,-1582,-2114,-453,2539,106,586,-286,1,0,31,8,800,0,53298,1
2,31357,30079,31704,46684,37697,-3517,1229,-1824,-2632,-416,6169,105,579,-287,1,0,31,8,840,0,53298,1
2,31542,30405,31881,46685,37721,-3812,839,-1888,-6837,567,7810,83,573,-281,1,0,31,8,880,0,53298,1
2,31517,30199,31829,46686,37744,-4126,316,-1405,-7459,979,8496,64,548,-270,1,0,31,8,920,0,53298,1
2,31482,30059,31829,46687,37766,-4346,164,-905,-5712,304,8501,51,523,-279,1,0,31,8,960,0,53298,1
1,31471,30496,31808,46688,0,-4417,12,-793,-3507,-1498,7750,34,506,-272,1,0,31,9,0,0,53298,1
2,31434,30483,31783,46689,36775,-4394,17,-564,-2138,-3887,6172,30,496,-264,1,0,31,9,40,0,53298,1
2,31429,30464,31774,46690,36797,-4328,-152,-767,-2945,-5779,3894,26,486,-250,1,0,31,9,80,0,53298,1
2,31420,30445,31788,46691,36818,-4232,-128,-983,-4267,-6414,1069,27,479,-227,1,0,31,9,120,0,53298,1
2,31411,30390,31789,46692,36839,-4240,82,-1053,-2960,-7131,-1422,27,475,-221,1,0,31,9,160,0,53298,1
2,31370,30091,31748,46693,36860,-4292,396,-1442,-1547,-7236,-3437,55,475,-205,1,0,31,9,200,0,53298,1
2,31363,30138,31750,46694,36881,-4248,661,-1534,495,-6547,-4754,62,466,-196,1,0,31,9,240,0,53298,1
2,31364,30167,31765,46695,36903,-4126,860,-1539,1734,-5124,-5325,75,467,-187,1,0,31,9,280,0,53298,1
2,31357,30162,31749,46696,36925,-4132,790,-1432,2309,-3527,-5265,78,472,-176,1,0,31,9,320,0,53298,1
2,31350,30177,31743,46697,36947,-4183,836,-1321,2740,-2507,-4707,91,481,-175,1,0,31,9,360,0,53298,1
2,31353,30192,31745,46698,36969,-4029,725,-1168,2582,-1813,-3995,93,479,-157,1,0,31,9,400,0,53298,1
2,31345,30122,31776,46699,36990,-4094,1024,-1432,1668,-1165,-3677,102,474,-168,1,0,31,9,440,0,53298,1
2,31345,30551,31810,46700,37011,-4467,2353,-1313,-1093,984,-1139,109,481,-163,1,0,31,9,480,0,53298,1
2,31405,30116,31846,46701,37032,-4957,379,-203,4196,-580,1583,103,481,-165,1,0,31,9,520,0,53298,1
2,31421,30363,31832,46702,37052,-4536,-165,-346,314,-143,771,98,482,-162,1,0,31,9,560,0,53298,1
2,31415,30191,31759,46703,37074,-4112,386,-985,-1543,-172,-443,95,481,-165,1,0,31,9,600,0,53298,1
2,31358,30625,31778,46704,37095,-4317,682,-847,-233,64,-231,97,487,-153,1,0,31,9,640,0,53298,1
2,31384,30380,31790,46705,37118,-4607,480,-520,646,123,142,95,485,-151,1,0,31,9,680,0,53298,1
2,31393,30106,31806,46706,37140,-4341,472,-693,478,8,126,98,480,-164,1,0,31,9,720,0,53298,1
2,31408,30095,31815,46707,37161,-4257,525,-811,199,-12,95,103,483,-177,1,0,31,9,760,0,53298,1
2,31399,30097,31810,46708,37183,-4450,513,-700,-142,121,12,107,479,-171,1,0,31,9,800,0,53298,1
2,31424,30238,31835,46709,37204,-4397,476,-702,48,23,-35,90,474,-156,1,0,31,9,840,0,53298,1
2,31420,30435,31831,46710,37226,-4306,471,-739,220,-37,-20,106,490,-156,1,0,31,9,880,0,53298,1
2,31395,30080,31752,46711,37247,-4378,502,-692,162,35,18,100,484,-166,1,0,31,9,920,0,53298,1
2,31412,30360,31843,46712,37269,-4390,490,-711,87,55,58,96,478,-166,1,0,31,9,960,0,53298,1
1,31427,30348,31840,46713,0,-4353,444,-782,282,57,127,99,477,-175,1,0,31,10,0,0,53298,1
2,31412,30128,31817,46714,36327,-4360,493,-710,831,74,223,102,474,-162,1,0,31,10,40,0,53298,1
2,31339,30595,31755,46715,36349,-4378,549,-665,1372,93,306,85,473,-171,1,0,31,10,80,0,53298,1
2,31428,30101,31826,46716,36371,-4368,521,-669,1651,196,359,95,475,-165,1,0,31,10,120,0,53298,1
2,31422,30074,31808,46717,36393,-4384,503,-717,1603,422,416,92,488,-160,1,0,31,10,160,0,53298,1
2,31432,30074,31814,46718,36414,-4370,504,-775,1459,632,344,92,478,-172,1,0,31,10,200,0,53298,1
2,31350,31656,31710,46719,36435,-4345,506,-839,1464,746,244,88,480,-166,1,0,31,10,240,0,53298,1
2,31392,30370,31759,46720,36456,-4334,496,-870,1348,787,163,92,478,-172,1,0,31,10,280,0,53298,1
2,31353,31740,31699,46721,36477,-4351,480,-923,980,701,105,91,473,-165,1,0,31,10,320,0,53298,1
2,31368,31144,31722,46722,36498,-4337,481,-969,541,475,17,94,480,-180,1,0,31,10,360,0,53298,1
2,31349,32310,31682,46723,36520,-4319,458,-964,372,228,-84,92,478,-176,1,0,31,10,400,0,53298,1
2,31408,30233,31748,46724,36541,-4347,473,-891,409,65,-123,92,484,-180,1,0,31,10,440,0,53298,1
2,31388,30131,31730,46725,36562,-4341,485,-858,317,33,-42,91,477,-179,1,0,31,10,480,0,53298,1
2,31409,34104,31683,46726,36584,-4343,489,-904,20,68,57,94,484,-182,1,0,31,10,520,0,53298,1
2,31335,31328,31630,46727,36606,-4345,465,-921,-28,73,118,92,486,-182,1,0,31,10,560,0,53298,1
2,31372,30182,31678,46728,36626,-4349,489,-899,202,32,120,95,477,-177,1,0,31,10,600,0,53298,1
2,31381,30114,31681,46729,36647,-4336,497,-893,266,28,63,89,481,-179,1,0,31,10,640,0,53298,1
2,31320,31550,31611,46730,36668,-4343,481,-921,34,19,-6,86,478,-180,1,0,31,10,680,0,53298,1
2,31312,31318,31585,46731,36689,-4343,466,-920,-144,-28,-20,96,476,-182,1,0,31,10,720,0,53298,1
2,31332,30938,31607,46732,36710,-4338,470,-915,-148,-126,16,97,475,-183,1,0,31,10,760,0,53298,1
2,31338,30520,31619,46733,36732,-4331,490,-907,-145,-197,56,83,479,-177,1,0,31,10,800,0,53298,1
2,31346,30298,31621,46734,36752,-4338,492,-892,-192,-211,78,96,480,-172,1,0,31,10,840,0,53298,1
2,31310,30883,31577,46735,36774,-4345,477,-888,-214,-193,106,91,477,-167,1,0,31,10,880,0,53298,1
2,31299,32563,31533,46736,36795,-4330,494,-878,-135,-144,127,94,480,-172,1,0,31,10,920,0,53298,1
2,31301,32652,31529,46737,36817,-4328,521,-868,10,-86,171,87,479,-171,1,0,31,10,960,0,53298,1
1,31303,32920,31518,46738,0,-4338,501,-873,24,-17,137,85,487,-181,1,0,31,11,0,0,53298,1
2,31300,32630,31520,46739,35880,-4330,492,-872,69,20,121,91,487,-175,1,0,31,11,40,0,53298,1
2,31295,31870,31523,46740,35901,-4331,511,-868,110,28,86,91,473,-179,1,0,31,11,80,0,53298,1
2,31323,30551,31554,46741,35922,-4344,505,-882,90,54,46,98,474,-178,1,0,31,11,120,0,53298,1
2,31325,30464,31555,46742,35943,-4324,501,-882,89,56,18,89,481,-183,1,0,31,11,160,0,53298,1
2,31319,30685,31541,46743,35964,-4343,509,-884,97,57,4,107,479,-183,1,0,31,11,200,0,53298,1
2,31295,31478,31525,46744,35984,-4337,488,-868,66,54,-8,89,477,-175,1,0,31,11,240,0,53298,1
2,31300,32026,31513,46745,36006,-4332,510,-901,46,51,-9,92,480,-172,1,0,31,11,280,0,53298,1
2,31294,32734,31499,46746,36027,-4341,493,-897,13,25,5,90,470,-172,1,0,31,11,320,0,53298,1
2,31294,33042,31488,46747,36049,-4326,492,-892,-13,-8,20,92,486,-178,1,0,31,11,360,0,53298,1
2,31288,32395,31493,46748,36070,-4334,504,-898,-14,-46,23,90,480,-174,1,0,31,11,400,0,53298,1
2,31288,32050,31505,46749,36091,-4339,500,-888,-31,-46,17,92,482,-172,1,0,31,11,440,0,53298,1
2,31297,31289,31505,46750,36112,-4335,498,-881,-37,-41,-3,87,483,-171,1,0,31,11,480,0,53298,1
2,31295,31481,31499,46751,36133,-4334,489,-880,-10,-31,-11,93,483,-183,1,0,31,11,520,0,53298,1
2,31294,31227,31497,46752,36155,-4354,490,-899,-14,-15,-10,89,475,-187,1,0,31,11,560,0,53298,1
2,31287,31352,31483,46753,36176,-4344,487,-891,-25,-16,-15,96,478,-180,1,0,31,11,600,0,53298,1
2,31278,31580,31483,46754,36197,-4346,479,-889,-33,-17,-19,91,491,-175,1,0,31,11,640,0,53298,1
2,31278,31971,31464,46755,36218,-4339,481,-899,-48,-23,0,92,486,-176,1,0,31,11,680,0,53298,1
2,31275,32694,31442,46756,36240,-4336,495,-879,-1,-30,16,97,479,-181,1,0,31,11,720,0,53298,1
2,31279,33185,31437,46757,36262,-4341,487,-880,28,10,23,85,481,-181,1,0,31,11,760,0,53298,1
2,31271,32885,31430,46758,36284,-4336,492,-881,53,46,6,87,481,-173,1,0,31,11,800,0,53298,1
2,31269,32720,31425,46759,36307,-4341,485,-882,81,90,8,90,476,-176,1,0,31,11,840,0,53298,1
2,31267,32658,31424,46760,36329,-4338,483,-901,142,96,16,97,487,-181,1,0,31,11,880,0,53298,1
2,31265,32355,31425,46761,36352,-4344,497,-895,196,118,24,85,487,-171,1,0,31,11,920,0,53298,1
2,31273,32478,31433,46762,36374,-4327,498,-893,193,142,11,91,483,-177,1,0,31,11,960,0,53298,1
1,31270,32910,31425,46763,0,-4341,498,-910,134,138,-31,93,485,-175,1,0,31,12,0,1,53298,1
2,31276,32641,31423,46764,35434,-4338,480,-925,61,65,-62,95,467,-175,1,0,31,12,40,1,53298,1
2,31277,33010,31422,46765,35456,-4328,484,-929,-15,-21,-67,87,485,-175,1,0,31,12,80,1,53298,1
2,31270,33038,31423,46766,35479,-4332,486,-916,-72,-91,-53,82,478,-172,1,0,31,12,120,1,53298,1
2,31269,32943,31427,46767,35502,-4344,480,-899,-156,-119,-60,90,482,-180,1,0,31,12,160,1,53298,1
2,31266,32850,31416,46768,35525,-4362,467,-895,-223,-134,-54,91,479,-181,1,0,31,12,200,1,53298,1
2,31267,32912,31411,46769,35546,-4336,480,-874,-169,-147,-49,96,478,-182,1,0,31,12,240,1,53298,1
2,31265,32560,31415,46770,35568,-4346,476,-881,-140,-125,-21,97,489,-181,1,0,31,12,280,1,53298,1
2,31267,32513,31419,46771,35590,-4339,485,-874,-72,-85,40,85,483,-171,1,0,31,12,320,1,53298,1
2,31263,32686,31402,46772,35612,-4351,476,-871,-27,-38,78,94,474,-180,1,0,31,12,360,1,53298,1
2,31266,31220,31436,46773,35634,-4353,501,-887,-6,-2,77,97,475,-177,1,0,31,12,400,1,53298,1
2,31269,31514,31434,46774,35656,-4348,514,-899,-5,3,17,94,474,-176,1,0,31,12,440,1,53298,1
2,31264,31625,31426,46775,35678,-4407,560,-873,-121,-52,-146,91,485,-179,1,0,31,12,480,1,53298,1
2,31265,32781,31415,46776,35701,-4348,514,-890,-433,-357,-368,91,481,-177,1,0,31,12,520,1,53298,1
2,31282,33574,31416,46777,35723,-4215,294,-853,-631,-443,-222,102,472,-186,1,0,31,12,560,1,53298,1
2,31265,31431,31433,46778,35746,-4422,452,-1038,-1529,-258,-309,98,480,-182,1,0,31,12,600,1,53298,1
2,31277,30741,31458,46779,35768,-4385,559,-786,-848,-409,-279,101,479,-181,1,0,31,12,640,1,53298,1
2,31287,30642,31473,46780,35791,-4301,466,-687,-519,-555,-15,96,478,-176,1,0,31,12,680,1,53298,1
2,31288,30332,31494,46781,35813,-4334,272,-822,-606,-467,165,91,485,-165,1,0,31,12,720,1,53298,1
2,31233,29978,31351,46782,35836,-4365,501,-751,172,-140,141,96,478,-176,1,0,31,12,760,1,53298,1
2,31217,30059,31335,46783,35859,-4402,653,-650,783,117,180,87,489,-183,1,0,31,12,800,1,53298,1
2,31234,30002,31365,46784,35881,-4415,576,-866,139,241,254,93,475,-177,1,0,31,12,840,1,53298,1
2,31238,30000,31370,46785,35904,-4377,547,-911,39,233,509,103,471,-173,1,0,31,12,880,1,53298,1
2,31278,30036,31436,46786,35926,-4239,939,-1063,346,132,902,90,482,-182,1,0,31,12,920,1,53298,1
2,31284,30044,31446,46787,35948,-4085,1201,-1177,566,341,1726,82,486,-178,1,0,31,12,960,1,53298,1
1,31281,30163,31456,46788,0,-3900,1711,-1272,444,802,3162,78,480,-174,1,0,31,13,0,1,53298,1
2,31279,30668,31461,46789,34985,-4050,1875,-1452,-264,1359,5185,70,462,-188,1,0,31,13,40,1,53298,1
2,31278,33799,31402,46790,35006,-4374,1764,-1746,-2505,2381,7017,60,472,-198,1,0,31,13,80,1,53298,1
2,31264,33789,31402,46791,35029,-4433,1348,-1839,-3685,3484,8461,47,453,-205,1,0,31,13,120,1,53298,1
2,31219,33735,31333,46792,35050,-4426,750,-1801,-2182,4693,9023,32,438,-214,1,0,31,13,160,1,53298,1
2,31235,33626,31390,46793,35071,-4313,335,-1567,45,6259,8400,17,445,-225,1,0,31,13,200,1,53298,1
2,31220,30246,31447,46794,35092,-4315,69,-1242,2579,7264,6697,-14,432,-230,1,0,31,13,240,1,53298,1
2,31278,30114,31491,46795,35113,-4241,-430,-1091,3140,7641,3549,-15,429,-259,1,0,31,13,280,1,53298,1
2,31278,30078,31501,46796,35134,-4360,-1029,-938,4354,6937,-886,-15,437,-263,1,0,31,13,320,1,53298,1
2,31233,30021,31469,46797,35155,-4552,-866,-935,7111,5466,-5936,-2,442,-294,1,0,31,13,360,1,53298,1
2,31192,30097,31353,46798,35177,-4582,-383,-794,10129,3372,-10623,12,474,-308,1,0,31,13,400,1,53298,1
2,31191,30096,31315,46799,35198,-4510,437,-955,8024,1390,-14138,37,493,-327,1,0,31,13,440,1,53298,1
2,31217,30018,31315,46800,35220,-4233,686,-1138,2888,-380,-15777,72,528,-320,1,0,31,13,480,1,53298,1
2,31204,32058,31272,46801,35242,-4230,970,-1354,-1702,-1898,-16032,92,540,-310,1,0,31,13,520,1,53298,1
2,31272,30948,31315,46802,35264,-4089,1376,-1584,-2847,-3048,-14548,128,562,-306,1,0,31,13,560,1,53298,1
2,31331,30044,31415,46803,35287,-3828,892,-1473,-3021,-4122,-11730,161,573,-303,1,0,31,13,600,1,53298,1
2,31494,30146,31714,46804,35310,-3113,1609,-2411,2735,-5586,-10731,178,576,-286,1,0,31,13,640,1,53298,1
2,31514,30096,32110,46805,35335,-3697,2251,-3049,15497,-9581,-4305,184,590,-250,1,0,31,13,680,1,53298,1
2,31301,30028,31845,46806,35360,-4225,-1431,-2674,-1242,9,2448,173,591,-241,1,0,31,13,720,1,53298,1
2,31313,33715,31853,46807,35385,-4614,-1049,-1143,6752,2137,-429,184,594,-260,1,0,31,13,760,1,53298,1
2,31346,30080,32075,46808,35410,-4641,-1122,-857,9144,-565,572,163,601,-241,1,0,31,13,800,1,53298,1
2,31399,30036,32500,46809,35438,-4180,-750,-1699,7347,-1016,1074,174,598,-254,1,0,31,13,840,1,53298,1
2,31465,30614,32844,46810,35466,-4475,-614,-1761,6674,139,967,162,596,-234,1,0,31,13,880,1,53298,1
2,31509,30527,32980,46811,35494,-4673,-651,-1496,2500,929,1222,161,599,-251,1,0,31,13,920,1,53298,1
2,31572,30447,33126,46812,35521,-4378,-850,-1743,-1420,899,1221,164,600,-246,1,0,31,13,960,1,53298,1
1,31580,30204,33110,46813,0,-4178,-1134,-1794,-2472,1618,803,159,599,-251,1,0,31,14,0,0,53298,1
2,31680,30152,33131,46814,34543,-4213,-1086,-1663,-1995,1698,558,155,591,-251,1,0,31,14,40,0,53298,1
2,31710,30075,33251,46815,34568,-4260,-1023,-1765,-832,1337,336,152,596,-258,1,0,31,14,80,0,53298,1
2,31796,30339,33607,46816,34594,-4316,-811,-1760,233,896,151,151,599,-263,1,0,31,14,120,0,53298,1
2,31792,30751,33626,46817,34620,-4309,-722,-1721,602,688,-6,156,592,-254,1,0,31,14,160,0,53298,1
2,31756,30406,33773,46818,34645,-4234,-789,-1699,207,870,-165,148,598,-250,1,0,31,14,200,0,53298,1
2,31784,30503,33812,46819,34671,-4160,-807,-1701,-133,972,-50,153,589,-257,1,0,31,14,240,0,53298,1
2,31822,30617,33904,46820,34697,-4249,-842,-1762,31,775,186,149,593,-257,1,0,31,14,280,0,53298,1
2,31814,30104,33893,46821,34722,-4218,-884,-1823,144,514,329,160,596,-270,1,0,31,14,320,0,53298,1
2,31540,30108,33577,46822,34748,-4233,-823,-1808,204,298,347,155,593,-267,1,0,31,14,360,0,53298,1
2,31692,30417,33542,46823,34773,-4245,-853,-1732,-305,217,307,153,593,-275,1,0,31,14,400,0,53298,1
2,31761,30607,33351,46824,34798,-4214,-903,-1736,-914,44,302,148,598,-268,1,0,31,14,440,0,53298,1
2,31758,30432,33314,46825,34822,-4195,-820,-1793,-1868,-72,33,152,592,-266,1,0,31,14,480,0,53298,1
2,31912,30481,33493,46826,34845,-4304,-434,-1799,-1817,92,23,151,603,-267,1,0,31,14,520,0,53298,1
2,31814,30350,33477,46827,34869,-4272,-617,-1795,-1048,262,-13,146,592,-272,1,0,31,14,560,0,53298,1
2,31885,30406,33622,46828,34892,-4179,-763,-1782,258,174,-6,143,609,-263,1,0,31,14,600,0,53298,1
2,31761,30413,33495,46829,34917,-4203,-835,-1789,5,184,-8,148,592,-276,1,0,31,14,640,0,53298,1
2,31778,30313,33476,46830,34941,-4244,-756,-1836,-254,68,33,142,598,-260,1,0,31,14,680,0,53298,1
2,31688,30065,33412,46831,34965,-4232,-695,-1812,-148,-97,92,155,601,-269,1,0,31,14,720,0,53298,1
2,31887,30234,33635,46832,34989,-4221,-711,-1772,-214,-153,104,156,594,-266,1,0,31,14,760,0,53298,1
2,31712,30405,33429,46833,35013,-4212,-711,-1775,-252,-56,59,156,600,-278,1,0,31,14,800,0,53298,1
2,31803,30344,33505,46834,35036,-4227,-717,-1794,-80,51,51,155,605,-271,1,0,31,14,840,0,53298,1
2,31831,30374,33573,46835,35060,-4234,-740,-1795,93,55,67,155,603,-269,1,0,31,14,880,0,53298,1
2,31677,30043,33390,46836,35083,-4212,-724,-1797,62,28,45,147,599,-269,1,0,31,14,920,0,53298,1
2,31630,30095,33350,46837,35108,-4232,-726,-1793,13,43,31,146,608,-260,1,0,31,14,960,0,53298,1
1,31667,30067,33397,46838,0,-4222,-730,-1804,-27,21,37,147,591,-281,1,0,31,15,0,0,53298,1
2,31700,30199,33431,46839,34096,-4225,-717,-1793,-49,2,26,154,592,-258,1,0,31,15,40,0,53298,1
2,31750,30437,33519,46840,34120,-4211,-714,-1793,-17,-1,24,146,602,-266,1,0,31,15,80,0,53298,1
2,31768,30391,33565,46841,34144,-4213,-728,-1792,-3,10,26,152,602,-260,1,0,31,15,120,0,53298,1
2,31813,30354,33596,46842,34169,-4230,-721,-1784,-7,21,28,145,593,-269,1,0,31,15,160,0,53298,1
2,31847,30323,33632,46843,34192,-4221,-724,-1791,11,16,39,155,597,-265,1,0,31,15,200,0,53298,1
2,31848,30283,33638,46844,34216,-4226,-719,-1803,3,10,42,148,592,-264,1,0,31,15,240,0,53298,1
2,31884,30266,33685,46845,34240,-4220,-721,-1794,-30,2,48,144,604,-256,1,0,31,15,280,0,53298,1
2,31881,30273,33686,46846,34264,-4221,-724,-1797,-28,-3,37,162,602,-274,1,0,31,15,320,0,53298,1
2,31881,30292,33683,46847,34288,-4216,-724,-1797,-13,-2,24,143,601,-269,1,0,31,15,360,0,53298,1
2,31888,30308,33695,46848,34312,-4227,-732,-1799,2,2,32,144,590,-270,1,0,31,15,400,0,53298,1
2,31879,30246,33623,46849,34336,-4229,-727,-1794,3,18,37,141,597,-263,1,0,31,15,440,0,53298,1
2,31710,30171,33475,46850,34360,-4215,-719,-1797,12,23,40,148,600,-264,1,0,31,15,480,0,53298,1
2,31690,30175,33445,46851,34384,-4227,-730,-1794,8,16,43,141,601,-267,1,0,31,15,520,0,53298,1
2,31687,30240,33439,46852,34407,-4221,-722,-1794,7,13,54,150,602,-266,1,0,31,15,560,0,53298,1
2,31683,30177,33437,46853,34431,-4226,-725,-1802,10,4,35,152,598,-268,1,0,31,15,600,0,53298,1
2,31679,30096,33430,46854,34455,-4228,-742,-1790,8,2,31,150,594,-266,1,0,31,15,640,0,53298,1
2,31680,30098,33438,46855,34479,-4213,-709,-1807,2,7,35,147,597,-269,1,0,31,15,680,0,53298,1
2,31680,30053,33439,46856,34502,-4228,-726,-1792,26,13,33,142,596,-266,1,0,31,15,720,0,53298,1
2,31680,30044,33445,46857,34525,-4217,-726,-1791,27,8,23,151,603,-265,1,0,31,15,760,0,53298,1
2,31691,30062,33461,46858,34549,-4214,-729,-1810,8,9,29,152,606,-264,1,0,31,15,800,0,53298,1
2,31695,30069,33472,46859,34571,-4226,-719,-1798,2,8,42,147,595,-263,1,0,31,15,840,0,53298,1
2,31705,30053,33475,46860,34593,-4221,-717,-1801,3,7,42,150,602,-262,1,0,31,15,880,0,53298,1
2,31712,30060,33492,46861,34616,-4232,-717,-1795,1,15,34,153,595,-255,1,0,31,15,920,0,53298,1
2,31727,30083,33516,46862,34640,-4221,-708,-1798,9,3,29,150,598,-262,1,0,31,15,960,0,53298,1
1,31738,30258,33508,46863,0,-4228,-736,-1794,29,6,27,144,604,-270,1,0,31,16,0,1,53298,1
2,31724,30756,33512,46864,33650,-4213,-720,-1807,9,-2,41,157,595,-277,1,0,31,16,40,1,53298,1
2,31740,31736,33538,46865,33673,-4216,-733,-1796,1,-6,27,143,603,-271,1,0,31,16,80,1,53298,1
2,31737,32047,33525,46866,33697,-4218,-715,-1796,-2,-1,39,153,597,-271,1,0,31,16,120,1,53298,1
2,31748,32511,33550,46867,33721,-4216,-719,-1802,4,-7,37,142,606,-260,1,0,31,16,160,1,53298,1
2,31767,32849,33581,46868,33745,-4224,-728,-1801,4,-4,39,150,596,-270,1,0,31,16,200,1,53298,1
2,31796,33394,33603,46869,33770,-4222,-714,-1814,11,1,34,149,593,-267,1,0,31,16,240,1,53298,1
2,31798,33587,33601,46870,33795,-4226,-719,-1795,14,6,25,149,603,-263,1,0,31,16,280,1,53298,1
2,31819,33782,33616,46871,33820,-4216,-720,-1783,21,4,26,154,600,-264,1,0,31,16,320,1,53298,1
2,31814,33808,33625,46872,33845,-4227,-724,-1808,17,12,25,155,593,-265,1,0,31,16,360,1,53298,1
2,31813,33658,33623,46873,33870,-4210,-706,-1795,29,9,22,153,595,-267,1,0,31,16,400,1,53298,1
2,31821,33774,33616,46874,33895,-4219,-730,-1791,27,11,35,142,600,-276,1,0,31,16,440,1,53298,1
2,31815,33778,33601,46875,33920,-4210,-725,-1798,5,2,34,154,596,-266,1,0,31,16,480,1,53298,1
2,31809,33633,33607,46876,33945,-4239,-728,-1812,11,3,38,153,595,-257,1,0,31,16,520,1,53298,1
2,31802,33437,33600,46877,33969,-4239,-718,-1813,5,-8,29,146,600,-260,1,0,31,16,560,1,53298,1
2,31791,33225,33540,46878,33993,-4309,-739,-1941,-227,-77,-17,142,594,-270,1,0,31,16,600,1,53298,1
2,31785,33179,33212,46879,34018,-4439,-636,-2176,-1797,-311,-31,149,597,-273,1,0,31,16,640,1,53298,1
2,31883,31838,32693,46880,34042,-4572,-467,-2260,-8557,-1455,-20,153,599,-265,1,0,31,16,680,1,53298,1
2,31915,30712,32491,46881,34067,-4020,441,-2461,-13528,-1214,596,153,591,-263,1,0,31,16,720,1,53298,1
2,31733,30375,32082,46882,34090,-3859,1071,-1717,-7120,59,3697,144,594,-256,1,0,31,16,760,1,53298,1
2,31523,31479,31935,46883,34115,-3876,2323,-692,4238,-613,9514,121,583,-267,1,0,31,16,800,1,53298,1
2,31469,32628,31845,46884,34139,-4449,1453,-1102,-4098,-1371,12556,86,560,-260,1,0,31,16,840,1,53298,1
2,31464,33182,31797,46885,34163,-4888,20,-1246,-10781,-1602,11986,69,539,-251,1,0,31,16,880,1,53298,1
2,31420,33244,31768,46886,34186,-5362,-1154,-601,-12556,-2777,9398,52,512,-240,1,0,31,16,920,1,53298,1
2,31411,33327,31784,46887,34208,-5191,-1534,-157,-9631,-5084,6039,53,495,-223,1,0,31,16,960,1,53298,1
1,31415,33542,31784,46888,0,-4719,-977,-573,-4164,-7498,2558,49,485,-207,1,0,31,17,0,1,53298,1
2,31391,33465,31772,46889,33202,-4316,-311,-412,616,-9486,-295,66,476,-200,1,0,31,17,40,1,53298,1
2,31391,33766,31766,46890,33223,-3940,253,-663,-219,-9821,-2837,79,473,-181,1,0,31,17,80,1,53298,1
2,31401,34033,31788,46891,33245,-3787,637,-932,-1274,-9125,-4146,93,463,-159,1,0,31,17,120,1,53298,1
2,31416,34284,31822,46892,33267,-3982,849,-1249,-367,-7982,-4260,118,466,-166,1,0,31,17,160,1,53298,1
2,31408,34098,31801,46893,33290,-4313,823,-1302,1181,-6432,-3769,122,468,-142,1,0,31,17,200,1,53298,1
2,31402,33933,31806,46894,33312,-4533,974,-1217,2929,-4698,-2997,127,459,-135,1,0,31,17,240,1,53298,1
2,31397,33959,31802,46895,33333,-4390,1054,-992,3529,-3097,-2098,127,463,-135,1,0,31,17,280,1,53298,1
2,31394,33967,31809,46896,33355,-4261,865,-750,2667,-1442,-1202,131,459,-135,1,0,31,17,320,1,53298,1
2,31386,33983,31799,46897,33377,-4233,629,-618,1231,-57,-701,126,460,-140,1,0,31,17,360,1,53298,1
2,31383,33931,31800,46898,33399,-4471,442,-538,1396,1342,-532,131,461,-139,1,0,31,17,400,1,53298,1
2,31422,34034,31867,46899,33421,-4406,338,-49,3869,1649,-126,119,461,-139,1,0,31,17,440,1,53298,1
2,31367,33135,31810,46900,33442,-4272,30,-86,1763,1838,-1037,120,470,-138,1,0,31,17,480,1,53298,1
2,31367,31448,31841,46901,33464,-4603,1067,-254,627,1239,-1214,116,458,-144,1,0,31,17,520,1,53298,1
2,31385,30577,31867,46902,33486,-5393,744,-106,682,354,-194,119,461,-137,1,0,31,17,560,1,53298,1
2,31391,30199,31865,46903,33508,-4374,58,-301,463,-6,-378,125,467,-135,1,0,31,17,600,1,53298,1
2,31411,30459,31875,46904,33530,-4219,332,-397,436,228,-141,127,455,-135,1,0,31,17,640,1,53298,1
2,31418,30482,31859,46905,33551,-4555,338,-285,1142,426,377,118,466,-142,1,0,31,17,680,1,53298,1
2,31429,30580,31884,46906,33572,-4528,497,-265,1218,684,437,122,468,-140,1,0,31,17,720,1,53298,1
2,31419,30490,31876,46907,33593,-4431,421,-365,1025,861,213,120,454,-142,1,0,31,17,760,1,53298,1
2,31423,30275,31864,46908,33614,-4468,406,-431,753,921,-24,110,462,-150,1,0,31,17,800,1,53298,1
2,31414,30170,31865,46909,33635,-4491,406,-446,400,825,-250,127,457,-149,1,0,31,17,840,1,53298,1
2,31413,30450,31858,46910,33656,-4456,314,-514,306,544,-343,120,460,-152,1,0,31,17,880,1,53298,1
2,31420,30220,31857,46911,33679,-4455,330,-488,341,277,-270,120,460,-152,1,0,31,17,920,1,53298,1
2,31433,30649,31872,46912,33701,-4437,361,-468,253,55,-109,125,461,-145,1,0,31,17,960,1,53298,1
1,31433,30587,31875,46913,0,-4453,360,-450,37,-30,74,116,472,-138,1,0,31,18,0,1,53298,1
2,31432,30677,31875,46914,32756,-4442,375,-437,10,-54,159,116,460,-148,1,0,31,18,40,1,53298,1
2,31437,30693,31870,46915,32777,-4445,388,-420,139,-25,136,122,456,-152,1,0,31,18,80,1,53298,1
2,31438,30643,31877,46916,32799,-4454,386,-433,197,69,56,123,465,-153,1,0,31,18,120,1,53298,1
2,31443,30746,31877,46917,32821,-4446,381,-430,132,177,-13,118,468,-152,1,0,31,18,160,1,53298,1
2,31440,30742,31878,46918,32843,-4456,355,-486,61,203,-33,131,459,-147,1,0,31,18,200,1,53298,1
2,31441,30733,31872,46919,32865,-4457,357,-481,79,146,-10,120,464,-150,1,0,31,18,240,1,53298,1
2,31440,30735,31872,46920,32887,-4456,369,-469,95,48,22,126,458,-150,1,0,31,18,280,1,53298,1
2,31439,30677,31879,46921,32910,-4453,380,-466,30,-11,23,120,468,-148,1,0,31,18,320,1,53298,1
2,31429,30378,31857,46922,32933,-4446,366,-455,9,-39,7,109,461,-147,1,0,31,18,360,1,53298,1
2,31439,30728,31872,46923,32955,-4461,362,-466,17,-1,6,111,463,-149,1,0,31,18,400,1,53298,1
2,31424,30632,31850,46924,32977,-4460,366,-475,38,36,15,119,461,-141,1,0,31,18,440,1,53298,1
2,31417,30646,31834,46925,32998,-4447,363,-471,26,60,5,117,477,-157,1,0,31,18,480,1,53298,1
2,31419,30505,31833,46926,33020,-4444,370,-483,17,53,19,116,466,-150,1,0,31,18,520,1,53298,1
2,31415,30573,31828,46927,33043,-4450,357,-476,22,18,24,121,463,-151,1,0,31,18,560,1,53298,1
2,31414,30588,31829,46928,33065,-4453,366,-472,11,-19,26,117,473,-147,1,0,31,18,600,1,53298,1
2,31417,30667,31829,46929,33087,-4457,371,-456,7,-31,28,112,462,-142,1,0,31,18,640,1,53298,1
2,31420,30678,31829,46930,33108,-4442,366,-456,-3,-21,19,124,466,-142,1,0,31,18,680,1,53298,1
2,31417,30681,31825,46931,33130,-4455,365,-448,3,-1,21,107,469,-141,1,0,31,18,720,1,53298,1
2,31419,30561,31830,46932,33152,-4449,364,-467,17,6,16,119,459,-155,1,0,31,18,760,1,53298,1
2,31423,30549,31830,46933,33173,-4451,368,-467,7,10,21,126,456,-156,1,0,31,18,800,1,53298,1
2,31421,30642,31832,46934,33195,-4453,353,-483,10,1,20,111,463,-149,1,0,31,18,840,1,53298,1
2,31426,30595,31831,46935,33217,-4447,375,-475,13,-4,24,124,462,-140,1,0,31,18,880,1,53298,1
2,31422,30554,31835,46936,33239,-4436,374,-474,9,4,19,116,456,-140,1,0,31,18,920,1,53298,1
2,31423,30537,31836,46937,33261,-4456,377,-467,5,-4,24,131,463,-153,1,0,31,18,960,1,53298,1
1,31430,30669,31843,46938,0,-4462,366,-473,0,-3,14,126,460,-150,1,0,31,19,0,0,53298,1
2,31431,30668,31845,46939,32309,-4450,373,-468,6,-18,19,118,458,-152,1,0,31,19,40,0,53298,1
2,31434,30669,31856,46940,32330,-4448,369,-475,10,-9,19,120,468,-162,1,0,31,19,80,0,53298,1
2,31433,30645,31850,46941,32351,-4463,363,-477,6,-2,22,107,459,-141,1,0,31,19,120,0,53298,1
2,31435,30570,31857,46942,32373,-4458,363,-470,14,4,23,122,460,-156,1,0,31,19,160,0,53298,1
2,31436,30611,31854,46943,32395,-4448,371,-483,21,8,16,112,460,-150,1,0,31,19,200,0,53298,1
2,31440,30641,31863,46944,32417,-4447,363,-460,11,10,8,118,470,-142,1,0,31,19,240,0,53298,1
2,31439,30698,31857,46945,32439,-4457,367,-485,25,11,14,117,461,-147,1,0,31,19,280,0,53298,1
2,31435,30711,31857,46946,32461,-4451,360,-466,20,5,29,111,467,-157,1,0,31,19,320,0,53298,1
2,31436,30705,31855,46947,32483,-4457,367,-477,4,2,24,122,474,-144,1,0,31,19,360,0,53298,1
2,31435,30634,31852,46948,32504,-4444,369,-467,2,-11,22,121,465,-153,1,0,31,19,400,0,53298,1
2,31435,30657,31858,46949,32525,-4464,364,-474,5,-5,21,122,466,-148,1,0,31,19,440,0,53298,1
2,31435,30663,31847,46950,32546,-4460,364,-469,8,-18,25,120,468,-156,1,0,31,19,480,0,53298,1
2,31433,30600,31848,46951,32567,-4454,365,-472,-2,-1,19,115,455,-153,1,0,31,19,520,0,53298,1
2,31434,30671,31856,46952,32589,-4462,361,-480,11,-1,17,123,463,-151,1,0,31,19,560,0,53298,1
2,31438,30746,31855,46953,32611,-4455,359,-463,22,0,17,115,461,-145,1,0,31,19,600,0,53298,1
2,31436,30754,31854,46954,32632,-4462,353,-486,14,9,21,120,472,-146,1,0,31,19,640,0,53298,1
2,31432,30720,31850,46955,32654,-4447,363,-482,1,-2,26,117,461,-153,1,0,31,19,680,0,53298,1
2,31433,30611,31855,46956,32676,-4450,365,-476,4,-2,22,122,464,-148,1,0,31,19,720,0,53298,1
2,31433,30668,31855,46957,32698,-4460,371,-477,3,-16,21,113,465,-151,1,0,31,19,760,0,53298,1
2,31434,30657,31846,46958,32720,-4453,367,-487,-4,-16,18,122,468,-154,1,0,31,19,800,0,53298,1
2,31437,30679,31849,46959,32741,-4453,359,-478,3,-10,14,118,462,-152,1,0,31,19,840,0,53298,1
2,31432,30449,31845,46960,32763,-4443,378,-471,8,-3,31,128,468,-158,1,0,31,19,880,0,53298,1
2,31429,30340,31841,46961,32785,-4455,371,-481,13,11,40,119,463,-147,1,0,31,19,920,0,53298,1
2,31430,30463,31849,46962,32807,-4461,376,-493,33,7,65,117,453,-157,1,0,31,19,960,0,53298,1
1,31427,30426,31846,46963,0,-4477,364,-469,210,-21,183,116,462,-154,1,0,31,20,0,1,53298,1
2,31430,30480,31843,46964,31865,-4484,484,-558,262,-110,285,118,464,-148,1,0,31,20,40,1,53298,1
2,31424,30453,31836,46965,31888,-4400,391,-557,158,-337,359,102,466,-146,1,0,31,20,80,1,53298,1
2,31421,30456,31834,46966,31909,-4434,356,-414,-134,-485,459,125,457,-151,1,0,31,20,120,1,53298,1
2,31422,30431,31830,46967,31931,-4513,471,-393,-222,-726,526,116,464,-150,1,0,31,20,160,1,53298,1
2,31413,30444,31819,46968,31954,-4435,534,-437,-246,-813,601,111,467,-139,1,0,31,20,200,1,53298,1
2,31409,30428,31815,46969,31977,-4441,657,-440,-120,-692,904,115,463,-147,1,0,31,20,240,1,53298,1
2,31397,30240,31793,46970,32000,-4219,1211,-721,203,-298,1649,122,458,-152,1,0,31,20,280,1,53298,1
2,31400,30338,31799,46971,32024,-3909,1734,-1107,265,761,3185,112,456,-160,1,0,31,20,320,1,53298,1
2,31392,30691,31789,46972,32048,-3941,1833,-1219,-74,2070,5430,92,460,-160,1,0,31,20,360,1,53298,1
2,31391,30738,31785,46973,32072,-4143,1602,-1370,-1482,3748,7382,84,456,-166,1,0,31,20,400,1,53298,1
2,31384,30740,31777,46974,32096,-4508,992,-1526,-2974,5464,8450,67,445,-177,1,0,31,20,440,1,53298,1
2,31378,30743,31768,46975,32120,-4662,404,-1675,-1833,6856,8316,45,433,-193,1,0,31,20,480,1,53298,1
2,31365,30739,31765,46976,32144,-4672,-181,-1635,46,8241,6590,44,430,-214,1,0,31,20,520,1,53298,1
2,31480,30760,31924,46977,32167,-4620,-245,-1509,3261,9383,3989,17,433,-225,1,0,31,20,560,1,53298,1
2,31369,30745,31779,46978,32190,-4358,50,-1471,6374,9762,1007,18,440,-250,1,0,31,20,600,1,53298,1
2,31367,30743,31757,46979,32214,-4132,-138,-1244,7107,9860,-1878,7,443,-263,1,0,31,20,640,1,53298,1
2,31369,30732,31738,46980,32236,-4118,-472,-1111,7075,9501,-4721,4,460,-288,1,0,31,20,680,1,53298,1
2,31371,30733,31738,46981,32259,-4288,-129,-929,7322,8259,-7337,12,466,-310,1,0,31,20,720,1,53298,1
2,31379,30734,31748,46982,32281,-4416,248,-1043,7652,5978,-9372,33,491,-335,1,0,31,20,760,1,53298,1
2,31393,30732,31764,46983,32304,-4453,476,-1175,7324,2989,-10786,46,518,-348,1,0,31,20,800,1,53298,1
2,31413,30736,31799,46984,32327,-4410,791,-1501,3803,517,-11700,78,544,-360,1,0,31,20,840,1,53298,1
2,31445,30735,31844,46985,32350,-4152,1023,-1736,898,-1782,-11267,103,559,-355,1,0,31,20,880,1,53298,1
2,31482,30722,31908,46986,32373,-4046,599,-1569,-2368,-3162,-10076,124,572,-346,1,0,31,20,920,1,53298,1
2,31976,30869,32478,46987,32397,-2209,2163,-1819,-364,-3546,-11419,160,584,-334,1,0,31,20,960,1,53298,1
1,31585,30174,32569,46988,0,-4281,443,-3246,18069,-6063,-12135,189,595,-327,1,0,31,21,0,0,53298,1
2,31515,30145,32272,46989,31422,-4466,248,-1563,-4732,-635,3635,169,591,-331,1,0,31,21,40,0,53298,1
2,31615,30430,32185,46990,31448,-4307,-68,-2043,-12344,1401,4645,155,591,-335,1,0,31,21,80,0,53298,1
2,31500,30508,32190,46991,31473,-4529,-315,-2901,-1216,-281,1579,150,582,-326,1,0,31,21,120,0,53298,1
2,31643,30661,32594,46992,31499,-2635,-1434,-4269,10769,2445,2321,146,578,-328,1,0,31,21,160,0,53298,1
2,31555,30104,32476,46993,31524,-3229,-184,-2310,3582,6675,2650,147,577,-349,1,0,31,21,200,0,53298,1
2,31585,30283,32467,46994,31548,-3812,-179,-2852,-1977,6130,4323,131,567,-365,1,0,31,21,240,0,53298,1
2,31572,30086,32377,46995,31573,-3746,-498,-2626,81,6440,5070,114,558,-378,1,0,31,21,280,0,53298,1
2,31509,30165,32325,46996,31597,-3725,-462,-1987,3295,5311,5356,112,552,-396,1,0,31,21,320,0,53298,1
2,31509,30467,32352,46997,31622,-3999,-859,-1773,3036,4484,4693,101,543,-415,1,0,31,21,360,0,53298,1
2,31485,30419,32260,46998,31646,-3985,-867,-1618,2600,2537,3197,98,530,-416,1,0,31,21,400,0,53298,1
2,31484,30477,32374,46999,31669,-3756,-1006,-1495,3149,847,1457,90,526,-424,1,0,31,21,440,0,53298,1
2,31406,30901,32249,47000,31692,-3733,-790,-1334,5272,-939,1022,91,537,-417,1,0,31,21,480,0,53298,1
2,31415,30002,32218,47001,31715,-3652,-619,-1674,7990,-3133,1436,79,543,-415,1,0,31,21,520,0,53298,1
2,31339,31485,32295,47002,31739,-4361,14,-4015,5903,-3844,3112,82,558,-420,1,0,31,21,560,0,53298,1
2,31446,30739,32526,47003,31764,-3547,986,-4135,-3608,-373,3936,70,562,-408,1,0,31,21,600,0,53298,1
2,31349,32255,32475,47004,31788,-3651,84,-3235,-4936,1557,1305,64,548,-404,1,0,31,21,640,0,53298,1
2,31190,33138,32400,47005,31812,-4171,-894,-1942,-887,-70,661,62,554,-404,1,0,31,21,680,0,53298,1
2,31472,30123,32497,47006,31836,-3788,-635,-2166,7095,-883,2827,60,554,-412,1,0,31,21,720,0,53298,1
2,31434,30115,32360,47007,31860,-3507,-446,-2499,7356,-1057,3536,55,547,-417,1,0,31,21,760,0,53298,1
2,31412,30065,32595,47008,31884,-3701,-551,-2921,2435,-325,2313,48,550,-412,1,0,31,21,800,0,53298,1
2,31402,30035,32604,47009,31907,-3853,-545,-2628,-3263,495,308,52,546,-410,1,0,31,21,840,0,53298,1
2,31295,30325,32510,47010,31931,-3716,-253,-2599,-4334,174,-309,38,536,-406,1,0,31,21,880,0,53298,1
2,31163,30038,32427,47011,31954,-3610,-144,-2702,-2077,-409,317,42,550,-404,1,0,31,21,920,0,53298,1
2,31206,29940,32436,47012,31977,-3645,-203,-2610,-143,-785,902,45,545,-413,1,0,31,21,960,0,53298,1
1,31259,30580,32668,47013,0,-3714,-198,-2512,-1158,-589,708,40,546,-414,1,0,31,22,0,1,53298,1
2,31230,32284,32583,47014,30974,-3734,-121,-2468,-2868,-242,304,39,551,-407,1,0,31,22,40,1,53298,1
2,31293,30359,32606,47015,30997,-3734,-42,-2527,-3196,-149,363,32,552,-412,1,0,31,22,80,1,53298,1
2,31258,32419,32753,47016,31021,-3686,-34,-2554,-2318,-249,618,38,556,-402,1,0,31,22,120,1,53298,1
2,31169,30005,32797,47017,31043,-3678,18,-2492,-1768,-416,481,30,552,-398,1,0,31,22,160,1,53298,1
2,31235,30090,32960,47018,31066,-3703,58,-2452,-2211,-374,384,30,566,-402,1,0,31,22,200,1,53298,1
2,31165,30191,32761,47019,31089,-3720,79,-2452,-2655,-330,390,26,554,-404,1,0,31,22,240,1,53298,1
2,31218,29981,32820,47020,31112,-3734,120,-2457,-2514,-207,397,14,550,-402,1,0,31,22,280,1,53298,1
2,31153,32456,32836,47021,31135,-3746,163,-2427,-1886,-142,391,18,558,-404,1,0,31,22,320,1,53298,1
2,31368,30616,32840,47022,31158,-3735,198,-2413,-1365,-135,338,23,559,-395,1,0,31,22,360,1,53298,1
2,31320,34410,32961,47023,31181,-3738,225,-2410,-1075,-88,240,18,566,-392,1,0,31,22,400,1,53298,1
2,31374,30682,33003,47024,31204,-3723,242,-2391,-844,-18,147,11,557,-391,1,0,31,22,440,1,53298,1
2,31129,30920,32910,47025,31227,-3724,237,-2408,-521,9,100,21,557,-401,1,0,31,22,480,1,53298,1
2,31136,31593,32991,47026,31251,-3729,250,-2390,-220,-5,89,14,558,-394,1,0,31,22,520,1,53298,1
2,31136,29921,32855,47027,31274,-3720,234,-2406,-46,-1,67,15,553,-405,1,0,31,22,560,1,53298,1
2,31110,30009,32845,47028,31297,-3716,230,-2407,87,36,44,17,559,-399,1,0,31,22,600,1,53298,1
2,31150,30093,32844,47029,31320,-3706,224,-2430,167,71,15,15,565,-391,1,0,31,22,640,1,53298,1
2,31116,29953,32847,47030,31343,-3700,182,-2464,199,61,-9,14,556,-398,1,0,31,22,680,1,53298,1
2,31129,30197,32872,47031,31366,-3697,174,-2431,247,44,-3,22,556,-402,1,0,31,22,720,1,53298,1
2,31104,33135,32799,47032,31389,-3711,199,-2424,188,44,25,12,546,-392,1,0,31,22,760,1,53298,1
2,31102,30074,32833,47033,31412,-3693,215,-2443,113,11,37,19,549,-393,1,0,31,22,800,1,53298,1
2,31113,29985,32847,47034,31435,-3706,205,-2431,52,9,28,18,560,-402,1,0,31,22,840,1,53298,1
2,31103,30018,32864,47035,31458,-3707,192,-2428,23,3,43,20,552,-396,1,0,31,22,880,1,53298,1
2,31160,30123,32949,47036,31482,-3704,207,-2425,64,8,56,15,555,-405,1,0,31,22,920,1,53298,1
2,31239,31010,33055,47037,31505,-3699,211,-2438,110,-3,44,24,554,-398,1,0,31,22,960,1,53298,1
1,31222,30273,33075,47038,0,-3698,223,-2426,107,17,41,16,556,-394,1,0,31,23,0,1,53298,1
2,31092,29855,32822,47039,30529,-3691,197,-2437,37,31,27,24,560,-402,1,0,31,23,40,1,53298,1
2,31103,29854,32842,47040,30552,-3692,209,-2454,-57,-2,6,21,563,-395,1,0,31,23,80,1,53298,1
2,31184,30190,32949,47041,30575,-3690,195,-2443,-87,-15,7,8,544,-392,1,0,31,23,120,1,53298,1
2,31175,30164,32957,47042,30599,-3689,208,-2416,-100,8,27,20,558,-392,1,0,31,23,160,1,53298,1
2,31315,30079,33178,47043,30622,-3722,214,-2410,-91,14,58,11,555,-401,1,0,31,23,200,1,53298,1
2,31255,31360,33061,47044,30645,-3722,220,-2407,-45,27,84,18,554,-394,1,0,31,23,240,1,53298,1
2,31180,30681,33002,47045,30669,-3719,204,-2434,63,5,79,13,555,-399,1,0,31,23,280,1,53298,1
2,31304,30063,33153,47046,30692,-3713,193,-2441,149,-26,77,18,550,-402,1,0,31,23,320,1,53298,1
2,31326,30160,33157,47047,30715,-3679,220,-2440,166,-30,70,21,565,-399,1,0,31,23,360,1,53298,1
2,31198,30335,32977,47048,30739,-3685,215,-2434,119,-14,48,21,565,-403,1,0,31,23,400,1,53298,1
2,31156,30414,32944,47049,30762,-3694,219,-2442,35,24,8,23,555,-403,1,0,31,23,440,1,53298,1
2,31119,30144,32868,47050,30786,-3685,215,-2449,-44,31,-13,19,563,-393,1,0,31,23,480,1,53298,1
2,31121,30412,32868,47051,30809,-3706,209,-2433,-22,9,-25,17,559,-387,1,0,31,23,520,1,53298,1
2,31127,30466,32868,47052,30832,-3722,237,-2472,71,-72,15,16,556,-396,1,0,31,23,560,1,53298,1
2,31140,30519,32840,47053,30855,-3778,291,-2487,496,-411,102,9,565,-383,1,0,31,23,600,1,53298,1
2,31159,30536,32747,47054,30878,-3645,405,-2670,817,-554,-182,23,557,-393,1,0,31,23,640,1,53298,1
2,31170,30341,32369,47055,30901,-3099,1609,-2715,-738,1040,252,18,552,-402,1,0,31,23,680,1,53298,1
2,31302,29949,32133,47056,30923,-3471,2186,-2700,-8169,3299,2562,1,539,-387,1,0,31,23,720,1,53298,1
2,31209,29917,31840,47057,30945,-3783,1455,-2313,-12676,2866,5528,-12,514,-376,1,0,31,23,760,1,53298,1
2,31187,30324,31782,47058,30967,-3963,1649,-1697,-10343,1906,8080,-29,491,-365,1,0,31,23,800,1,53298,1
2,31339,30268,31734,47059,30990,-3992,772,-1951,-13078,151,8547,-35,463,-339,1,0,31,23,840,1,53298,1
2,31314,30091,31710,47060,31012,-3914,889,-1862,-9253,-1217,7793,-43,447,-317,1,0,31,23,880,1,53298,1
2,31305,29977,31635,47061,31034,-3780,935,-1233,-9867,-3117,5967,-43,421,-293,1,0,31,23,920,1,53298,1
2,31286,29953,31657,47062,31056,-3567,748,-1433,-8990,-3909,4141,-47,411,-289,1,0,31,23,960,1,53298,1
1,31255,30136,31518,47063,0,-3433,505,-1571,-7414,-4276,1898,-42,408,-260,1,0,31,24,0,1,53298,1
2,31221,31661,31518,47064,30084,-3771,452,-1378,-5859,-5106,-564,-28,404,-254,1,0,31,24,40,1,53298,1
2,31207,31967,31571,47065,30105,-3768,578,-1462,-5638,-5768,-3551,-27,411,-237,1,0,31,24,80,1,53298,1
2,31217,31348,31600,47066,30127,-3670,920,-1485,-3372,-6814,-5624,-15,413,-227,1,0,31,24,120,1,53298,1
2,31199,31936,31569,47067,30149,-3863,710,-1452,-2313,-6725,-6940,-8,420,-216,1,0,31,24,160,1,53298,1
2,31234,31067,31613,47068,30171,-3739,1135,-1701,-74,-5549,-7931,7,439,-209,1,0,31,24,200,1,53298,1
2,31234,30949,31597,47069,30193,-3861,985,-1348,4042,-4421,-7733,23,445,-195,1,0,31,24,240,1,53298,1
2,31302,30937,31692,47070,30215,-3631,2299,-2031,2275,-2846,-8456,33,453,-191,1,0,31,24,280,1,53298,1
2,31154,30101,31652,47071,30236,-4027,8759,-2520,1697,-344,-2049,43,463,-187,1,0,31,24,320,1,53298,1
2,31163,30026,31635,47072,30258,-3743,206,-611,4959,-363,1946,27,455,-183,1,0,31,24,360,1,53298,1
2,31295,30379,31938,47073,30280,-4229,696,-140,4484,213,2175,18,456,-186,1,0,31,24,400,1,53298,1
2,31481,30098,31988,47074,30303,-4503,1303,-1066,387,177,69,32,460,-190,1,0,31,24,440,1,53298,1
2,31511,30081,32013,47075,30326,-3980,1303,-1043,775,408,22,27,445,-193,1,0,31,24,480,1,53298,1
2,31513,30078,32015,47076,30349,-3976,1128,-1086,603,512,236,25,449,-201,1,0,31,24,520,1,53298,1
2,31545,30091,32040,47077,30372,-3970,1088,-1036,505,892,75,25,445,-203,1,0,31,24,560,1,53298,1
2,31563,30115,32070,47078,30393,-4035,1150,-1116,1797,409,245,28,448,-202,1,0,31,24,600,1,53298,1
2,31587,30201,32094,47079,30414,-4042,1254,-1163,1421,221,149,29,443,-201,1,0,31,24,640,1,53298,1
2,31598,30235,32108,47080,30435,-3981,1148,-1067,243,146,-86,28,450,-202,1,0,31,24,680,1,53298,1
2,31532,30198,31928,47081,30456,-3990,1142,-1065,-119,-12,-83,30,456,-206,1,0,31,24,720,1,53298,1
2,31646,30289,32163,47082,30477,-4026,1142,-1097,-20,-53,14,20,460,-198,1,0,31,24,760,1,53298,1
2,31664,30304,32182,47083,30498,-4013,1136,-1060,39,-91,98,32,446,-198,1,0,31,24,800,1,53298,1
2,31680,30333,32190,47084,30520,-3981,1190,-1036,-15,-49,117,28,450,-202,1,0,31,24,840,1,53298,1
2,31680,30375,32195,47085,30541,-4023,1190,-1037,71,-10,84,21,449,-205,1,0,31,24,880,1,53298,1
2,31676,30360,32210,47086,30563,-4007,1187,-1073,48,25,14,27,457,-205,1,0,31,24,920,1,53298,1
2,31723,30373,32235,47087,30585,-3988,1163,-1092,-38,33,-22,24,452,-192,1,0,31,24,960,1,53298,1
1,31749,30396,32274,47088,0,-4008,1160,-1073,48,33,14,25,449,-203,1,0,31,25,0,1,53298,1
2,31751,30390,32285,47089,29639,-4008,1161,-1086,101,1,41,23,443,-203,1,0,31,25,40,1,53298,1
2,31771,30408,32296,47090,29662,-3983,1192,-1071,39,-16,43,25,449,-203,1,0,31,25,80,1,53298,1
2,31836,30421,32385,47091,29685,-3997,1181,-1080,-34,-4,20,26,448,-206,1,0,31,25,120,1,53298,1
2,31820,30438,32340,47092,29708,-3988,1169,-1075,-8,-17,18,35,457,-203,1,0,31,25,160,1,53298,1
2,31829,30431,32344,47093,29730,-3993,1178,-1076,47,-9,13,21,449,-197,1,0,31,25,200,1,53298,1
2,31863,30468,32390,47094,29752,-3995,1174,-1064,46,13,20,23,457,-197,1,0,31,25,240,1,53298,1
2,31930,30506,32455,47095,29774,-3997,1167,-1086,6,26,26,26,446,-206,1,0,31,25,280,1,53298,1
2,31988,30520,32515,47096,29797,-3993,1176,-1073,19,5,32,20,450,-200,1,0,31,25,320,1,53298,1
2,31992,30542,32528,47097,29819,-4007,1176,-1083,23,-13,27,30,442,-206,1,0,31,25,360,1,53298,1
2,32035,30551,32582,47098,29841,-3990,1177,-1074,12,-18,29,17,451,-201,1,0,31,25,400,1,53298,1
2,32130,30590,32668,47099,29863,-3984,1188,-1069,8,-20,19,27,453,-207,1,0,31,25,440,1,53298,1
2,32125,30608,32658,47100,29885,-3997,1173,-1077,6,-3,17,28,458,-194,1,0,31,25,480,1,53298,1
2,32121,30607,32668,47101,29908,-3991,1174,-1064,12,-4,26,11,453,-195,1,0,31,25,520,1,53298,1
2,32120,30600,32667,47102,29930,-3993,1166,-1081,14,-1,16,21,451,-201,1,0,31,25,560,1,53298,1
2,32130,30584,32671,47103,29953,-3998,1166,-1085,12,-9,10,27,457,-209,1,0,31,25,600,1,53298,1
2,32116,30564,32652,47104,29975,-3987,1169,-1068,21,-7,17,24,446,-206,1,0,31,25,640,1,53298,1
2,32127,30587,32667,47105,29997,-4003,1166,-1071,10,-7,10,24,454,-200,1,0,31,25,680,1,53298,1
2,32137,30592,32672,47106,30019,-3979,1181,-1089,29,-3,15,16,446,-194,1,0,31,25,720,1,53298,1
2,32139,30585,32679,47107,30041,-3990,1170,-1076,13,9,18,27,461,-205,1,0,31,25,760,1,53298,1
2,32133,30590,32676,47108,30063,-3999,1178,-1084,16,-7,15,26,452,-198,1,0,31,25,800,1,53298,1
2,32125,30582,32671,47109,30085,-4006,1170,-1080,19,-1,31,21,453,-203,1,0,31,25,840,1,53298,1
2,32127,30605,32671,47110,30107,-3995,1175,-1081,10,-4,20,25,455,-197,1,0,31,25,880,1,53298,1
2,32139,30606,32675,47111,30129,-3998,1160,-1067,4,-7,24,30,456,-198,1,0,31,25,920,1,53298,1
2,32125,30593,32670,47112,30150,-3992,1166,-1074,-3,-3,17,31,453,-211,1,0,31,25,960,1,53298,1
1,32120,30585,32656,47113,0,-3991,1186,-1079,-1,-18,16,26,462,-198,1,0,31,26,0,0,53298,1
2,32134,30602,32674,47114,29194,-3990,1216,-1104,-55,-1,21,30,452,-206,1,0,31,26,40,0,53298,1
2,32139,30598,32692,47115,29217,-4001,1211,-1132,-5,94,45,22,444,-204,1,0,31,26,80,0,53298,1
2,32137,30593,32676,47116,29239,-3971,1294,-1215,67,386,167,20,448,-204,1,0,31,26,120,0,53298,1
2,32095,30570,32659,47117,29261,-3795,1706,-1503,-532,1031,371,32,450,-210,1,0,31,26,160,0,53298,1
2,32096,30642,32662,47118,29283,-3527,2222,-1782,-1046,1898,1181,14,438,-200,1,0,31,26,200,0,53298,1
2,31845,31099,32409,47119,29305,-3191,2559,-2187,-163,3260,3637,13,439,-217,1,0,31,26,240,0,53298,1
2,31839,32025,32450,47120,29328,-3855,2206,-1836,-556,4566,6431,-4,438,-224,1,0,31,26,280,0,53298,1
2,31865,30858,32460,47121,29350,-3904,2105,-2087,-331,5563,7970,-17,429,-229,1,0,31,26,320,0,53298,1
2,31880,30626,32486,47122,29372,-3990,1879,-1955,1694,5755,8761,-36,414,-242,1,0,31,26,360,0,53298,1
2,31943,30292,32543,47123,29394,-4013,1422,-1821,1263,6068,8330,-42,406,-258,1,0,31,26,400,0,53298,1
2,31979,30352,32586,47124,29416,-3904,710,-1941,-510,6778,6905,-47,385,-271,1,0,31,26,440,0,53298,1
2,31993,30390,32590,47125,29438,-3735,87,-1939,108,7188,4514,-49,375,-277,1,0,31,26,480,0,53298,1
2,32019,30587,32623,47126,29460,-3583,-108,-1606,4425,6673,1806,-56,388,-300,1,0,31,26,520,0,53298,1
2,31993,30524,32585,47127,29481,-3515,-111,-1582,7725,5806,-1577,-55,385,-321,1,0,31,26,560,0,53298,1
2,31762,32982,32348,47128,29504,-3568,206,-1166,10911,4088,-4931,-45,399,-341,1,0,31,26,600,0,53298,1
2,32037,30801,32616,47129,29526,-3514,901,-1184,10528,1841,-8427,-38,422,-368,1,0,31,26,640,0,53298,1
2,32043,30709,32621,47130,29548,-3325,1631,-1463,7670,-190,-10622,-16,452,-390,1,0,31,26,680,0,53298,1
2,32077,30751,32661,47131,29570,-3166,2222,-1567,4162,-1716,-10897,-2,480,-394,1,0,31,26,720,0,53298,1
2,31877,31138,32710,47132,29593,-3376,2062,-1861,17,-2874,-9843,1,497,-383,1,0,31,26,760,0,53298,1
2,32130,30630,32765,47133,29616,-3558,1822,-2390,-2791,-3458,-7990,8,514,-368,1,0,31,26,800,0,53298,1
2,32161,30737,32921,47134,29637,-3784,911,-2258,-1083,-4252,-5597,6,532,-368,1,0,31,26,840,0,53298,1
2,32060,30642,33507,47135,29659,-4000,1056,-2435,1288,-4400,-4467,29,545,-359,1,0,31,26,880,0,53298,1
2,31332,30300,33789,47136,29684,-5397,-586,-3858,22466,-4558,-8659,37,567,-373,1,0,31,26,920,0,53298,1
2,32031,31999,33795,47137,29709,-4645,164,-2123,3630,1547,-2931,51,557,-375,1,0,31,26,960,0,53298,1
1,31675,30158,33394,47138,0,-3674,579,-2812,-4302,876,-2438,49,575,-365,1,0,31,27,0,0,53298,1
2,31997,30393,33896,47139,28751,-3464,414,-2520,596,2206,-1248,52,570,-378,1,0,31,27,40,0,53298,1
2,31983,30718,34005,47140,28775,-3464,704,-2404,2106,312,1747,65,571,-391,1,0,31,27,80,0,53298,1
2,31601,30382,33981,47141,28798,-3504,446,-2658,2235,250,3118,45,577,-383,1,0,31,27,120,0,53298,1
2,31503,30287,34254,47142,28822,-3846,-115,-2435,1789,-183,2428,38,572,-388,1,0,31,27,160,0,53298,1
2,31595,30615,34380,47143,28846,-3865,-270,-2432,973,-314,1298,31,569,-379,1,0,31,27,200,0,53298,1
2,31584,30096,34372,47144,28869,-3846,-142,-2471,-577,-92,208,29,567,-375,1,0,31,27,240,0,53298,1
2,31397,30363,34425,47145,28891,-3644,67,-2517,-990,176,69,29,567,-385,1,0,31,27,280,0,53298,1
2,31505,30487,34506,47146,28915,-3686,86,-2517,-317,234,346,37,581,-381,1,0,31,27,320,0,53298,1
2,31461,30621,34563,47147,28938,-3745,60,-2470,-15,70,471,23,569,-387,1,0,31,27,360,0,53298,1
2,31375,30349,34555,47148,28961,-3705,97,-2473,-446,-156,377,27,567,-389,1,0,31,27,400,0,53298,1
2,31545,30741,34784,47149,28984,-3705,122,-2428,-1091,-326,238,27,569,-385,1,0,31,27,440,0,53298,1
2,31410,30641,34610,47150,29007,-3726,152,-2396,-1592,-375,218,27,571,-381,1,0,31,27,480,0,53298,1
2,31294,30569,34819,47151,29031,-3746,167,-2382,-1838,-255,222,25,573,-387,1,0,31,27,520,0,53298,1
2,31345,30536,34655,47152,29055,-3728,210,-2416,-1735,-127,184,34,580,-378,1,0,31,27,560,0,53298,1
2,31300,30483,34816,47153,29079,-3727,229,-2414,-1288,-91,102,25,577,-387,1,0,31,27,600,0,53298,1
2,31419,30355,34928,47154,29104,-3727,230,-2384,-975,-83,12,23,585,-375,1,0,31,27,640,0,53298,1
2,31399,30131,34980,47155,29128,-3737,250,-2361,-866,-76,-28,23,577,-381,1,0,31,27,680,0,53298,1
2,31408,30424,34972,47156,29153,-3754,269,-2325,-985,-71,-41,20,582,-392,1,0,31,27,720,0,53298,1
2,31390,32377,34973,47157,29178,-3762,289,-2315,-1082,-110,-27,20,588,-388,1,0,31,27,760,0,53298,1
2,31325,30287,34997,47158,29203,-3770,317,-2314,-1024,-135,5,15,591,-393,1,0,31,27,800,0,53298,1
2,31196,30254,34922,47159,29228,-3763,322,-2308,-802,-131,36,14,578,-380,1,0,31,27,840,0,53298,1
2,31290,31377,35025,47160,29252,-3769,325,-2307,-568,-106,27,26,586,-392,1,0,31,27,880,0,53298,1
2,31308,30947,35067,47161,29278,-3757,332,-2292,-337,-63,25,15,599,-387,1,0,31,27,920,0,53298,1
2,31401,30396,35185,47162,29304,-3756,335,-2304,-187,-19,32,20,586,-398,1,0,31,27,960,0,53298,1
1,31241,30510,35008,47163,0,-3765,330,-2298,-99,-1,37,19,591,-391,1,0,31,28,0,0,53298,1
2,31225,30544,35015,47164,28308,-3774,323,-2303,-59,17,30,19,589,-385,1,0,31,28,40,0,53298,1
2,31221,30531,35018,47165,28331,-3759,319,-2303,-8,33,22,21,595,-387,1,0,31,28,80,0,53298,1
2,31250,30305,35047,47166,28356,-3773,309,-2316,61,45,31,21,591,-387,1,0,31,28,120,0,53298,1
2,31247,30168,35020,47167,28380,-3751,315,-2331,135,63,31,22,584,-390,1,0,31,28,160,0,53298,1
2,31265,30176,35048,47168,28404,-3747,288,-2341,125,65,33,21,591,-395,1,0,31,28,200,0,53298,1
2,31297,29945,35102,47169,28428,-3731,289,-2343,86,45,26,28,592,-390,1,0,31,28,240,0,53298,1
2,31398,30115,35183,47170,28453,-3740,281,-2338,52,23,42,10,596,-374,1,0,31,28,280,0,53298,1
2,31354,30182,35147,47171,28479,-3741,297,-2343,15,-1,49,20,584,-386,1,0,31,28,320,0,53298,1
2,31232,30020,35007,47172,28504,-3739,300,-2335,-26,-24,41,22,594,-396,1,0,31,28,360,0,53298,1
2,31238,30541,35031,47173,28528,-3753,311,-2338,-36,-27,49,29,597,-397,1,0,31,28,400,0,53298,1
2,31202,30186,35002,47174,28553,-3772,332,-2318,26,-47,37,13,593,-385,1,0,31,28,440,0,53298,1
2,31175,29873,34944,47175,28577,-3823,379,-2267,205,-154,-42,17,593,-387,1,0,31,28,480,0,53298,1
2,31372,30026,35078,47176,28601,-3770,349,-2326,498,-367,-54,30,584,-390,1,0,31,28,520,0,53298,1
2,31326,30025,34993,47177,28625,-3680,216,-2356,691,-267,-85,20,586,-386,1,0,31,28,560,0,53298,1
2,31399,30164,34991,47178,28649,-3692,159,-2313,234,-92,-121,14,596,-382,1,0,31,28,600,0,53298,1
2,31339,30020,34983,47179,28673,-3735,226,-2350,-409,3,-107,24,586,-390,1,0,31,28,640,0,53298,1
2,31350,30012,34959,47180,28698,-3773,291,-2352,-367,33,26,29,599,-387,1,0,31,28,680,0,53298,1
2,31309,30216,34933,47181,28723,-3788,308,-2354,97,45,125,26,584,-396,1,0,31,28,720,0,53298,1
2,31302,30095,34917,47182,28748,-3749,290,-2299,374,29,111,21,593,-389,1,0,31,28,760,0,53298,1
2,31394,30169,35013,47183,28772,-3759,272,-2287,291,78,130,30,590,-384,1,0,31,28,800,0,53298,1
2,31388,30136,35012,47184,28797,-3757,281,-2335,-32,52,107,18,592,-384,1,0,31,28,840,0,53298,1
2,31268,30014,34891,47185,28821,-3763,282,-2329,-257,-40,5,12,586,-382,1,0,31,28,880,0,53298,1
2,31236,29926,34845,47186,28845,-3778,310,-2315,-296,-141,-91,26,588,-384,1,0,31,28,920,0,53298,1
2,31313,30549,34887,47187,28870,-3771,356,-2334,-104,-204,-153,28,586,-382,1,0,31,28,960,0,53298,1
1,31318,30465,34774,47188,0,-3783,401,-2305,-48,-327,-191,23,583,-399,1,0,31,29,0,1,53298,1
2,31262,30386,34593,47189,27863,-3840,513,-2273,-297,-717,-288,24,586,-382,1,0,31,29,40,1,53298,1
2,31244,30291,34215,47190,27888,-3754,871,-2352,225,-1153,-351,22,586,-376,1,0,31,29,80,1,53298,1
2,31206,30175,33293,47191,27911,-2855,2612,-2093,28,-1670,1586,19,571,-357,1,0,31,29,120,1,53298,1
2,31318,30204,32745,47192,27934,-3426,1925,-2065,-7917,-797,6263,-8,548,-350,1,0,31,29,160,1,53298,1
2,31377,30765,32069,47193,27955,-4310,1704,-2167,-17901,-1326,10709,-39,531,-305,1,0,31,29,200,1,53298,1
2,31365,31291,31753,47194,27976,-5098,1666,-1417,-14915,-1881,11883,-52,506,-278,1,0,31,29,240,1,53298,1
2,31249,31704,31792,47195,27997,-5334,944,-1185,-14421,-3734,10137,-47,455,-235,1,0,31,29,280,1,53298,1
2,31377,30166,31758,47196,28019,-4476,487,-1527,-13742,-4752,6324,-48,428,-228,1,0,31,29,320,1,53298,1
2,31135,31508,31788,47197,28042,-3675,384,-1415,-10189,-4828,3181,-51,425,-211,1,0,31,29,360,1,53298,1
2,31342,30822,31737,47198,28063,-3460,386,-1279,-6420,-4388,1317,-37,415,-195,1,0,31,29,400,1,53298,1
2,31471,34455,31960,47199,28084,-3722,485,-1148,-3306,-4423,-116,-20,410,-200,1,0,31,29,440,1,53298,1
2,31274,32716,31759,47200,28105,-3817,411,-1223,-2581,-5500,-2633,-20,412,-184,1,0,31,29,480,1,53298,1
2,31193,33136,31674,47201,28128,-3567,1029,-1441,-875,-4781,-5353,-2,416,-182,1,0,31,29,520,1,53298,1
2,31195,32792,31743,47202,28150,-3647,1348,-901,2650,-4890,-6518,5,419,-179,1,0,31,29,560,1,53298,1
2,31244,33688,31756,47203,28172,-3634,1573,-787,2559,-4737,-6697,25,439,-177,1,0,31,29,600,1,53298,1
2,31170,33117,31813,47204,28193,-3701,1640,-929,2346,-4056,-6333,34,438,-164,1,0,31,29,640,1,53298,1
2,31353,33380,31835,47205,28215,-3789,1611,-876,3257,-3049,-5410,30,440,-168,1,0,31,29,680,1,53298,1
2,31391,33146,31896,47206,28236,-3619,4544,-2242,801,-958,-4508,47,445,-165,1,0,31,29,720,1,53298,1
2,31273,33993,31954,47207,28256,-4066,2534,-738,2404,272,612,36,444,-168,1,0,31,29,760,1,53298,1
2,31430,34070,31933,47208,28278,-4132,331,-242,2727,1197,1272,35,443,-167,1,0,31,29,800,1,53298,1
2,31220,34042,31664,47209,28300,-4184,1011,20,3735,969,265,39,439,-171,1,0,31,29,840,1,53298,1
2,31217,33807,31678,47210,28321,-4079,1834,-660,2488,577,96,31,449,-167,1,0,31,29,880,1,53298,1
2,31185,33706,31630,47211,28343,-4066,1205,-879,1904,830,609,32,444,-184,1,0,31,29,920,1,53298,1
2,31213,33913,31659,47212,28365,-4112,1010,-907,841,997,262,27,441,-169,1,0,31,29,960,1,53298,1
1,31190,33853,31643,47213,0,-4029,1140,-852,1111,814,70,25,447,-185,1,0,31,30,0,0,53298,1
2,31189,33846,31636,47214,27417,-4020,1287,-876,1685,432,289,28,440,-184,1,0,31,30,40,0,53298,1
2,31182,33801,31631,47215,27439,-4068,1261,-884,1322,204,295,29,445,-185,1,0,31,30,80,0,53298,1
2,31185,33781,31623,47216,27462,-4009,1241,-827,395,68,22,24,444,-184,1,0,31,30,120,0,53298,1
2,31204,33822,31640,47217,27484,-4007,1296,-763,163,60,-83,25,453,-183,1,0,31,30,160,0,53298,1
2,31309,33953,31765,47218,27507,-4035,1210,-838,106,69,13,37,445,-187,1,0,31,30,200,0,53298,1
2,31191,33779,31630,47219,27529,-4030,1202,-873,14,54,25,31,445,-177,1,0,31,30,240,0,53298,1
2,31171,33676,31614,47220,27550,-4025,1233,-830,155,26,22,28,440,-180,1,0,31,30,280,0,53298,1
2,31174,33670,31612,47221,27572,-4036,1237,-822,202,21,66,29,443,-179,1,0,31,30,320,0,53298,1
2,31170,33681,31610,47222,27594,-4025,1221,-847,-51,35,66,30,438,-184,1,0,31,30,360,0,53298,1
2,31171,33680,31614,47223,27616,-4024,1238,-844,-82,1,76,30,446,-186,1,0,31,30,400,0,53298,1
2,31174,33681,31613,47224,27639,-4022,1247,-829,15,-39,71,34,446,-172,1,0,31,30,440,0,53298,1
2,31172,33694,31613,47225,27661,-4031,1246,-827,18,-47,56,29,447,-181,1,0,31,30,480,0,53298,1
2,31171,33675,31610,47226,27683,-4026,1246,-828,-26,-41,41,33,447,-193,1,0,31,30,520,0,53298,1
2,31170,33661,31608,47227,27706,-4032,1238,-809,-39,-34,16,37,441,-181,1,0,31,30,560,0,53298,1
2,31172,33679,31613,47228,27728,-4020,1219,-828,16,-23,15,29,447,-185,1,0,31,30,600,0,53298,1
2,31171,33646,31614,47229,27751,-4028,1241,-836,16,-11,14,28,442,-178,1,0,31,30,640,0,53298,1
2,31171,33646,31606,47230,27773,-4002,1252,-833,23,0,29,28,444,-186,1,0,31,30,680,0,53298,1
2,31171,33661,31612,47231,27796,-4024,1236,-836,48,12,35,29,449,-183,1,0,31,30,720,0,53298,1
2,31171,33606,31610,47232,27818,-4021,1248,-834,40,31,25,28,442,-186,1,0,31,30,760,0,53298,1
2,31168,33592,31613,47233,27840,-4018,1240,-833,70,36,0,29,449,-181,1,0,31,30,800,0,53298,1
2,31170,33589,31615,47234,27862,-4022,1237,-849,85,31,-1,21,449,-179,1,0,31,30,840,0,53298,1
2,31169,33574,31614,47235,27885,-4023,1231,-835,37,17,3,31,449,-179,1,0,31,30,880,0,53298,1
2,31164,33544,31605,47236,27907,-4017,1245,-841,16,-3,19,31,451,-189,1,0,31,30,920,0,53298,1
2,31161,33527,31604,47237,27928,-4016,1243,-844,22,-18,27,37,445,-191,1,0,31,30,960,0,53298,1
1,31158,33469,31599,47238,0,-4024,1234,-839,-3,-20,39,26,440,-190,1,0,31,31,0,1,53298,1
2,31161,33485,31601,47239,26973,-4015,1236,-833,-19,-17,21,34,444,-192,1,0,31,31,40,1,53298,1
2,31153,33471,31590,47240,26994,-4027,1240,-824,10,-10,9,30,448,-190,1,0,31,31,80,1,53298,1
2,31150,33401,31591,47241,27016,-4021,1245,-837,33,-12,11,28,446,-172,1,0,31,31,120,1,53298,1
2,31156,33405,31594,47242,27038,-4018,1239,-827,34,3,24,38,446,-190,1,0,31,31,160,1,53298,1
2,31157,33435,31599,47243,27060,-4021,1242,-831,28,7,27,32,450,-188,1,0,31,31,200,1,53298,1
2,31156,33460,31597,47244,27082,-4022,1232,-846,21,9,27,33,445,-183,1,0,31,31,240,1,53298,1
2,31158,33414,31596,47245,27106,-4021,1235,-832,14,-2,21,36,446,-178,1,0,31,31,280,1,53298,1
2,31160,33467,31594,47246,27128,-4017,1237,-841,2,-19,6,36,440,-180,1,0,31,31,320,1,53298,1
2,31159,33426,31593,47247,27151,-4031,1234,-830,17,-19,11,31,447,-185,1,0,31,31,360,1,53298,1
2,31159,33465,31596,47248,27174,-4021,1249,-830,-3,-24,21,30,436,-186,1,0,31,31,400,1,53298,1
2,31163,33471,31605,47249,27198,-4024,1243,-824,10,-3,22,39,449,-187,1,0,31,31,440,1,53298,1
2,31170,33467,31600,47250,27221,-4031,1230,-825,29,-3,27,29,443,-175,1,0,31,31,480,1,53298,1
2,31160,33474,31597,47251,27244,-4027,1234,-835,10,7,16,33,441,-185,1,0,31,31,520,1,53298,1
2,31157,33471,31590,47252,27267,-4021,1235,-844,10,6,20,39,447,-187,1,0,31,31,560,1,53298,1
2,31156,33481,31591,47253,27291,-4016,1239,-860,15,-11,14,29,453,-185,1,0,31,31,600,1,53298,1
2,31161,33476,31598,47254,27313,-4033,1227,-834,13,-10,24,30,446,-188,1,0,31,31,640,1,53298,1
2,31163,33470,31605,47255,27335,-4017,1240,-846,0,-19,16,30,446,-192,1,0,31,31,680,1,53298,1
2,31171,33407,31608,47256,27358,-4014,1253,-846,3,-20,15,29,445,-181,1,0,31,31,720,1,53298,1
2,31185,33454,31624,47257,27379,-4021,1243,-841,10,-10,19,38,448,-190,1,0,31,31,760,1,53298,1
2,31190,33453,31634,47258,27401,-4012,1237,-847,12,-12,20,31,449,-193,1,0,31,31,800,1,53298,1
2,31197,33427,31639,47259,27424,-4025,1235,-839,15,-4,11,29,445,-175,1,0,31,31,840,1,53298,1
2,31193,33433,31636,47260,27446,-4037,1240,-859,24,-9,5,28,436,-186,1,0,31,31,880,1,53298,1
2,31175,33373,31613,47261,27469,-4033,1240,-845,33,-36,-14,35,445,-187,1,0,31,31,920,1,53298,1
2,31176,33357,31615,47262,27491,-4019,1236,-844,-26,-64,-19,31,457,-191,1,0,31,31,960,1,53298,1
1,31165,33316,31600,47263,0,-4030,1225,-834,-91,-89,0,34,446,-178,1,0,31,32,0,0,53298,1
2,31154,33306,31592,47264,26529,-4025,1241,-838,-133,-69,-2,28,446,-182,1,0,31,32,40,0,53298,1
2,31157,33264,31588,47265,26551,-4006,1266,-819,43,-53,-18,32,444,-190,1,0,31,32,80,0,53298,1
2,31151,33260,31585,47266,26574,-4036,1251,-822,52,12,-27,32,448,-184,1,0,31,32,120,0,53298,1
2,31144,33268,31580,47267,26596,-4012,1309,-908,-138,164,-44,28,456,-192,1,0,31,32,160,0,53298,1
2,31142,33254,31583,47268,26619,-3974,1523,-834,193,384,16,32,448,-182,1,0,31,32,200,0,53298,1
2,31132,32820,31576,47269,26641,-3971,1845,-924,318,488,450,33,439,-187,1,0,31,32,240,0,53298,1
2,31132,33700,31573,47270,26664,-3745,2183,-1029,-280,214,1757,24,436,-186,1,0,31,32,280,0,53298,1
2,31147,32596,31567,47271,26687,-3295,2732,-1644,-1692,1121,3612,18,432,-182,1,0,31,32,320,0,53298,1
2,31203,33855,31627,47272,26710,-3907,2139,-1827,-5283,2446,5700,8,426,-192,1,0,31,32,360,0,53298,1
2,31193,33883,31593,47273,26733,-3985,1673,-2016,-5887,3565,6923,2,416,-210,1,0,31,32,400,0,53298,1
2,31176,33996,31628,47274,26757,-3990,1486,-1961,-1822,4908,7678,-24,412,-196,1,0,31,32,440,0,53298,1
2,31199,34155,31638,47275,26780,-4034,1116,-1700,2131,6224,7716,-22,400,-214,1,0,31,32,480,0,53298,1
2,31199,34220,31635,47276,26804,-3929,782,-1506,4688,7412,6567,-46,392,-242,1,0,31,32,520,0,53298,1
2,31266,34297,31731,47277,26827,-3850,327,-1387,6359,7968,4195,-45,395,-249,1,0,31,32,560,0,53298,1
2,31268,34299,31734,47278,26850,-3758,2,-1308,7831,7908,698,-51,405,-271,1,0,31,32,600,0,53298,1
2,31173,33185,31622,47279,26873,-3700,141,-1118,10121,6762,-3038,-51,409,-291,1,0,31,32,640,0,53298,1
2,31270,34273,31729,47280,26896,-3642,493,-1201,10086,4969,-6710,-39,433,-329,1,0,31,32,680,0,53298,1
2,31251,34262,31743,47281,26919,-3638,1245,-1251,9108,2944,-9402,-41,453,-353,1,0,31,32,720,0,53298,1
2,31213,33732,31718,47282,26942,-3681,1830,-1398,6032,950,-10656,-14,486,-366,1,0,31,32,760,0,53298,1
2,31235,33745,31761,47283,26965,-3620,2002,-1596,2104,-408,-10477,-11,507,-361,1,0,31,32,800,0,53298,1
2,31268,33784,31900,47284,26988,-3663,1669,-1876,-1788,-1299,-9624,6,534,-360,1,0,31,32,840,0,53298,1
2,31490,33578,32475,47285,27011,-2230,4074,-1767,876,-1963,-9422,24,544,-366,1,0,31,32,880,0,53298,1
2,31654,30239,32725,47286,27035,-5233,1198,-2784,7486,-4642,-7356,32,556,-360,1,0,31,32,920,0,53298,1
2,31502,30774,32316,47287,27061,-3749,60,-1553,-482,-1865,1616,32,550,-358,1,0,31,32,960,0,53298,1
1,31602,34525,32499,47288,0,-3821,-113,-1821,-2256,285,-177,27,567,-359,1,0,31,33,0,1,53298,1
2,31361,32848,32563,47289,26085,-4030,-538,-3527,9278,3761,-1217,29,561,-375,1,0,31,33,40,1,53298,1
2,31437,30742,33052,47290,26108,-3733,873,-2044,9241,-451,578,39,575,-385,1,0,31,33,80,1,53298,1
2,31344,32409,33486,47291,26133,-3363,914,-2723,6838,1945,2993,32,564,-390,1,0,31,33,120,1,53298,1
2,31326,33961,33593,47292,26158,-3559,725,-2834,4865,1132,3881,22,560,-398,1,0,31,33,160,1,53298,1
2,31304,32895,33734,47293,26183,-3897,302,-2498,735,-171,2042,13,567,-385,1,0,31,33,200,1,53298,1
2,31331,30203,33809,47294,26208,-3918,109,-2240,-182,-332,941,23,563,-401,1,0,31,33,240,1,53298,1
2,31301,30075,33769,47295,26231,-3648,-32,-2512,1554,-261,1063,16,562,-396,1,0,31,33,280,1,53298,1
2,31211,29972,33899,47296,26255,-3577,-33,-2698,2118,137,1072,25,559,-395,1,0,31,33,320,1,53298,1
2,31290,30027,34011,47297,26279,-3758,34,-2574,1139,335,466,8,558,-404,1,0,31,33,360,1,53298,1
2,31208,30057,34017,47298,26302,-3720,195,-2463,-412,346,-161,22,566,-396,1,0,31,33,400,1,53298,1
2,31323,29981,34131,47299,26326,-3623,305,-2498,-592,38,-81,18,556,-392,1,0,31,33,440,1,53298,1
2,31347,30267,34183,47300,26350,-3651,265,-2457,-149,-198,310,14,564,-396,1,0,31,33,480,1,53298,1
2,31299,30122,34194,47301,26374,-3681,254,-2424,-461,-193,389,10,562,-404,1,0,31,33,520,1,53298,1
2,31235,30014,34119,47302,26398,-3665,294,-2443,-1201,-154,219,14,566,-396,1,0,31,33,560,1,53298,1
2,31250,31594,34200,47303,26421,-3658,310,-2461,-1390,-135,83,6,574,-394,1,0,31,33,600,1,53298,1
2,31268,30620,34193,47304,26446,-3653,304,-2476,-766,-103,101,12,562,-404,1,0,31,33,640,1,53298,1
2,31296,31139,34229,47305,26470,-3651,311,-2461,-168,-40,59,-1,563,-391,1,0,31,33,680,1,53298,1
2,31280,30099,34246,47306,26493,-3660,315,-2429,-13,2,3,9,555,-397,1,0,31,33,720,1,53298,1
2,31205,30040,34223,47307,26518,-3666,313,-2418,-189,24,39,6,568,-400,1,0,31,33,760,1,53298,1
2,31235,30207,34220,47308,26542,-3678,331,-2400,-370,-22,72,7,565,-397,1,0,31,33,800,1,53298,1
2,31220,29967,34245,47309,26565,-3683,349,-2414,-410,-61,77,7,567,-403,1,0,31,33,840,1,53298,1
2,31260,30541,34288,47310,26589,-3676,348,-2414,-278,-42,60,6,562,-398,1,0,31,33,880,1,53298,1
2,31226,30034,34288,47311,26613,-3656,348,-2424,-45,-5,45,10,566,-398,1,0,31,33,920,1,53298,1
2,31288,30004,34369,47312,26637,-3663,323,-2433,111,19,40,5,565,-393,1,0,31,33,960,1,53298,1
1,31278,30206,34334,47313,0,-3660,325,-2435,159,43,32,6,572,-382,1,0,31,34,0,1,53298,1
2,31221,30274,34264,47314,25642,-3657,321,-2440,128,28,19,4,564,-404,1,0,31,34,40,1,53298,1
2,31260,30331,34313,47315,25667,-3654,306,-2455,81,16,20,3,571,-399,1,0,31,34,80,1,53298,1
2,31320,30621,34349,47316,25693,-3668,298,-2450,25,-6,31,-3,563,-403,1,0,31,34,120,1,53298,1
2,31334,30382,34373,47317,25718,-3667,305,-2454,-5,-16,52,8,568,-398,1,0,31,34,160,1,53298,1
2,31307,30533,34383,47318,25743,-3658,317,-2437,-4,6,63,6,564,-406,1,0,31,34,200,1,53298,1
2,31274,30325,34328,47319,25768,-3665,316,-2432,23,0,45,-2,568,-392,1,0,31,34,240,1,53298,1
2,31308,30657,34376,47320,25793,-3676,305,-2434,50,8,39,11,569,-409,1,0,31,34,280,1,53298,1
2,31211,30068,34286,47321,25819,-3663,321,-2426,62,5,59,12,566,-404,1,0,31,34,320,1,53298,1
2,31156,30614,34211,47322,25844,-3663,320,-2443,23,-11,52,6,560,-394,1,0,31,34,360,1,53298,1
2,31194,30017,34242,47323,25869,-3644,337,-2436,16,-6,47,2,576,-398,1,0,31,34,400,1,53298,1
2,31253,30350,34294,47324,25896,-3668,311,-2436,24,-5,34,11,573,-401,1,0,31,34,440,1,53298,1
2,31231,30139,34280,47325,25921,-3664,303,-2454,22,15,40,5,563,-387,1,0,31,34,480,1,53298,1
2,31224,30329,34275,47326,25946,-3647,318,-2451,44,3,27,5,561,-405,1,0,31,34,520,1,53298,1
2,31286,30270,34338,47327,25972,-3653,315,-2435,28,-9,28,9,573,-403,1,0,31,34,560,1,53298,1
2,31329,30514,34402,47328,25996,-3662,312,-2433,0,-13,35,7,565,-405,1,0,31,34,600,1,53298,1
2,31302,30358,34371,47329,26020,-3664,325,-2435,-18,-8,43,4,570,-394,1,0,31,34,640,1,53298,1
2,31329,30274,34388,47330,26045,-3669,310,-2441,-7,-4,43,8,566,-402,1,0,31,34,680,1,53298,1
2,31330,30337,34394,47331,26069,-3673,311,-2447,9,3,21,5,567,-405,1,0,31,34,720,1,53298,1
2,31335,30375,34407,47332,26093,-3657,317,-2445,33,1,31,5,563,-407,1,0,31,34,760,1,53298,1
2,31316,30121,34382,47333,26117,-3659,326,-2442,23,6,22,22,568,-392,1,0,31,34,800,1,53298,1
2,31296,30056,34338,47334,26141,-3648,337,-2452,19,-8,29,8,568,-398,1,0,31,34,840,1,53298,1
2,31265,30075,34305,47335,26165,-3684,414,-2469,181,-171,71,10,566,-394,1,0,31,34,880,1,53298,1
2,31270,30120,34202,47336,26189,-3663,490,-2494,722,-610,90,7,565,-391,1,0,31,34,920,1,53298,1
2,31275,30023,33865,47337,26214,-3508,814,-2592,674,-984,-21,8,566,-386,1,0,31,34,960,1,53298,1
1,31205,30441,33321,47338,0,-3098,1804,-2489,-1983,-153,1727,1,559,-387,1,0,31,35,0,0,53298,1
2,31219,30184,32452,47339,25198,-3676,2160,-2176,-4964,1029,5063,-22,526,-366,1,0,31,35,40,0,53298,1
2,31235,30050,31972,47340,25222,-4307,1366,-2454,-15646,-103,8182,-38,512,-332,1,0,31,35,80,0,53298,1
2,31187,30743,31652,47341,25245,-4115,1161,-1849,-11972,-368,8543,-51,487,-303,1,0,31,35,120,0,53298,1
2,31219,31216,31701,47342,25268,-4382,834,-1674,-9000,-1101,7384,-65,469,-295,1,0,31,35,160,0,53298,1
2,31236,31180,31701,47343,25291,-4167,1464,-850,-12261,-3597,5682,-49,447,-267,1,0,31,35,200,0,53298,1
2,31217,32625,31596,47344,25315,-4185,472,-1411,-14581,-5316,3917,-40,426,-236,1,0,31,35,240,0,53298,1
2,31217,32209,31656,47345,25338,-3919,146,-1518,-12373,-6480,1420,-38,430,-224,1,0,31,35,280,0,53298,1
2,31218,32928,31691,47346,25361,-3675,287,-1381,-7728,-7146,-1132,-21,417,-215,1,0,31,35,320,0,53298,1
2,31227,30944,31710,47347,25386,-3637,504,-1554,-3462,-7084,-3521,-18,424,-202,1,0,31,35,360,0,53298,1
2,31224,32718,31709,47348,25409,-3464,604,-1614,-240,-6614,-5552,-6,424,-190,1,0,31,35,400,0,53298,1
2,31233,33195,31721,47349,25433,-3658,619,-1387,2068,-5518,-7178,7,433,-187,1,0,31,35,440,0,53298,1
2,31232,33232,31718,47350,25457,-3614,1185,-1366,2271,-4299,-8654,30,440,-190,1,0,31,35,480,0,53298,1
2,31249,33331,31724,47351,25479,-3610,1210,-1145,2757,-3078,-8520,46,456,-174,1,0,31,35,520,0,53298,1
2,31287,33757,31765,47352,25502,-3820,777,-848,2632,-1811,-7914,50,460,-158,1,0,31,35,560,0,53298,1
2,31409,33403,31715,47353,25525,-3936,8396,-2350,-3617,1180,-6656,49,477,-163,1,0,31,35,600,0,53298,1
2,31150,33585,31615,47354,25548,-3789,943,174,7090,-2013,2733,44,470,-170,1,0,31,35,640,0,53298,1
2,31156,30141,31624,47355,25572,-4838,-283,146,3368,561,2423,43,455,-163,1,0,31,35,680,0,53298,1
2,31152,31308,31625,47356,25595,-4257,1148,-987,-1260,473,-679,43,465,-175,1,0,31,35,720,0,53298,1
2,31166,30596,31634,47357,25618,-3933,1296,-808,-315,951,-303,44,462,-166,1,0,31,35,760,0,53298,1
2,31336,30864,31821,47358,25641,-4217,992,-786,1073,770,307,48,458,-174,1,0,31,35,800,0,53298,1
2,31330,30933,31822,47359,25664,-4199,959,-825,-119,1247,-54,47,467,-173,1,0,31,35,840,0,53298,1
2,31186,30551,31648,47360,25686,-4105,976,-932,1552,531,-2,39,473,-169,1,0,31,35,880,0,53298,1
2,31176,30714,31638,47361,25710,-4156,1052,-983,1311,133,-31,47,467,-169,1,0,31,35,920,0,53298,1
2,31180,30814,31640,47362,25733,-4125,1064,-831,94,11,-96,42,466,-170,1,0,31,35,960,0,53298,1
1,31175,30681,31640,47363,0,-4149,948,-820,-487,-181,-66,43,453,-177,1,0,31,36,0,0,53298,1
2,31190,30498,31651,47364,24754,-4122,1028,-819,-56,-236,43,34,458,-168,1,0,31,36,40,0,53298,1
2,31228,30686,31686,47365,24778,-4151,1032,-784,162,-180,180,46,472,-170,1,0,31,36,80,0,53298,1
2,31376,31362,31888,47366,24801,-4142,1044,-798,-9,-47,171,51,463,-175,1,0,31,36,120,0,53298,1
2,31406,31170,31896,47367,24824,-4125,1045,-819,-59,45,88,41,461,-169,1,0,31,36,160,0,53298,1
2,31435,31038,31931,47368,24848,-4139,1039,-837,119,74,33,45,461,-167,1,0,31,36,200,0,53298,1
2,31463,30733,31955,47369,24872,-4135,1023,-838,51,67,-16,38,468,-162,1,0,31,36,240,0,53298,1
2,31485,30691,31975,47370,24895,-4143,1018,-844,-7,35,-5,47,463,-175,1,0,31,36,280,0,53298,1
2,31575,30724,32085,47371,24919,-4141,1021,-828,58,-14,27,50,466,-186,1,0,31,36,320,0,53298,1
2,31628,30766,32140,47372,24942,-4124,1038,-830,13,-39,37,46,460,-170,1,0,31,36,360,0,53298,1
2,31632,30788,32144,47373,24966,-4125,1038,-821,-50,-29,25,51,471,-171,1,0,31,36,400,0,53298,1
2,31609,31160,32119,47374,24990,-4133,1028,-837,-25,-20,13,46,466,-174,1,0,31,36,440,0,53298,1
2,31603,31200,32111,47375,25015,-4138,1040,-811,84,10,5,41,473,-179,1,0,31,36,480,0,53298,1
2,31616,31063,32127,47376,25039,-4138,1041,-823,87,46,15,43,461,-169,1,0,31,36,520,0,53298,1
2,31636,30840,32154,47377,25064,-4138,1029,-832,12,66,5,45,465,-179,1,0,31,36,560,0,53298,1
2,31645,30790,32150,47378,25088,-4133,1025,-828,19,53,22,36,476,-170,1,0,31,36,600,0,53298,1
2,31634,30801,32147,47379,25111,-4133,1030,-838,49,2,23,37,467,-171,1,0,31,36,640,0,53298,1
2,31637,30827,32140,47380,25134,-4132,1033,-839,31,-31,13,47,475,-169,1,0,31,36,680,0,53298,1
2,31628,30816,32137,47381,25158,-4134,1035,-823,-24,-22,16,48,466,-178,1,0,31,36,720,0,53298,1
2,31306,30620,31779,47382,25182,-4131,1041,-826,-22,-31,17,42,464,-184,1,0,31,36,760,0,53298,1
2,31210,30637,31677,47383,25206,-4136,1043,-820,15,-16,10,53,471,-179,1,0,31,36,800,0,53298,1
2,31182,30596,31652,47384,25231,-4140,1026,-815,18,0,10,33,471,-165,1,0,31,36,840,0,53298,1
2,31180,30646,31633,47385,25255,-4144,1034,-836,14,11,11,47,469,-183,1,0,31,36,880,0,53298,1
2,31173,30528,31634,47386,25279,-4135,1033,-831,16,18,20,41,459,-175,1,0,31,36,920,0,53298,1
2,31168,30584,31619,47387,25304,-4136,1031,-831,17,3,15,43,465,-181,1,0,31,36,960,0,53298,1
1,31160,30686,31615,47388,0,-4130,1038,-821,18,-12,22,56,470,-168,1,0,31,37,0,0,53298,1
2,31162,30692,31615,47389,24312,-4125,1037,-822,10,-17,15,50,468,-172,1,0,31,37,40,0,53298,1
2,31161,30662,31614,47390,24335,-4128,1040,-839,-4,-13,19,36,462,-172,1,0,31,37,80,0,53298,1
2,31160,30667,31615,47391,24359,-4140,1036,-836,4,-18,16,40,470,-168,1,0,31,37,120,0,53298,1
2,31159,30646,31615,47392,24383,-4144,1024,-821,5,-5,20,40,462,-180,1,0,31,37,160,0,53298,1
2,31156,30665,31615,47393,24406,-4135,1039,-834,15,0,16,51,461,-179,1,0,31,37,200,0,53298,1
2,31158,30633,31614,47394,24429,-4139,1032,-814,25,-1,24,44,468,-174,1,0,31,37,240,0,53298,1
2,31164,30544,31607,47395,24453,-4141,1027,-817,9,-4,21,42,478,-178,1,0,31,37,280,0,53298,1
2,31159,30683,31606,47396,24476,-4132,1039,-826,12,-9,22,34,474,-170,1,0,31,37,320,0,53298,1
2,31159,30685,31613,47397,24500,-4133,1037,-845,5,-11,19,40,462,-170,1,0,31,37,360,0,53298,1
2,31163,30397,31619,47398,24523,-4126,1032,-828,-1,-12,23,45,471,-175,1,0,31,37,400,0,53298,1
2,31165,30386,31614,47399,24546,-4127,1036,-833,0,-16,23,39,465,-175,1,0,31,37,440,0,53298,1
2,31161,30365,31618,47400,24569,-4126,1033,-836,8,-18,15,37,467,-177,1,0,31,37,480,0,53298,1
2,31170,30310,31619,47401,24593,-4136,1032,-818,15,-10,21,39,467,-169,1,0,31,37,520,0,53298,1
2,31164,30506,31622,47402,24616,-4151,1022,-839,14,-13,26,41,465,-175,1,0,31,37,560,0,53298,1
2,31164,30464,31614,47403,24638,-4132,1033,-822,10,4,20,48,460,-180,1,0,31,37,600,0,53298,1
2,31163,30429,31617,47404,24661,-4134,1033,-838,7,-2,24,47,467,-187,1,0,31,37,640,0,53298,1
2,31165,30355,31614,47405,24684,-4142,1032,-828,5,-9,22,45,469,-175,1,0,31,37,680,0,53298,1
2,31169,30366,31618,47406,24707,-4143,1030,-841,8,-17,18,41,469,-165,1,0,31,37,720,0,53298,1
2,31166,30334,31624,47407,24730,-4139,1037,-826,-9,-21,10,45,463,-163,1,0,31,37,760,0,53298,1
2,31166,30335,31621,47408,24754,-4152,1010,-827,4,11,19,52,464,-186,1,0,31,37,800,0,53298,1
2,31167,30337,31621,47409,24778,-4120,1061,-836,118,21,11,41,459,-173,1,0,31,37,840,0,53298,1
2,31168,30359,31626,47410,24800,-4132,1083,-882,60,119,-16,41,471,-169,1,0,31,37,880,0,53298,1
2,31175,30335,31635,47411,24823,-4116,1082,-955,25,381,1,45,467,-173,1,0,31,37,920,0,53298,1
2,31173,30350,31639,47412,24846,-4109,1022,-827,627,764,203,39,467,-177,1,0,31,37,960,0,53298,1
1,31175,30327,31647,47413,0,-4209,1056,-759,1209,954,85,45,467,-181,1,0,31,38,0,1,53298,1
2,31179,30361,31659,47414,23868,-4064,1238,-839,1202,856,159,46,462,-184,1,0,31,38,40,1,53298,1
2,31432,30446,31848,47415,23890,-3991,1146,-1034,457,888,461,38,468,-182,1,0,31,38,80,1,53298,1
2,31624,30653,32153,47416,23913,-3859,1394,-1278,50,885,919,41,469,-183,1,0,31,38,120,1,53298,1
2,31609,30631,32132,47417,23936,-3531,2010,-1569,323,1219,2204,38,462,-194,1,0,31,38,160,1,53298,1
2,31599,30570,32144,47418,23958,-3448,2328,-1854,720,2185,4735,23,459,-205,1,0,31,38,200,1,53298,1
2,31565,31176,32087,47419,23980,-3864,2120,-1981,-1080,3569,7315,5,437,-213,1,0,31,38,240,1,53298,1
2,31565,30952,32092,47420,24002,-4436,1232,-2185,-3632,5121,8220,-10,432,-210,1,0,31,38,280,1,53298,1
2,31125,30623,31597,47421,24025,-4536,652,-2307,-4150,6541,7451,-24,422,-220,1,0,31,38,320,1,53298,1
2,31110,30435,31589,47422,24047,-4126,583,-2017,1017,7349,5697,-43,427,-237,1,0,31,38,360,1,53298,1
2,31105,31118,31585,47423,24069,-3906,567,-1580,6959,7750,3968,-37,409,-259,1,0,31,38,400,1,53298,1
2,31100,31043,31576,47424,24091,-3751,425,-1382,8675,7728,1633,-37,429,-279,1,0,31,38,440,1,53298,1
2,31105,30809,31574,47425,24113,-3774,-150,-1272,8035,7079,-1462,-55,443,-313,1,0,31,38,480,1,53298,1
2,31123,31504,31597,47426,24135,-3936,122,-1068,8159,5444,-5073,-39,455,-345,1,0,31,38,520,1,53298,1
2,31114,30932,31587,47427,24158,-3733,680,-1267,8117,2776,-7987,-29,469,-357,1,0,31,38,560,1,53298,1
2,31121,30649,31631,47428,24180,-3587,1001,-1202,6755,780,-9636,-11,495,-383,1,0,31,38,600,1,53298,1
2,31138,30346,31713,47429,24204,-3623,1418,-1344,4040,-620,-10102,11,525,-393,1,0,31,38,640,1,53298,1
2,31166,30433,31953,47430,24227,-3917,1222,-1447,213,-1892,-9797,21,549,-389,1,0,31,38,680,1,53298,1
2,32078,31432,33816,47431,24251,-3146,4873,-872,2564,-3922,-11222,53,569,-391,1,0,31,38,720,1,53298,1
2,31869,30919,34333,47432,24280,-5513,-838,-2980,16584,-11100,-16619,79,607,-381,1,0,31,38,760,1,53298,1
2,32034,35067,33483,47433,24307,-4347,2103,-1763,-5919,-2767,4536,64,606,-358,1,0,31,38,800,1,53298,1
2,31692,32890,33599,47434,24332,-3525,59,-4027,-11008,4470,-2169,59,611,-369,1,0,31,38,840,1,53298,1
2,31637,30615,33865,47435,24358,-3535,1173,-2921,2284,4905,-1171,71,599,-375,1,0,31,38,880,1,53298,1
2,31441,30777,33825,47436,24383,-3800,-32,-2075,2615,1185,1166,69,609,-381,1,0,31,38,920,1,53298,1
2,31543,30684,34116,47437,24407,-3804,-363,-2091,6340,-206,2356,68,606,-394,1,0,31,38,960,1,53298,1
1,31521,31926,34417,47438,0,-3758,-96,-2263,4801,389,3073,61,595,-387,1,0,31,39,0,0,53298,1
2,31535,30282,34705,47439,23427,-3868,77,-2416,1134,477,2408,47,599,-399,1,0,31,39,40,0,53298,1
2,31505,30983,34645,47440,23452,-3888,85,-2370,-1326,454,1349,37,591,-391,1,0,31,39,80,0,53298,1
2,31515,31552,35027,47441,23478,-3836,35,-2493,-1376,162,669,51,601,-397,1,0,31,39,120,0,53298,1
2,31569,30253,35149,47442,23503,-3736,119,-2488,-182,-13,515,50,592,-400,1,0,31,39,160,0,53298,1
2,31591,31360,35208,47443,23527,-3765,94,-2341,238,16,298,46,590,-398,1,0,31,39,200,0,53298,1
2,31371,30140,34950,47444,23551,-3796,78,-2320,-35,83,219,43,601,-397,1,0,31,39,240,0,53298,1
2,31688,30296,35129,47445,23574,-3811,93,-2336,-743,30,151,41,605,-395,1,0,31,39,280,0,53298,1
2,31346,30714,35095,47446,23598,-3823,166,-2315,-1286,-119,121,45,595,-403,1,0,31,39,320,0,53298,1
2,31256,33147,35008,47447,23622,-3804,219,-2289,-1424,-194,171,31,609,-387,1,0,31,39,360,0,53298,1
2,31549,32629,35356,47448,23647,-3801,221,-2293,-1322,-184,146,43,609,-389,1,0,31,39,400,0,53298,1
2,31574,32758,35349,47449,23672,-3795,225,-2308,-1116,-132,50,47,615,-397,1,0,31,39,440,0,53298,1
2,31374,32149,35191,47450,23697,-3787,227,-2310,-776,-78,-20,47,613,-397,1,0,31,39,480,0,53298,1
2,31435,31658,35341,47451,23722,-3815,230,-2277,-601,-43,-71,41,611,-397,1,0,31,39,520,0,53298,1
2,31500,32026,35386,47452,23746,-3815,232,-2243,-737,-27,-126,41,609,-401,1,0,31,39,560,0,53298,1
2,31491,32618,35382,47453,23771,-3828,262,-2247,-868,-76,-66,43,617,-403,1,0,31,39,600,0,53298,1
2,31355,31408,35305,47454,23795,-3801,288,-2248,-893,-119,-62,45,611,-393,1,0,31,39,640,0,53298,1
2,31409,32579,35270,47455,23819,-3826,293,-2253,-700,-138,-47,42,608,-406,1,0,31,39,680,0,53298,1
2,31447,30089,35458,47456,23844,-3839,285,-2238,-425,-131,4,38,616,-400,1,0,31,39,720,0,53298,1
2,31495,33813,35508,47457,23868,-3828,289,-2242,-253,-92,19,32,608,-406,1,0,31,39,760,0,53298,1
2,31502,34414,35517,47458,23894,-3831,293,-2214,-130,-27,27,39,613,-401,1,0,31,39,800,0,53298,1
2,31503,31570,35427,47459,23919,-3837,289,-2231,-31,29,38,43,619,-413,1,0,31,39,840,0,53298,1
2,31454,31632,35394,47460,23945,-3821,286,-2235,54,61,36,41,615,-403,1,0,31,39,880,0,53298,1
2,31525,30526,35457,47461,23970,-3806,283,-2253,100,75,27,29,613,-403,1,0,31,39,920,0,53298,1
2,31470,30223,35392,47462,23994,-3803,277,-2277,126,71,24,38,608,-402,1,0,31,39,960,0,53298,1
1,31552,30201,35514,47463,0,-3801,254,-2265,103,55,21,53,615,-405,1,0,31,40,0,0,53298,1
2,31398,30868,35324,47464,22984,-3798,258,-2269,59,45,26,46,618,-404,1,0,31,40,40,0,53298,1
2,31595,30258,35547,47465,23009,-3809,264,-2266,39,31,45,39,613,-401,1,0,31,40,80,0,53298,1
2,31562,30187,35506,47466,23034,-3798,273,-2260,40,20,53,42,614,-404,1,0,31,40,120,0,53298,1
2,31292,30013,35241,47467,23060,-3803,262,-2265,17,-2,50,45,607,-401,1,0,31,40,160,0,53298,1
2,31278,30012,35223,47468,23085,-3812,275,-2265,-23,-4,33,54,608,-408,1,0,31,40,200,0,53298,1
2,31268,29996,35214,47469,23110,-3800,276,-2266,-3,-7,36,39,609,-415,1,0,31,40,240,0,53298,1
2,31276,30036,35226,47470,23136,-3811,255,-2230,26,9,38,40,612,-400,1,0,31,40,280,0,53298,1
2,31326,34249,35311,47471,23162,-3801,268,-2266,35,22,35,40,612,-392,1,0,31,40,320,0,53298,1
2,31326,34257,35275,47472,23187,-3809,271,-2263,15,17,22,38,612,-392,1,0,31,40,360,0,53298,1
2,31344,34182,35298,47473,23212,-3801,270,-2255,3,17,14,40,608,-412,1,0,31,40,400,0,53298,1
2,31330,30073,35272,47474,23238,-3809,254,-2253,15,15,28,46,614,-404,1,0,31,40,440,0,53298,1
2,31357,31788,35313,47475,23263,-3811,250,-2264,20,19,33,40,608,-400,1,0,31,40,480,0,53298,1
2,31429,33379,35385,47476,23287,-3793,276,-2265,7,3,34,45,613,-401,1,0,31,40,520,0,53298,1
2,31217,31718,35175,47477,23313,-3803,261,-2262,-3,-3,24,39,611,-403,1,0,31,40,560,0,53298,1
2,31210,32408,35168,47478,23338,-3795,270,-2257,4,-7,32,41,611,-403,1,0,31,40,600,0,53298,1
2,31206,32496,35162,47479,23362,-3803,277,-2263,16,-4,32,34,618,-392,1,0,31,40,640,0,53298,1
2,31230,30049,35183,47480,23386,-3813,270,-2278,44,-22,32,37,609,-401,1,0,31,40,680,0,53298,1
2,31233,29961,35177,47481,23410,-3821,302,-2281,204,-104,69,46,608,-408,1,0,31,40,720,0,53298,1
2,31235,29960,35139,47482,23434,-3862,367,-2258,751,-319,181,36,610,-400,1,0,31,40,760,0,53298,1
2,31264,30007,35076,47483,23458,-3917,557,-2250,921,-575,56,37,611,-395,1,0,31,40,800,0,53298,1
2,31307,30201,34078,47484,23481,-4263,885,-2539,98,-1585,-348,46,606,-394,1,0,31,40,840,0,53298,1
2,31243,29987,32753,47485,23505,-3628,1690,-2260,-3490,-2855,1107,38,608,-366,1,0,31,40,880,0,53298,1
2,31377,31162,32144,47486,23528,-3427,1564,-1794,-15584,-2227,4020,9,583,-343,1,0,31,40,920,0,53298,1
2,31506,31716,32021,47487,23552,-3928,1183,-2191,-19990,-2262,6206,-8,564,-308,1,0,31,40,960,0,53298,1
1,31229,32327,31731,47488,0,-4179,1544,-1329,-7343,-1599,7924,-29,547,-287,1,0,31,41,0,1,53298,1
2,31322,31638,31887,47489,22540,-4552,1435,-580,-5666,-2673,7972,-33,517,-257,1,0,31,41,40,1,53298,1
2,31646,33759,32129,47490,22564,-4557,1011,-551,-7903,-4497,6849,-34,496,-258,1,0,31,41,80,1,53298,1
2,31792,34703,32281,47491,22587,-4367,371,-502,-9702,-6210,4540,-19,479,-223,1,0,31,41,120,1,53298,1
2,31763,34502,32258,47492,22610,-4139,33,-458,-8531,-7912,1884,-26,470,-202,1,0,31,41,160,1,53298,1
2,31749,34233,32255,47493,22634,-3896,276,-574,-4742,-9213,-382,-2,460,-176,1,0,31,41,200,1,53298,1
2,31701,34128,32259,47494,22657,-3775,742,-687,-744,-10339,-2239,11,457,-173,1,0,31,41,240,1,53298,1
2,31735,34050,32170,47495,22680,-3707,1078,-978,310,-10321,-3750,13,437,-147,1,0,31,41,280,1,53298,1
2,31495,34228,32070,47496,22703,-3722,1398,-1231,531,-8892,-4851,31,445,-143,1,0,31,41,320,1,53298,1
2,31746,34379,32158,47497,22727,-3810,1284,-1236,1250,-6837,-4931,39,453,-141,1,0,31,41,360,1,53298,1
2,31696,34079,32105,47498,22750,-3862,1334,-1357,2187,-4547,-4849,60,446,-140,1,0,31,41,400,1,53298,1
2,31426,33725,32186,47499,22773,-3782,1293,-1289,3472,-2131,-4350,55,455,-137,1,0,31,41,440,1,53298,1
2,31514,32681,32079,47500,22797,-3781,922,-858,4241,259,-3585,56,460,-142,1,0,31,41,480,1,53298,1
2,31556,33207,32121,47501,22820,-3876,1768,-1714,3540,2794,-4078,65,451,-141,1,0,31,41,520,1,53298,1
2,31220,32946,31917,47502,22843,-5399,4558,808,5380,1486,-419,53,459,-143,1,0,31,41,560,1,53298,1
2,31510,33210,31869,47503,22867,-4542,640,491,979,939,741,55,459,-139,1,0,31,41,600,1,53298,1
2,31190,32717,31699,47504,22891,-3922,645,-431,786,861,-53,53,459,-137,1,0,31,41,640,1,53298,1
2,31191,32641,31697,47505,22914,-3954,1361,-582,-199,959,-212,57,453,-151,1,0,31,41,680,1,53298,1
2,31190,32560,31690,47506,22937,-4469,926,-395,467,693,369,59,455,-149,1,0,31,41,720,1,53298,1
2,31191,32288,31694,47507,22960,-4363,846,-540,925,835,107,53,453,-155,1,0,31,41,760,1,53298,1
2,31180,31927,31685,47508,22983,-4055,975,-543,1962,840,-99,52,456,-152,1,0,31,41,800,1,53298,1
2,31552,31892,32110,47509,23006,-4188,1143,-399,2678,685,79,48,460,-156,1,0,31,41,840,1,53298,1
2,31546,31712,32093,47510,23029,-4278,1134,-422,1380,972,-17,56,456,-160,1,0,31,41,880,1,53298,1
2,31198,31323,31684,47511,23052,-4178,984,-642,94,952,-246,58,454,-168,1,0,31,41,920,1,53298,1
2,31177,31301,31670,47512,23074,-4194,944,-668,181,611,-279,55,461,-153,1,0,31,41,960,1,53298,1
1,31184,31304,31677,47513,0,-4222,961,-635,531,259,-201,50,460,-164,1,0,31,42,0,0,53298,1
2,31320,31404,31845,47514,22097,-4209,972,-614,527,-13,-63,57,463,-157,1,0,31,42,40,0,53298,1
2,31329,31491,31839,47515,22121,-4196,1008,-588,199,-91,49,52,464,-168,1,0,31,42,80,0,53298,1
2,31378,31463,31898,47516,22144,-4208,1027,-538,53,-67,101,52,460,-154,1,0,31,42,120,0,53298,1
2,31419,31549,31939,47517,22167,-4199,1020,-571,-78,20,60,47,453,-157,1,0,31,42,160,0,53298,1
2,31266,31406,31783,47518,22190,-4179,1008,-593,-58,20,25,45,457,-157,1,0,31,42,200,0,53298,1
2,31201,31265,31696,47519,22213,-4210,1010,-583,9,-13,12,62,456,-162,1,0,31,42,240,0,53298,1
2,31193,31318,31683,47520,22236,-4207,985,-580,0,-53,26,52,462,-160,1,0,31,42,280,0,53298,1
2,31187,31316,31678,47521,22259,-4196,998,-571,-43,-72,48,43,463,-145,1,0,31,42,320,0,53298,1
2,31190,31319,31679,47522,22281,-4194,1016,-579,-143,-69,45,62,458,-156,1,0,31,42,360,0,53298,1
2,31184,31257,31671,47523,22303,-4188,1012,-574,-63,-69,34,59,455,-159,1,0,31,42,400,0,53298,1
2,31187,31288,31675,47524,22324,-4196,1014,-547,24,-51,16,62,452,-162,1,0,31,42,440,0,53298,1
2,31184,31234,31673,47525,22346,-4186,1013,-545,10,-3,-1,54,454,-156,1,0,31,42,480,0,53298,1
2,31188,31264,31672,47526,22368,-4198,1003,-582,-10,42,-6,51,459,-151,1,0,31,42,520,0,53298,1
2,31190,31232,31673,47527,22390,-4196,1011,-565,7,42,9,54,462,-160,1,0,31,42,560,0,53298,1
2,31187,31194,31673,47528,22412,-4190,993,-577,27,12,26,52,450,-148,1,0,31,42,600,0,53298,1
2,31188,31277,31677,47529,22434,-4202,1007,-572,1,-22,28,58,448,-164,1,0,31,42,640,0,53298,1
2,31194,31309,31681,47530,22458,-4194,1012,-568,3,-29,20,48,464,-160,1,0,31,42,680,0,53298,1
2,31225,31269,31716,47531,22481,-4204,999,-559,-5,-24,17,59,443,-163,1,0,31,42,720,0,53298,1
2,31392,31339,32009,47532,22503,-4191,1012,-572,-5,-16,11,45,465,-157,1,0,31,42,760,0,53298,1
2,31585,31420,32131,47533,22526,-4191,1010,-570,0,7,27,52,456,-148,1,0,31,42,800,0,53298,1
2,31575,31309,32117,47534,22548,-4189,1009,-578,4,-4,29,69,459,-161,1,0,31,42,840,0,53298,1
2,31247,31108,31735,47535,22571,-4214,993,-564,10,-13,28,60,450,-158,1,0,31,42,880,0,53298,1
2,31204,31095,31695,47536,22593,-4191,1009,-563,10,-11,18,58,448,-170,1,0,31,42,920,0,53298,1
2,31192,31064,31686,47537,22615,-4195,1016,-564,12,-9,9,54,460,-160,1,0,31,42,960,0,53298,1
1,31195,31052,31678,47538,0,-4210,997,-563,8,-8,9,62,454,-160,1,0,31,43,0,1,53298,1
2,31190,31063,31672,47539,21654,-4188,1013,-581,-4,0,15,57,461,-157,1,0,31,43,40,1,53298,1
2,31190,31073,31671,47540,21676,-4202,1004,-568,10,4,19,54,460,-170,1,0,31,43,80,1,53298,1
2,31189,31075,31671,47541,21699,-4197,1007,-577,24,1,20,58,462,-156,1,0,31,43,120,1,53298,1
2,31189,31127,31680,47542,21721,-4204,1004,-571,19,-2,18,52,458,-164,1,0,31,43,160,1,53298,1
2,31191,31071,31675,47543,21743,-4199,1004,-581,-6,-6,17,54,462,-160,1,0,31,43,200,1,53298,1
2,31193,31095,31674,47544,21766,-4201,1010,-579,-4,-11,22,59,459,-149,1,0,31,43,240,1,53298,1
2,31191,31052,31670,47545,21789,-4181,1010,-573,3,-17,15,57,455,-169,1,0,31,43,280,1,53298,1
2,31192,31021,31674,47546,21811,-4190,1022,-576,-1,-13,19,55,461,-155,1,0,31,43,320,1,53298,1
2,31191,31160,31673,47547,21834,-4204,1009,-565,1,-28,12,48,454,-152,1,0,31,43,360,1,53298,1
2,31196,31128,31677,47548,21857,-4199,1011,-578,-6,-23,-2,51,457,-161,1,0,31,43,400,1,53298,1
2,31198,31082,31685,47549,21879,-4192,1011,-585,9,-14,-7,58,452,-146,1,0,31,43,440,1,53298,1
2,31204,31099,31693,47550,21902,-4195,1040,-560,146,-60,-47,59,455,-161,1,0,31,43,480,1,53298,1
2,31230,31133,31743,47551,21924,-4251,1095,-646,-173,-232,-215,54,454,-160,1,0,31,43,520,1,53298,1
2,31270,32456,31793,47552,21947,-4172,1064,-661,-1296,-605,-86,52,460,-156,1,0,31,43,560,1,53298,1
2,31304,32586,31823,47553,21970,-4171,966,-585,-2462,-1008,398,47,451,-155,1,0,31,43,600,1,53298,1
2,31164,31736,31642,47554,21993,-4262,1544,-380,-1391,-1727,1048,52,448,-142,1,0,31,43,640,1,53298,1
2,31170,33329,31655,47555,22016,-3787,2272,-988,-2713,-1004,1744,50,452,-132,1,0,31,43,680,1,53298,1
2,31164,33899,31646,47556,22040,-3245,2959,-1404,-4847,1198,4202,50,450,-152,1,0,31,43,720,1,53298,1
2,31168,33276,31616,47557,22063,-4169,2221,-1481,-6372,4155,7371,34,442,-158,1,0,31,43,760,1,53298,1
2,31159,33746,31600,47558,22086,-4683,1293,-1662,-6020,6648,8930,13,437,-165,1,0,31,43,800,1,53298,1
2,31148,32315,31598,47559,22110,-4563,648,-1562,64,7801,8881,6,432,-178,1,0,31,43,840,1,53298,1
2,31175,31065,31606,47560,22134,-4118,251,-1552,6141,8398,7130,-22,426,-200,1,0,31,43,880,1,53298,1
2,31204,33496,31599,47561,22157,-3967,89,-1421,9775,9404,4306,-30,424,-222,1,0,31,43,920,1,53298,1
2,31199,33487,31617,47562,22180,-3907,-20,-1082,10395,9953,634,-41,441,-249,1,0,31,43,960,1,53298,1
1,31140,30540,31574,47563,0,-3941,-39,-902,9884,9457,-3084,-46,462,-290,1,0,31,44,0,0,53298,1
2,31132,32605,31555,47564,21212,-4134,230,-884,9387,7965,-6645,-33,485,-323,1,0,31,44,40,0,53298,1
2,31210,34232,31645,47565,21235,-4186,813,-925,8711,5616,-9563,-16,506,-350,1,0,31,44,80,0,53298,1
2,31220,34185,31669,47566,21257,-4087,1524,-1134,6392,3150,-11330,7,539,-373,1,0,31,44,120,0,53298,1
2,31172,32707,31636,47567,21281,-3939,1735,-1188,3388,903,-11347,37,547,-391,1,0,31,44,160,0,53298,1
2,31315,32049,31843,47568,21305,-4021,1201,-1291,-856,-760,-10519,48,572,-384,1,0,31,44,200,0,53298,1
2,31293,32168,32026,47569,21329,-4164,1559,-1445,-1201,-2162,-9409,77,591,-383,1,0,31,44,240,0,53298,1
2,32313,34405,33769,47570,21355,-2717,-156,-3074,13316,-7875,-11165,106,622,-368,1,0,31,44,280,0,53298,1
2,31473,30953,34056,47571,21384,-4350,2986,-2365,27134,-8328,-1804,110,630,-364,1,0,31,44,320,0,53298,1
2,31524,31345,33957,47572,21413,-3563,-1622,-2760,-8979,6062,163,101,617,-379,1,0,31,44,360,0,53298,1
2,31760,31013,35050,47573,21440,-4544,612,-2604,5959,2501,2048,96,634,-382,1,0,31,44,400,0,53298,1
2,31859,34610,35198,47574,21468,-3876,-424,-2355,-551,3117,2453,96,614,-394,1,0,31,44,440,0,53298,1
2,31727,33902,35025,47575,21494,-3969,-481,-2200,1051,-304,1255,82,618,-388,1,0,31,44,480,0,53298,1
2,31858,34634,35135,47576,21521,-3815,-370,-2289,-573,501,987,94,618,-394,1,0,31,44,520,0,53298,1
2,31833,34386,35118,47577,21547,-3924,-69,-2208,-2162,190,690,86,622,-394,1,0,31,44,560,0,53298,1
2,31956,34580,35270,47578,21573,-3971,-61,-2247,-1909,145,643,78,628,-388,1,0,31,44,600,0,53298,1
2,31842,34176,35241,47579,21600,-3912,-20,-2313,-977,87,582,85,627,-403,1,0,31,44,640,0,53298,1
2,31889,31412,35344,47580,21627,-3891,-88,-2302,-353,105,284,83,623,-383,1,0,31,44,680,0,53298,1
2,31850,31396,35325,47581,21653,-3901,-76,-2222,-610,36,-55,81,617,-395,1,0,31,44,720,0,53298,1
2,31857,30811,35380,47582,21679,-3917,-52,-2204,-796,-61,-135,75,625,-397,1,0,31,44,760,0,53298,1
2,31429,31573,34879,47583,21706,-3937,-35,-2195,-664,-135,-35,83,621,-401,1,0,31,44,800,0,53298,1
2,31918,30486,35437,47584,21732,-3918,10,-2186,-689,-213,6,77,623,-383,1,0,31,44,840,0,53298,1
2,31889,30712,35395,47585,21759,-3936,-3,-2170,-779,-231,17,78,626,-390,1,0,31,44,880,0,53298,1
2,31829,32840,35338,47586,21786,-3932,-12,-2180,-640,-142,74,82,626,-392,1,0,31,44,920,0,53298,1
2,31877,31088,35435,47587,21813,-3913,21,-2201,-408,-40,147,88,628,-408,1,0,31,44,960,0,53298,1
1,31885,30796,35455,47588,0,-3930,30,-2191,-292,98,106,76,628,-404,1,0,31,45,0,1,53298,1
2,31909,30625,35519,47589,20772,-3903,-48,-2234,-412,341,-136,79,633,-403,1,0,31,45,40,1,53298,1
2,31960,30444,35591,47590,20799,-3902,-20,-2221,-194,372,-89,85,627,-401,1,0,31,45,80,1,53298,1
2,31902,31678,35522,47591,20825,-3900,5,-2203,-142,347,-110,91,637,-409,1,0,31,45,120,1,53298,1
2,31629,30360,35312,47592,20850,-3915,15,-2204,-177,241,-104,87,623,-407,1,0,31,45,160,1,53298,1
2,31581,30919,35216,47593,20877,-3938,26,-2189,-330,62,-108,81,637,-409,1,0,31,45,200,1,53298,1
2,31547,30636,35220,47594,20903,-3925,41,-2195,-439,-102,-106,81,629,-401,1,0,31,45,240,1,53298,1
2,31574,30500,35233,47595,20930,-3935,25,-2189,-414,-171,-69,86,632,-406,1,0,31,45,280,1,53298,1
2,31548,30795,35206,47596,20957,-3912,18,-2192,-279,-132,-18,82,636,-400,1,0,31,45,320,1,53298,1
2,31513,32849,35154,47597,20982,-3906,32,-2185,-121,-42,43,77,635,-407,1,0,31,45,360,1,53298,1
2,31529,32174,35187,47598,21008,-3930,27,-2193,13,36,66,86,636,-396,1,0,31,45,400,1,53298,1
2,31558,31276,35208,47599,21034,-3927,25,-2193,60,44,67,81,627,-417,1,0,31,45,440,1,53298,1
2,31548,33204,35204,47600,21060,-3909,31,-2196,1,20,40,84,628,-416,1,0,31,45,480,1,53298,1
2,31662,34490,35310,47601,21087,-3913,13,-2192,-55,3,-15,80,632,-412,1,0,31,45,520,1,53298,1
2,31619,34087,35256,47602,21114,-3905,27,-2199,-34,1,-11,79,633,-403,1,0,31,45,560,1,53298,1
2,31599,32576,35266,47603,21140,-3919,26,-2199,21,21,18,85,635,-409,1,0,31,45,600,1,53298,1
2,31668,30292,35348,47604,21166,-3919,6,-2208,56,53,42,80,632,-406,1,0,31,45,640,1,53298,1
2,31689,30323,35382,47605,21192,-3898,21,-2219,56,58,46,83,639,-395,1,0,31,45,680,1,53298,1
2,31735,30318,35423,47606,21218,-3917,9,-2225,41,33,47,88,636,-416,1,0,31,45,720,1,53298,1
2,31839,30306,35606,47607,21244,-3912,7,-2223,10,10,44,86,638,-406,1,0,31,45,760,1,53298,1
2,31598,30259,35246,47608,21270,-3905,19,-2201,-21,-16,27,71,623,-401,1,0,31,45,800,1,53298,1
2,31511,30264,35198,47609,21295,-3910,35,-2199,-22,-19,13,83,637,-403,1,0,31,45,840,1,53298,1
2,31510,30329,35164,47610,21321,-3914,17,-2188,-34,12,19,80,632,-412,1,0,31,45,880,1,53298,1
2,31482,30367,35141,47611,21347,-3907,25,-2210,6,25,29,79,629,-415,1,0,31,45,920,1,53298,1
2,31461,30339,35114,47612,21372,-3904,13,-2200,69,26,34,80,626,-414,1,0,31,45,960,1,53298,1
1,31425,31527,35083,47613,0,-3904,7,-2214,38,26,24,89,639,-411,1,0,31,46,0,1,53298,1
2,31418,31680,35068,47614,20330,-3908,11,-2229,16,3,29,79,633,-397,1,0,31,46,40,1,53298,1
2,31434,30486,35087,47615,20356,-3909,12,-2209,26,2,29,79,635,-411,1,0,31,46,80,1,53298,1
2,31449,30219,35106,47616,20382,-3923,10,-2211,25,-15,26,83,639,-411,1,0,31,46,120,1,53298,1
2,31454,30163,35097,47617,20408,-3900,50,-2231,27,-41,32,85,631,-403,1,0,31,46,160,1,53298,1
2,31461,30177,35068,47618,20433,-3956,127,-2266,368,-165,128,89,625,-413,1,0,31,46,200,1,53298,1
2,31418,30170,35027,47619,20458,-4097,205,-2229,1158,-585,311,83,631,-403,1,0,31,46,240,1,53298,1
2,31784,30953,35315,47620,20483,-3974,425,-2587,2961,-981,578,87,621,-395,1,0,31,46,280,1,53298,1
2,32013,34727,33993,47621,20508,-3064,1772,-2105,-1002,-899,2621,75,611,-397,1,0,31,46,320,1,53298,1
2,31791,33873,32843,47622,20532,-3701,1731,-2194,-8839,451,5459,39,599,-379,1,0,31,46,360,1,53298,1
2,32140,30619,32674,47623,20556,-3956,2356,-1692,-15823,-2134,10017,1,585,-341,1,0,31,46,400,1,53298,1
2,32032,30430,32213,47624,20579,-4075,496,-2333,-11685,-862,10486,-26,546,-302,1,0,31,46,440,1,53298,1
2,31822,31104,31752,47625,20602,-5122,1252,-684,-7557,-1994,9505,-32,516,-274,1,0,31,46,480,1,53298,1
2,31901,30312,32245,47626,20625,-4831,697,-769,-11664,-4887,7563,-42,494,-248,1,0,31,46,520,1,53298,1
2,31821,32482,32273,47627,20648,-4519,-98,-889,-12690,-6706,4936,-33,475,-227,1,0,31,46,560,1,53298,1
2,31888,34549,32117,47628,20671,-4041,-203,-851,-9144,-8663,1930,-16,464,-200,1,0,31,46,600,1,53298,1
2,31656,33389,31809,47629,20694,-3718,297,-689,-5792,-9220,-784,-18,456,-182,1,0,31,46,640,1,53298,1
2,31807,32066,32258,47630,20717,-3715,580,-657,-2853,-9756,-2425,9,443,-163,1,0,31,46,680,1,53298,1
2,31805,30975,32198,47631,20741,-3852,773,-688,-1924,-9753,-4135,24,450,-144,1,0,31,46,720,1,53298,1
2,31341,31685,32217,47632,20765,-3962,1345,-525,-451,-9509,-5381,41,445,-143,1,0,31,46,760,1,53298,1
2,31403,32468,31730,47633,20789,-4134,1389,-410,129,-9075,-5852,57,439,-133,1,0,31,46,800,1,53298,1
2,31764,31818,32202,47634,20813,-4049,1186,-615,-311,-7884,-6160,70,438,-134,1,0,31,46,840,1,53298,1
2,31450,31305,31901,47635,20836,-4061,1355,-783,878,-6093,-6074,84,440,-114,1,0,31,46,880,1,53298,1
2,31821,30494,32286,47636,20858,-3797,1303,-1311,2304,-3782,-5505,91,443,-117,1,0,31,46,920,1,53298,1
2,31907,30334,32353,47637,20880,-3432,1494,-1663,3047,1866,-3586,85,447,-123,1,0,31,46,960,1,53298,1
1,31507,30315,32330,47638,0,-4366,1436,-472,4184,3953,-1388,99,447,-121,1,0,31,47,0,1,53298,1
2,31752,30265,32260,47639,19886,-6191,1371,1894,3841,990,95,83,447,-129,1,0,31,47,40,1,53298,1
2,31573,30512,32078,47640,19909,-3988,914,-173,1417,598,215,81,445,-123,1,0,31,47,80,1,53298,1
2,31585,30315,32049,47641,19932,-3826,932,-388,-74,768,324,89,451,-129,1,0,31,47,120,1,53298,1
2,31617,30183,31859,47642,19954,-4425,909,152,-546,322,372,90,442,-130,1,0,31,47,160,1,53298,1
2,31614,30188,32082,47643,19976,-4414,922,-40,-459,526,319,81,455,-139,1,0,31,47,200,1,53298,1
2,31523,31416,31999,47644,19998,-4242,831,-280,1114,608,167,74,450,-122,1,0,31,47,240,1,53298,1
2,31502,31902,31954,47645,20020,-4259,998,5,2101,582,-73,81,443,-129,1,0,31,47,280,1,53298,1
2,31376,31458,31903,47646,20042,-4298,1075,31,1082,833,-276,88,454,-132,1,0,31,47,320,1,53298,1
2,31274,30395,31651,47647,20064,-4295,851,-244,-86,924,-327,91,447,-145,1,0,31,47,360,1,53298,1
2,31327,30112,31740,47648,20086,-4315,775,-309,136,708,-228,86,448,-144,1,0,31,47,400,1,53298,1
2,31276,30030,31649,47649,20107,-4299,872,-213,752,416,-49,80,450,-124,1,0,31,47,440,1,53298,1
2,31287,30045,31663,47650,20129,-4280,912,-205,759,209,113,82,442,-136,1,0,31,47,480,1,53298,1
2,31323,30038,31710,47651,20150,-4281,920,-207,463,152,147,89,447,-139,1,0,31,47,520,1,53298,1
2,31340,30035,31851,47652,20172,-4288,937,-193,293,209,66,95,455,-141,1,0,31,47,560,1,53298,1
2,31690,30238,32140,47653,20194,-4278,925,-203,215,266,-38,86,448,-136,1,0,31,47,600,1,53298,1
2,31673,30447,32166,47654,20217,-4292,887,-237,243,254,-84,87,447,-141,1,0,31,47,640,1,53298,1
2,31666,30626,32135,47655,20239,-4293,875,-252,191,193,-70,78,444,-142,1,0,31,47,680,1,53298,1
2,31725,30581,32212,47656,20261,-4290,889,-245,113,101,10,94,448,-152,1,0,31,47,720,1,53298,1
2,31384,30295,31863,47657,20284,-4294,891,-245,14,-7,67,81,445,-133,1,0,31,47,760,1,53298,1
2,31298,30610,31734,47658,20306,-4277,917,-231,-45,-82,78,86,444,-132,1,0,31,47,800,1,53298,1
2,31273,30547,31695,47659,20327,-4275,896,-226,-50,-124,53,90,454,-146,1,0,31,47,840,1,53298,1
2,31269,30989,31695,47660,20349,-4280,904,-207,-36,-89,31,90,446,-144,1,0,31,47,880,1,53298,1
2,31275,30946,31703,47661,20371,-4272,912,-216,-47,-26,13,84,448,-148,1,0,31,47,920,1,53298,1
2,31288,31111,31723,47662,20394,-4288,897,-224,-66,-4,9,90,450,-140,1,0,31,47,960,1,53298,1
1,31231,31240,31646,47663,0,-4294,887,-251,-37,-11,35,91,445,-141,1,0,31,48,0,1,53298,1
2,31231,30906,31646,47664,19443,-4286,904,-216,-10,-48,39,77,447,-141,1,0,31,48,40,1,53298,1
2,31221,31190,31630,47665,19465,-4287,911,-211,12,-36,25,84,442,-132,1,0,31,48,80,1,53298,1
2,31219,31168,31628,47666,19488,-4290,901,-208,-11,-17,16,92,446,-148,1,0,31,48,120,1,53298,1
2,31232,30587,31637,47667,19510,-4283,905,-232,-24,-5,13,80,450,-132,1,0,31,48,160,1,53298,1
2,31230,30954,31638,47668,19533,-4284,892,-226,2,1,24,85,445,-145,1,0,31,48,200,1,53298,1
2,31237,30401,31652,47669,19556,-4283,896,-234,14,1,30,85,445,-143,1,0,31,48,240,1,53298,1
2,31244,30294,31658,47670,19578,-4291,885,-214,-2,-8,22,82,458,-154,1,0,31,48,280,1,53298,1
2,31257,30157,31667,47671,19600,-4270,911,-211,-5,-16,25,86,452,-136,1,0,31,48,320,1,53298,1
2,31251,30165,31662,47672,19622,-4281,909,-221,4,-15,19,94,446,-146,1,0,31,48,360,1,53298,1
2,31252,30146,31667,47673,19644,-4277,914,-202,-2,-16,16,85,437,-133,1,0,31,48,400,1,53298,1
2,31252,30121,31665,47674,19666,-4284,896,-219,0,-1,22,87,451,-149,1,0,31,48,440,1,53298,1
2,31245,30287,31651,47675,19688,-4291,895,-222,7,-2,25,91,441,-141,1,0,31,48,480,1,53298,1
2,31249,30164,31664,47676,19710,-4280,902,-219,6,-2,20,90,448,-138,1,0,31,48,520,1,53298,1
2,31251,30139,31670,47677,19732,-4278,905,-234,10,-4,31,100,446,-144,1,0,31,48,560,1,53298,1
2,31250,30108,31666,47678,19754,-4285,895,-221,9,-2,22,91,447,-149,1,0,31,48,600,1,53298,1
2,31250,30109,31660,47679,19776,-4272,909,-205,1,-8,15,87,455,-145,1,0,31,48,640,1,53298,1
2,31247,30104,31653,47680,19798,-4293,894,-223,8,-1,15,92,438,-142,1,0,31,48,680,1,53298,1
2,31243,30073,31649,47681,19820,-4272,910,-213,5,-9,22,82,452,-142,1,0,31,48,720,1,53298,1
2,31240,30128,31641,47682,19841,-4290,910,-219,12,-8,28,85,439,-155,1,0,31,48,760,1,53298,1
2,31242,30109,31644,47683,19862,-4288,910,-216,17,2,9,88,450,-150,1,0,31,48,800,1,53298,1
2,31242,30114,31642,47684,19884,-4290,894,-224,9,6,19,67,457,-135,1,0,31,48,840,1,53298,1
2,31239,30116,31642,47685,19907,-4286,901,-231,12,-4,18,89,453,-145,1,0,31,48,880,1,53298,1
2,31230,30198,31641,47686,19930,-4282,893,-208,-1,-12,31,88,442,-140,1,0,31,48,920,1,53298,1
2,31239,30156,31644,47687,19952,-4278,902,-233,-1,-15,20,81,447,-143,1,0,31,48,960,1,53298,1
1,31242,30098,31647,47688,0,-4288,891,-220,4,-21,7,93,443,-137,1,0,31,49,0,0,53298,1
2,31247,30115,31640,47689,19002,-4305,918,-243,-29,-23,5,88,444,-140,1,0,31,49,40,0,53298,1
2,31244,30082,31645,47690,19024,-4307,922,-261,-126,-101,-12,77,449,-135,1,0,31,49,80,0,53298,1
2,31242,30043,31650,47691,19046,-4321,976,-342,-675,-419,26,82,444,-146,1,0,31,49,120,0,53298,1
2,31240,30060,31659,47692,19068,-4348,930,-467,-2007,-1135,237,95,447,-143,1,0,31,49,160,0,53298,1
2,31228,29971,31639,47693,19091,-4284,971,-97,-2682,-2077,778,84,448,-132,1,0,31,49,200,0,53298,1
2,31196,30604,31603,47694,19113,-4057,1487,-387,-2099,-2315,1387,85,451,-127,1,0,31,49,240,0,53298,1
2,31190,30733,31603,47695,19136,-3599,2397,-1167,-1511,-155,2818,79,449,-117,1,0,31,49,280,0,53298,1
2,31187,30600,31594,47696,19160,-3605,2594,-1326,-1021,3275,5374,64,440,-144,1,0,31,49,320,0,53298,1
2,31180,31211,31573,47697,19183,-4246,2125,-1390,-2834,7247,7470,48,440,-144,1,0,31,49,360,0,53298,1
2,31172,31353,31562,47698,19205,-4675,1249,-1375,-1884,9912,8913,23,443,-151,1,0,31,49,400,0,53298,1
2,31164,31277,31557,47699,19228,-4790,640,-1392,1819,10876,8797,0,424,-182,1,0,31,49,440,0,53298,1
2,31155,31064,31560,47700,19250,-4449,228,-1140,6490,10985,7020,-27,433,-207,1,0,31,49,480,0,53298,1
2,31155,30768,31555,47701,19273,-4091,260,-997,10248,10777,4313,-21,439,-237,1,0,31,49,520,0,53298,1
2,31162,30795,31549,47702,19296,-3981,43,-890,10026,10265,802,-30,450,-272,1,0,31,49,560,0,53298,1
2,31167,30690,31540,47703,19318,-4076,-292,-824,8684,9393,-3198,-36,468,-288,1,0,31,49,600,0,53298,1
2,31179,30554,31549,47704,19341,-4289,-302,-771,8158,7953,-7479,-24,480,-314,1,0,31,49,640,0,53298,1
2,31196,30558,31576,47705,19364,-4367,384,-631,9390,5117,-10996,-10,512,-360,1,0,31,49,680,0,53298,1
2,31220,30543,31649,47706,19386,-4402,881,-624,8048,1835,-13146,27,539,-381,1,0,31,49,720,0,53298,1
2,31266,30517,32246,47707,19408,-4219,1296,-643,4291,-1227,-13592,52,570,-386,1,0,31,49,760,0,53298,1
2,32108,31810,35676,47708,19433,896,2368,-4639,19078,-5036,-21514,127,603,-385,1,0,31,49,800,0,53298,1
2,31608,30196,34211,47709,19467,-2207,-354,-1624,17629,-5766,-7201,114,620,-372,1,0,31,49,840,0,53298,1
2,31366,31600,34400,47710,19492,-3846,-1714,-3762,-12516,1612,5512,96,614,-384,1,0,31,49,880,0,53298,1
2,31222,33539,34753,47711,19518,-3159,1122,-3741,13302,4410,4509,95,625,-405,1,0,31,49,920,0,53298,1
2,31568,34069,34900,47712,19544,-4244,-80,-2117,-237,3003,1135,92,622,-394,1,0,31,49,960,0,53298,1
1,31261,34192,34468,47713,0,-4133,-472,-1630,995,521,1088,88,622,-402,1,0,31,50,0,1,53298,1
2,31325,32402,34543,47714,18560,-3723,-996,-2284,-549,224,1038,85,613,-397,1,0,31,50,40,1,53298,1
2,31414,31660,34542,47715,18583,-3740,-175,-2457,-3271,128,875,80,610,-402,1,0,31,50,80,1,53298,1
2,31325,32321,34580,47716,18606,-3889,-64,-2485,-4698,-91,514,78,616,-402,1,0,31,50,120,1,53298,1
2,31709,32924,35030,47717,18629,-3976,-87,-2361,-2994,-420,428,67,617,-393,1,0,31,50,160,1,53298,1
2,31730,30382,35103,47718,18653,-3882,-95,-2345,-724,-599,690,74,620,-392,1,0,31,50,200,1,53298,1
2,31705,30267,35085,47719,18677,-3856,-55,-2241,-26,-427,593,73,621,-387,1,0,31,50,240,1,53298,1
2,31593,30185,34765,47720,18702,-3881,-5,-2194,-650,-84,175,75,625,-401,1,0,31,50,280,1,53298,1
2,31577,30358,35336,47721,18726,-3897,-28,-2236,-1086,170,-111,70,614,-410,1,0,31,50,320,1,53298,1
2,31825,30323,35338,47722,18750,-3907,-1,-2238,-1065,95,-63,86,622,-402,1,0,31,50,360,1,53298,1
2,31828,30456,35425,47723,18775,-3895,6,-2250,-1212,-48,-66,73,625,-391,1,0,31,50,400,1,53298,1
2,31451,31514,35210,47724,18800,-3882,-3,-2237,-1443,-117,-104,78,624,-396,1,0,31,50,440,1,53298,1
2,31478,31953,34941,47725,18824,-3889,5,-2253,-1546,-173,-120,76,618,-392,1,0,31,50,480,1,53298,1
2,31706,32393,35301,47726,18848,-3882,26,-2255,-1274,-209,-60,80,624,-392,1,0,31,50,520,1,53298,1
2,31661,32653,35296,47727,18873,-3891,24,-2213,-921,-225,49,76,630,-406,1,0,31,50,560,1,53298,1
2,31644,32550,35302,47728,18897,-3902,67,-2179,-788,-221,131,83,619,-407,1,0,31,50,600,1,53298,1
2,31659,34220,35381,47729,18921,-3923,96,-2162,-808,-201,132,85,621,-405,1,0,31,50,640,1,53298,1
2,31736,34439,35422,47730,18946,-3940,129,-2132,-908,-207,56,75,633,-401,1,0,31,50,680,1,53298,1
2,31741,34517,35470,47731,18969,-3912,148,-2162,-860,-197,-36,68,638,-402,1,0,31,50,720,1,53298,1
2,31787,34589,35519,47732,18994,-3914,123,-2141,-603,-142,-82,80,626,-406,1,0,31,50,760,1,53298,1
2,31436,34454,35140,47733,19018,-3938,116,-2146,-346,-43,-126,79,625,-407,1,0,31,50,800,1,53298,1
2,31447,34424,35174,47734,19042,-3944,134,-2120,-107,23,-101,75,629,-407,1,0,31,50,840,1,53298,1
2,31325,33830,35025,47735,19067,-3936,124,-2123,42,85,-56,82,630,-410,1,0,31,50,880,1,53298,1
2,31293,33004,34989,47736,19092,-3923,121,-2147,152,120,9,77,633,-403,1,0,31,50,920,1,53298,1
2,31290,33157,34976,47737,19117,-3909,99,-2180,204,168,39,79,631,-413,1,0,31,50,960,1,53298,1
1,31333,33982,35016,47738,0,-3902,86,-2196,262,194,63,76,634,-412,1,0,31,51,0,1,53298,1
2,31342,34024,35032,47739,18120,-3895,74,-2202,230,155,73,73,629,-411,1,0,31,51,40,1,53298,1
2,31287,31595,34975,47740,18145,-3888,65,-2205,224,79,71,73,623,-411,1,0,31,51,80,1,53298,1
2,31278,32115,34962,47741,18169,-3894,78,-2169,199,27,82,80,632,-404,1,0,31,51,120,1,53298,1
2,31229,32278,34892,47742,18194,-3902,85,-2190,67,0,73,73,623,-403,1,0,31,51,160,1,53298,1
2,31221,31651,34892,47743,18218,-3912,73,-2204,-79,-25,44,80,638,-408,1,0,31,51,200,1,53298,1
2,31221,32132,34886,47744,18243,-3895,84,-2205,-95,-31,32,77,623,-413,1,0,31,51,240,1,53298,1
2,31219,32245,34882,47745,18267,-3902,94,-2189,3,-25,47,76,632,-414,1,0,31,51,280,1,53298,1
2,31222,31217,34898,47746,18292,-3904,94,-2180,94,2,53,80,634,-402,1,0,31,51,320,1,53298,1
2,31221,32546,34884,47747,18317,-3918,90,-2175,32,32,16,72,626,-412,1,0,31,51,360,1,53298,1
2,31227,32382,34900,47748,18341,-3893,79,-2202,-109,29,-35,68,630,-408,1,0,31,51,400,1,53298,1
2,31238,32826,34906,47749,18365,-3903,75,-2205,-100,20,-9,90,632,-406,1,0,31,51,440,1,53298,1
2,31233,32366,34903,47750,18389,-3901,87,-2191,136,1,53,76,630,-410,1,0,31,51,480,1,53298,1
2,31236,32309,34905,47751,18414,-3918,93,-2173,250,23,106,82,624,-410,1,0,31,51,520,1,53298,1
2,31252,30613,34923,47752,18438,-3908,105,-2193,156,71,103,82,636,-408,1,0,31,51,560,1,53298,1
2,31290,30181,34976,47753,18463,-3900,91,-2213,253,76,119,77,625,-415,1,0,31,51,600,1,53298,1
2,31331,30213,35021,47754,18488,-3889,72,-2213,209,61,47,77,639,-411,1,0,31,51,640,1,53298,1
2,31351,30216,35054,47755,18512,-3878,50,-2226,4,20,-64,80,632,-412,1,0,31,51,680,1,53298,1
2,31395,30257,35097,47756,18537,-3887,46,-2224,-188,-57,-117,78,630,-414,1,0,31,51,720,1,53298,1
2,31394,30540,35106,47757,18560,-3906,66,-2226,-233,-125,-86,83,633,-415,1,0,31,51,760,1,53298,1
2,31394,31815,35108,47758,18585,-3907,76,-2199,-184,-140,-11,75,621,-413,1,0,31,51,800,1,53298,1
2,31402,30928,35120,47759,18609,-3934,102,-2171,-119,-116,80,77,635,-409,1,0,31,51,840,1,53298,1
2,31455,30173,35169,47760,18634,-3928,119,-2158,10,-55,140,74,632,-406,1,0,31,51,880,1,53298,1
2,31459,30263,35203,47761,18658,-3922,113,-2180,114,25,128,76,630,-420,1,0,31,51,920,1,53298,1
2,31662,30487,35390,47762,18683,-3897,108,-2180,165,86,71,77,625,-415,1,0,31,51,960,1,53298,1
1,31671,30368,35421,47763,0,-3899,90,-2197,197,124,18,77,627,-403,1,0,31,52,0,0,53298,1
2,31688,30362,35428,47764,17679,-3893,82,-2219,187,108,-29,64,630,-402,1,0,31,52,40,0,53298,1
2,31660,30813,35395,47765,17704,-3898,65,-2201,134,84,-43,78,620,-412,1,0,31,52,80,0,53298,1
2,31627,30737,35418,47766,17729,-3892,79,-2197,54,6,-41,77,635,-409,1,0,31,52,120,0,53298,1
2,31724,30310,35438,47767,17754,-3912,75,-2196,-58,-107,-40,75,629,-409,1,0,31,52,160,0,53298,1
2,31732,30294,35428,47768,17779,-3894,96,-2211,-167,-180,-19,83,631,-397,1,0,31,52,200,0,53298,1
2,31630,30289,35336,47769,17802,-3902,205,-2283,68,-338,74,89,627,-411,1,0,31,52,240,0,53298,1
2,31386,30124,34860,47770,17826,-3981,251,-2241,877,-660,39,77,633,-411,1,0,31,52,280,0,53298,1
2,31500,31577,33956,47771,17851,-3693,1357,-2440,167,-1167,651,66,628,-408,1,0,31,52,320,0,53298,1
2,31481,31085,32957,47772,17875,-3042,2746,-2217,-4893,-616,2832,59,601,-393,1,0,31,52,360,0,53298,1
2,31212,32992,32095,47773,17898,-4197,2166,-1959,-14494,-22,6989,18,598,-350,1,0,31,52,400,0,53298,1
2,31241,33360,31850,47774,17922,-4164,1195,-2674,-14212,1276,9825,-14,560,-328,1,0,31,52,440,0,53298,1
2,31217,33909,31574,47775,17946,-4795,1119,-1466,-7984,1348,10661,-35,527,-311,1,0,31,52,480,0,53298,1
2,31612,34357,31703,47776,17969,-4607,1627,-610,-7030,-505,10001,-36,500,-292,1,0,31,52,520,0,53298,1
2,31612,33869,31524,47777,17992,-4641,775,-607,-9814,-2921,8625,-44,472,-268,1,0,31,52,560,0,53298,1
2,31477,34141,31716,47778,18015,-4414,401,-185,-11262,-6243,6465,-44,444,-240,1,0,31,52,600,0,53298,1
2,31379,34143,31714,47779,18038,-4054,404,-332,-11527,-9296,3793,-36,438,-198,1,0,31,52,640,0,53298,1
2,31332,34170,31662,47780,18061,-3993,493,-242,-8533,-12348,1613,-23,425,-187,1,0,31,52,680,0,53298,1
2,31309,34125,31762,47781,18084,-3881,580,-1290,-8011,-13437,-1139,-7,423,-157,1,0,31,52,720,0,53298,1
2,31291,34215,31665,47782,18107,-3580,790,-1652,-5470,-12005,-4286,5,409,-159,1,0,31,52,760,0,53298,1
2,31326,34249,31695,47783,18130,-3691,493,-1515,-1101,-8807,-5920,23,417,-143,1,0,31,52,800,0,53298,1
2,31180,34020,31495,47784,18153,-3592,865,-1422,2966,-5821,-7123,34,424,-140,1,0,31,52,840,0,53298,1
2,31450,34232,31493,47785,18177,-3512,991,-1156,5877,-3449,-7664,48,436,-148,1,0,31,52,880,0,53298,1
2,31253,34242,31655,47786,18201,-3645,1208,-1076,6734,-1270,-7765,53,443,-135,1,0,31,52,920,0,53298,1
2,31232,33890,31729,47787,18224,-3631,1464,-1099,5832,715,-7969,63,435,-149,1,0,31,52,960,0,53298,1
1,31295,33740,32207,47788,0,-4063,-519,-1523,6753,1811,-8211,53,461,-133,1,0,31,53,0,0,53298,1
2,31081,33616,31968,47789,17234,-5010,8881,1013,5290,6148,-3977,51,465,-133,1,0,31,53,40,0,53298,1
2,31760,34498,32247,47790,17256,-5119,-304,922,441,-1162,937,52,458,-140,1,0,31,53,80,0,53298,1
2,31122,33744,31557,47791,17278,-4443,131,-109,2651,240,868,55,461,-141,1,0,31,53,120,0,53298,1
2,31129,33782,31556,47792,17299,-3545,1051,-938,-1780,1109,-632,60,462,-150,1,0,31,53,160,0,53298,1
2,31118,33788,31532,47793,17322,-4392,967,-409,877,756,655,63,465,-149,1,0,31,53,200,0,53298,1
2,31105,33843,31519,47794,17345,-4617,864,-449,1072,981,546,66,458,-150,1,0,31,53,240,0,53298,1
2,31106,33819,31511,47795,17367,-4062,1093,-488,1781,1332,73,55,459,-155,1,0,31,53,280,0,53298,1
2,31115,33820,31515,47796,17389,-4102,983,-659,3199,703,87,49,457,-137,1,0,31,53,320,0,53298,1
2,31138,33859,31539,47797,17412,-4356,1049,-521,1925,865,-173,58,456,-152,1,0,31,53,360,0,53298,1
2,31125,33839,31522,47798,17434,-4194,962,-617,96,932,-448,59,461,-163,1,0,31,53,400,0,53298,1
2,31138,33835,31543,47799,17456,-4180,824,-739,358,829,-354,57,461,-157,1,0,31,53,440,0,53298,1
2,31146,33848,31551,47800,17479,-4248,939,-586,1752,701,-101,53,465,-157,1,0,31,53,480,0,53298,1
2,31155,33897,31560,47801,17501,-4230,968,-618,1881,801,13,53,463,-157,1,0,31,53,520,0,53298,1
2,31153,33884,31548,47802,17524,-4200,948,-686,1396,1045,-57,60,468,-178,1,0,31,53,560,0,53298,1
2,31133,33767,31532,47803,17547,-4220,947,-698,1424,1183,-180,58,466,-174,1,0,31,53,600,0,53298,1
2,31136,33803,31514,47804,17570,-4211,921,-745,1541,1207,-252,56,466,-184,1,0,31,53,640,0,53298,1
2,31142,33794,31521,47805,17593,-4214,850,-864,1546,1195,-256,50,462,-182,1,0,31,53,680,0,53298,1
2,31136,33663,31511,47806,17616,-4196,861,-883,1610,1115,-195,51,451,-177,1,0,31,53,720,0,53298,1
2,31140,33667,31505,47807,17639,-4208,865,-887,1630,1004,-130,64,464,-184,1,0,31,53,760,0,53298,1
2,31135,33560,31495,47808,17662,-4203,858,-932,1521,938,-102,53,457,-187,1,0,31,53,800,0,53298,1
2,31142,33591,31485,47809,17685,-4192,847,-984,1462,868,-90,60,458,-188,1,0,31,53,840,0,53298,1
