sensorStatus,cap1,cap2,cap3,counter,microseconds_since_last_tick,accX,accY,accZ,gyroX,gyroY,gyroZ,magnetX,magnetY,magnetZ,day,hour,min,sec,msec,sync,battery_fuel,crc_good
2,30333,30637,31586,64701,38162,-4621,-462,-243,6,12,-25,171,501,-113,1,0,43,9,520,0,53298,1
2,30333,30637,31589,64702,38184,-4612,-445,-230,4,-19,-2,180,486,-114,1,0,43,9,560,0,53298,1
2,30337,30635,31587,64703,38206,-4597,-442,-217,-5,-50,13,182,490,-124,1,0,43,9,600,0,53298,1
2,30344,30638,31589,64704,38228,-4611,-448,-215,-11,-45,37,167,489,-105,1,0,43,9,640,0,53298,1
2,30340,30641,31587,64705,38250,-4618,-443,-212,11,-16,55,173,489,-119,1,0,43,9,680,0,53298,1
2,30341,30636,31587,64706,38272,-4606,-437,-229,4,29,45,180,498,-116,1,0,43,9,720,0,53298,1
2,30336,30641,31589,64707,38295,-4616,-449,-222,13,57,14,168,488,-122,1,0,43,9,760,0,53298,1
2,30328,30639,31585,64708,38317,-4614,-450,-234,22,86,-15,179,485,-115,1,0,43,9,800,0,53298,1
2,30323,30636,31585,64709,38340,-4620,-445,-238,22,82,-48,174,490,-116,1,0,43,9,840,0,53298,1
2,30328,30636,31585,64710,38362,-4609,-450,-235,18,56,-47,181,493,-123,1,0,43,9,880,0,53298,1
2,30336,30635,31584,64711,38384,-4620,-457,-232,-3,6,-40,166,498,-118,1,0,43,9,920,0,53298,1
2,30333,30635,31585,64712,38406,-4611,-463,-237,-12,-52,-20,176,484,-120,1,0,43,9,960,0,53298,1
1,30334,30634,31585,64713,0,-4602,-459,-237,-32,-95,35,180,484,-116,1,0,43,10,0,0,53298,1
2,30336,30629,31586,64714,37434,-4627,-460,-237,-26,-110,72,176,486,-126,1,0,43,10,40,0,53298,1
2,30334,30631,31581,64715,37456,-4616,-459,-209,-24,-88,82,172,496,-120,1,0,43,10,80,0,53298,1
2,30336,30631,31591,64716,37477,-4604,-441,-215,4,-33,59,175,499,-109,1,0,43,10,120,0,53298,1
2,30353,30627,31592,64717,37499,-4607,-447,-226,12,19,11,177,487,-119,1,0,43,10,160,0,53298,1
2,30344,30620,31597,64718,37521,-4610,-453,-230,22,56,-27,170,500,-104,1,0,43,10,200,0,53298,1
2,30340,30629,31581,64719,37543,-4610,-454,-228,17,41,-27,183,499,-121,1,0,43,10,240,0,53298,1
2,30330,30635,31586,64720,37566,-4603,-448,-222,10,2,-4,176,494,-120,1,0,43,10,280,0,53298,1
2,30331,30632,31586,64721,37589,-4608,-455,-231,-16,-22,44,175,487,-127,1,0,43,10,320,0,53298,1
2,30333,30630,31583,64722,37610,-4614,-451,-218,-1,-9,86,177,503,-117,1,0,43,10,360,0,53298,1
2,30333,30632,31586,64723,37632,-4622,-452,-232,0,-2,59,176,490,-108,1,0,43,10,400,0,53298,1
2,30330,30634,31587,64724,37654,-4615,-443,-229,-1,-17,9,174,482,-118,1,0,43,10,440,0,53298,1
2,30340,30632,31585,64725,37676,-4609,-450,-222,-7,-25,-14,178,496,-118,1,0,43,10,480,0,53298,1
2,30341,30634,31583,64726,37698,-4613,-458,-223,24,-20,-1,176,484,-124,1,0,43,10,520,0,53298,1
2,30335,30634,31590,64727,37721,-4616,-455,-209,23,13,17,169,485,-113,1,0,43,10,560,0,53298,1
2,30332,30640,31587,64728,37743,-4610,-452,-218,11,38,43,174,496,-124,1,0,43,10,600,0,53298,1
2,30332,30638,31589,64729,37766,-4624,-462,-238,15,39,37,171,491,-119,1,0,43,10,640,0,53298,1
2,30337,30634,31586,64730,37788,-4610,-457,-235,3,17,35,175,493,-117,1,0,43,10,680,0,53298,1
0,30337,30634,31586,64730,37788,-4610,-457,-235,3,17,35,175,493,-117,1,0,43,10,680,0,53298,1
2,30341,30632,31583,64732,37834,-4620,-463,-219,11,-39,16,175,493,-109,1,0,43,10,760,0,53298,1
2,30342,30631,31587,64733,37857,-4619,-460,-212,2,-13,12,179,495,-117,1,0,43,10,800,0,53298,1
2,30337,30634,31596,64734,37879,-4616,-457,-227,12,15,19,176,488,-126,1,0,43,10,840,0,53298,1
2,30335,30632,31594,64735,37901,-4607,-450,-230,14,23,19,169,495,-115,1,0,43,10,880,0,53298,1
2,30338,30630,31587,64736,37923,-4611,-463,-228,20,18,18,179,499,-119,1,0,43,10,920,0,53298,1
2,30341,30631,31586,64737,37946,-4617,-447,-218,13,5,23,172,484,-126,1,0,43,10,960,0,53298,1
1,30338,30631,31587,64738,0,-4617,-464,-226,2,-10,29,181,495,-121,1,0,43,11,0,0,53298,1
2,30337,30632,31590,64739,36984,-4608,-440,-209,6,-15,30,168,490,-120,1,0,43,11,40,0,53298,1
2,30335,30633,31591,64740,37006,-4609,-456,-223,-2,-13,28,180,498,-122,1,0,43,11,80,0,53298,1
2,30342,30632,31588,64741,37029,-4611,-450,-237,7,-14,30,176,494,-116,1,0,43,11,120,0,53298,1
2,30340,30634,31586,64742,37050,-4602,-442,-223,2,-16,25,179,487,-119,1,0,43,11,160,0,53298,1
2,30345,30632,31590,64743,37072,-4619,-466,-220,2,1,23,179,487,-117,1,0,43,11,200,0,53298,1
2,30348,30635,31587,64744,37094,-4603,-443,-232,6,2,24,181,491,-123,1,0,43,11,240,0,53298,1
2,30357,30630,31586,64745,37116,-4610,-457,-224,2,4,25,174,492,-112,1,0,43,11,280,0,53298,1
2,30346,30633,31590,64746,37137,-4603,-452,-246,2,3,29,183,495,-123,1,0,43,11,320,0,53298,1
2,30355,30631,31587,64747,37159,-4618,-455,-228,-1,-4,28,179,493,-117,1,0,43,11,360,0,53298,1
2,30349,30635,31590,64748,37182,-4617,-450,-215,0,-10,34,176,486,-124,1,0,43,11,400,0,53298,1
2,30348,30634,31594,64749,37205,-4609,-452,-234,-3,-10,22,178,492,-116,1,0,43,11,440,0,53298,1
2,30348,30640,31597,64750,37227,-4609,-448,-220,4,-11,27,172,494,-116,1,0,43,11,480,0,53298,1
2,30343,30635,31598,64751,37250,-4608,-450,-234,17,1,26,185,485,-119,1,0,43,11,520,0,53298,1
2,30349,30636,31593,64752,37273,-4613,-470,-226,9,11,19,178,494,-120,1,0,43,11,560,0,53298,1
2,30349,30635,31598,64753,37296,-4609,-450,-224,11,10,13,186,490,-122,1,0,43,11,600,0,53298,1
2,30347,30633,31596,64754,37319,-4597,-441,-231,6,1,20,171,491,-115,1,0,43,11,640,0,53298,1
2,30351,30632,31595,64755,37342,-4628,-464,-226,3,-5,33,174,492,-110,1,0,43,11,680,0,53298,1
2,30348,30633,31600,64756,37365,-4623,-453,-235,8,-22,32,178,486,-130,1,0,43,11,720,0,53298,1
1,30351,30631,31597,64758,37410,-4614,-447,-220,4,-12,33,176,492,-116,1,0,43,11,800,0,53298,1
2,30356,30638,31597,64759,37433,-4613,-455,-228,4,-4,27,171,499,-119,1,0,43,11,840,0,53298,1
2,30354,30634,31597,64760,37456,-4610,-442,-213,-1,6,25,177,485,-113,1,0,43,11,880,0,53298,1
2,30355,30631,31597,64761,37480,-4620,-455,-233,11,6,19,180,488,-116,1,0,43,11,920,0,53298,1
2,30345,30628,31593,64762,37504,-4608,-446,-229,1,8,22,168,498,-126,1,0,43,11,960,0,53298,1
1,30351,30633,31595,64763,0,-4609,-452,-229,5,5,31,174,480,-124,1,0,43,12,0,0,53298,1
2,30346,30632,31595,64764,36535,-4605,-445,-224,2,-8,26,180,496,-112,1,0,43,12,40,0,53298,1
2,30347,30637,31597,64765,36558,-4614,-451,-222,3,-25,26,179,495,-121,1,0,43,12,80,0,53298,1
2,30347,30637,31592,64766,36581,-4617,-453,-217,2,-26,32,178,494,-116,1,0,43,12,120,0,53298,1
2,30356,30634,31594,64767,36604,-4607,-447,-235,-9,-8,22,174,490,-118,1,0,43,12,160,0,53298,1
2,30347,30633,31593,64768,36627,-4621,-452,-222,9,9,29,176,482,-120,1,0,43,12,200,0,53298,1
2,30352,30634,31592,64769,36651,-4603,-448,-232,13,7,23,175,489,-113,1,0,43,12,240,0,53298,1
2,30356,30631,31593,64770,36675,-4600,-442,-223,5,8,18,181,481,-115,1,0,43,12,280,0,53298,1
2,30345,30630,31593,64771,36698,-4616,-458,-238,9,-8,16,180,490,-122,1,0,43,12,320,0,53298,1
2,30338,30633,31592,64772,36721,-4616,-463,-233,-9,-7,27,186,492,-114,1,0,43,12,360,0,53298,1
2,30338,30631,31587,64773,36743,-4624,-456,-213,11,-13,31,181,483,-123,1,0,43,12,400,0,53298,1
2,30333,30633,31592,64774,36766,-4613,-460,-208,3,-12,31,177,491,-115,1,0,43,12,440,0,53298,1
2,30342,30635,31589,64775,36790,-4628,-452,-223,11,3,19,177,483,-119,1,0,43,12,480,0,53298,1
2,30345,30633,31593,64776,36814,-4622,-446,-224,12,1,20,180,484,-124,1,0,43,12,520,0,53298,1
2,30351,30634,31593,64777,36837,-4613,-454,-237,3,-5,17,179,483,-115,1,0,43,12,560,0,53298,1
2,30346,30637,31590,64778,36859,-4617,-448,-228,11,-2,16,175,483,-119,1,0,43,12,600,0,53298,1
2,30356,30637,31590,64779,36883,-4613,-454,-222,6,-8,24,185,493,-119,1,0,43,12,640,0,53298,1
2,30340,30637,31591,64780,36906,-4618,-456,-226,2,-5,33,181,497,-121,1,0,43,12,680,0,53298,1
2,30338,30638,31597,64781,36929,-4607,-442,-225,10,-8,35,179,497,-121,1,0,43,12,720,0,53298,1
2,30342,30636,31593,64782,36952,-4622,-446,-227,9,-7,27,176,496,-124,1,0,43,12,760,0,53298,1
2,30340,30633,31592,64783,36974,-4604,-446,-228,-2,-10,22,180,492,-118,1,0,43,12,800,0,53298,1
2,30338,30639,31594,64784,36998,-4621,-450,-215,10,-3,23,187,491,-121,1,0,43,12,840,0,53298,1
2,30345,30639,31592,64785,37021,-4616,-451,-227,-7,5,21,180,482,-124,1,0,43,12,880,0,53298,1
2,30345,30638,31593,64786,37044,-4613,-452,-224,6,10,31,178,490,-116,1,0,43,12,920,0,53298,1
2,30358,30635,31593,64787,37067,-4604,-446,-234,15,-3,26,191,487,-123,1,0,43,12,960,0,53298,1
1,30348,30637,31590,64788,0,-4630,-461,-223,5,-8,14,179,483,-123,1,0,43,13,0,1,53298,1
2,30348,30638,31588,64789,36086,-4612,-449,-221,7,-16,12,176,490,-124,1,0,43,13,40,1,53298,1
2,30348,30636,31587,64790,36109,-4611,-455,-228,-4,-23,23,176,484,-118,1,0,43,13,80,1,53298,1
2,30344,30636,31595,64791,36132,-4616,-459,-228,-7,-20,31,175,491,-119,1,0,43,13,120,1,53298,1
2,30343,30636,31591,64792,36156,-4613,-445,-215,-23,-18,31,179,493,-129,1,0,43,13,160,1,53298,1
2,30344,30639,31595,64793,36179,-4615,-453,-222,-17,-18,33,176,490,-120,1,0,43,13,200,1,53298,1
2,30342,30637,31586,64794,36202,-4602,-459,-215,-1,-4,21,180,486,-118,1,0,43,13,240,1,53298,1
2,30357,30640,31594,64795,36225,-4608,-453,-226,-16,-15,12,176,486,-116,1,0,43,13,280,1,53298,1
2,30345,30646,31592,64796,36249,-4603,-451,-226,-15,-27,7,181,489,-115,1,0,43,13,320,1,53298,1
2,30345,30648,31591,64797,36272,-4618,-459,-232,15,-26,22,185,491,-117,1,0,43,13,360,1,53298,1
2,30338,30644,31588,64798,36294,-4625,-465,-218,11,-8,38,177,485,-117,1,0,43,13,400,1,53298,1
2,30337,30645,31595,64799,36318,-4609,-448,-218,2,0,45,171,489,-115,1,0,43,13,440,1,53298,1
2,30348,30645,31587,64800,36341,-4622,-452,-226,2,4,40,179,485,-123,1,0,43,13,480,1,53298,1
2,30339,30645,31593,64801,36364,-4619,-461,-227,-4,-8,35,177,481,-121,1,0,43,13,520,1,53298,1
2,30348,30645,31591,64802,36388,-4622,-458,-221,4,-26,45,180,490,-116,1,0,43,13,560,1,53298,1
2,30340,30646,31592,64803,36411,-4610,-443,-210,0,-31,15,181,499,-123,1,0,43,13,600,1,53298,1
2,30347,30642,31588,64804,36434,-4610,-457,-222,-15,-2,6,179,485,-111,1,0,43,13,640,1,53298,1
2,30343,30640,31592,64805,36457,-4624,-452,-209,31,17,24,184,486,-106,1,0,43,13,680,1,53298,1
2,30345,30642,31590,64806,36480,-4617,-454,-227,5,16,14,175,487,-117,1,0,43,13,720,1,53298,1
2,30345,30645,31595,64807,36504,-4620,-462,-227,1,-1,18,182,494,-116,1,0,43,13,760,1,53298,1
2,30344,30645,31592,64808,36528,-4612,-449,-223,9,-23,29,173,493,-111,1,0,43,13,800,1,53298,1
2,30349,30645,31594,64809,36551,-4606,-440,-213,-7,-31,50,177,491,-113,1,0,43,13,840,1,53298,1
2,30354,30645,31589,64810,36575,-4610,-432,-201,-14,-32,32,173,487,-121,1,0,43,13,880,1,53298,1
2,30353,30641,31591,64811,36599,-4622,-444,-236,-8,-28,24,171,493,-117,1,0,43,13,920,1,53298,1
2,30345,30639,31588,64812,36623,-4622,-449,-235,-4,-20,25,173,487,-115,1,0,43,13,960,1,53298,1
1,30344,30645,31594,64813,0,-4618,-451,-214,2,-12,16,184,494,-116,1,0,43,14,0,1,53298,1
2,30355,30645,31592,64814,35637,-4607,-448,-217,-1,-5,23,169,497,-107,1,0,43,14,40,1,53298,1
2,30346,30641,31594,64815,35660,-4622,-448,-215,5,-5,28,177,491,-119,1,0,43,14,80,1,53298,1
2,30332,30640,31588,64816,35683,-4618,-450,-234,26,11,39,172,494,-126,1,0,43,14,120,1,53298,1
2,30338,30640,31586,64817,35706,-4645,-436,-245,23,13,37,180,490,-118,1,0,43,14,160,1,53298,1
2,30343,30635,31588,64818,35728,-4643,-456,-224,60,5,50,179,489,-115,1,0,43,14,200,1,53298,1
2,30344,30640,31589,64819,35750,-4662,-422,-240,77,29,76,169,501,-115,1,0,43,14,240,1,53298,1
2,30332,30638,31590,64820,35773,-4705,-404,-221,73,29,99,182,480,-120,1,0,43,14,280,1,53298,1
2,30328,30646,31580,64821,35796,-4817,-278,-254,257,-106,329,177,483,-121,1,0,43,14,320,1,53298,1
2,30341,30639,31582,64822,35820,-4792,-224,-127,857,-563,1404,172,492,-120,1,0,43,14,360,1,53298,1
2,30413,31065,31570,64823,35846,-4722,-393,-79,-20,-770,1103,173,489,-115,1,0,43,14,400,1,53298,1
2,30768,31885,31539,64824,35871,-4394,-91,-487,-903,-744,844,171,487,-119,1,0,43,14,440,1,53298,1
2,30880,30077,31524,64825,35897,-4089,1216,-1243,-2415,648,2212,165,485,-109,1,0,43,14,480,1,53298,1
2,30906,32641,31584,64826,35923,-4349,1063,-1521,-3816,3001,4968,163,497,-131,1,0,43,14,520,1,53298,1
2,30861,30549,31540,64827,35950,-4513,942,-1429,-3280,5156,7718,145,493,-137,1,0,43,14,560,1,53298,1
2,30823,31313,31505,64828,35976,-4487,855,-1405,-2408,6832,10066,134,494,-158,1,0,43,14,600,1,53298,1
2,30817,32182,31493,64829,36002,-4529,696,-1391,-1931,8402,11676,110,496,-170,1,0,43,14,640,1,53298,1
2,30796,32381,31495,64830,36029,-4578,431,-1367,-1974,9775,12198,77,495,-189,1,0,43,14,680,1,53298,1
2,30854,34566,31550,64831,36054,-4552,118,-1350,-2114,10870,11537,59,489,-203,1,0,43,14,720,1,53298,1
2,30863,34546,31531,64832,36080,-4540,-305,-1299,-2419,11418,9568,43,477,-223,1,0,43,14,760,1,53298,1
2,30818,32681,31437,64833,36105,-4577,-772,-1355,-1905,11255,6409,18,466,-248,1,0,43,14,800,1,53298,1
2,30765,30724,31424,64834,36130,-4522,-892,-1168,1437,10301,2448,10,474,-270,1,0,43,14,840,1,53298,1
2,30778,30824,31424,64835,36154,-4336,-1144,-1247,4025,9172,-2170,7,479,-293,1,0,43,14,880,1,53298,1
2,30684,30513,31393,64836,36177,-4338,-707,-1256,7185,7897,-6436,15,493,-311,1,0,43,14,920,1,53298,1
2,30668,30641,31388,64837,36200,-4528,-38,-932,10149,5966,-9441,36,512,-356,1,0,43,14,960,1,53298,1
1,30694,31704,31457,64838,0,-4485,919,-1004,10016,3226,-10964,68,534,-376,1,0,43,15,0,1,53298,1
2,30698,34331,31475,64839,35186,-4272,1750,-1322,5788,523,-11245,105,553,-401,1,0,43,15,40,1,53298,1
2,30679,34295,31492,64840,35209,-4121,1523,-1755,780,-1891,-10183,131,571,-385,1,0,43,15,80,1,53298,1
2,30721,34334,31534,64841,35230,-3968,1217,-1942,-2129,-3765,-8418,151,569,-385,1,0,43,15,120,1,53298,1
2,30732,34325,31540,64842,35253,-3856,649,-2408,-3393,-4066,-5740,158,582,-376,1,0,43,15,160,1,53298,1
2,30524,30086,31543,64843,35276,-3387,-558,-2439,-300,-3744,-4012,175,589,-361,1,0,43,15,200,1,53298,1
2,31824,34821,32510,64844,35300,-3907,-401,-2367,10877,-3690,-5053,179,603,-353,1,0,43,15,240,1,53298,1
2,31553,34667,32557,64845,35325,-4037,-88,-2303,9053,-2244,-3414,193,601,-349,1,0,43,15,280,1,53298,1
2,31335,30430,32592,64846,35352,-3812,-325,-1532,3424,-1594,-1097,197,597,-355,1,0,43,15,320,1,53298,1
2,30965,30565,32216,64847,35377,-3772,-689,-1311,3191,-2555,-133,200,614,-342,1,0,43,15,360,1,53298,1
2,31013,30405,32402,64848,35402,-4129,-495,-1797,1859,-3030,891,179,625,-323,1,0,43,15,400,1,53298,1
2,31516,30499,32893,64849,35427,-4646,-1108,-1656,-935,-369,2123,170,628,-324,1,0,43,15,440,1,53298,1
2,31084,30279,32767,64850,35452,-4601,-148,-2469,1767,-678,3149,160,636,-322,1,0,43,15,480,1,53298,1
2,31296,30380,33642,64851,35477,-4515,-560,-2947,-3751,1664,2534,146,646,-318,1,0,43,15,520,1,53298,1
2,31843,30923,34350,64852,35502,-4304,-587,-2297,-2122,3402,525,148,634,-320,1,0,43,15,560,1,53298,1
2,31782,30799,34580,64853,35527,-4132,-740,-1904,2033,2799,756,150,648,-328,1,0,43,15,600,1,53298,1
2,31579,30836,34667,64854,35552,-3987,-747,-1914,2428,1895,928,138,636,-332,1,0,43,15,640,1,53298,1
2,31700,30864,34959,64855,35577,-4043,-756,-2036,409,483,780,140,630,-336,1,0,43,15,680,1,53298,1
2,31825,30893,35233,64856,35601,-4085,-584,-2198,-1220,-399,552,138,636,-330,1,0,43,15,720,1,53298,1
2,31888,30900,35225,64857,35624,-4081,-393,-2198,-1403,-520,370,147,639,-327,1,0,43,15,760,1,53298,1
2,31865,30887,35143,64858,35649,-4117,-387,-2061,-543,-377,323,133,637,-325,1,0,43,15,800,1,53298,1
2,31860,30880,35068,64859,35674,-4116,-474,-1970,-204,-271,323,133,637,-331,1,0,43,15,840,1,53298,1
2,31752,30842,34968,64860,35698,-4090,-545,-1916,-410,-245,292,136,636,-334,1,0,43,15,880,1,53298,1
2,31750,30843,34979,64861,35723,-4065,-479,-1924,-893,-215,173,142,638,-330,1,0,43,15,920,1,53298,1
2,31768,30838,34987,64862,35748,-4107,-420,-2013,-1029,-100,114,143,651,-333,1,0,43,15,960,1,53298,1
1,31792,30841,35046,64863,0,-4133,-393,-2028,-750,-29,98,134,640,-328,1,0,43,16,0,1,53298,1
2,31365,30744,34762,64864,34740,-4118,-396,-2007,-529,-37,108,130,638,-336,1,0,43,16,40,1,53298,1
2,31531,30774,34940,64865,34764,-4093,-414,-1979,-612,-157,99,134,640,-340,1,0,43,16,80,1,53298,1
2,31698,30744,34900,64866,34789,-4081,-414,-1960,-975,-251,3,138,644,-336,1,0,43,16,120,1,53298,1
2,31337,30708,34508,64867,34813,-4109,-377,-1945,-1239,-296,-40,134,646,-330,1,0,43,16,160,1,53298,1
2,31484,30727,34555,64868,34838,-4107,-343,-1952,-1166,-222,-46,136,642,-336,1,0,43,16,200,1,53298,1
2,31827,30833,34864,64869,34863,-4125,-331,-1953,-800,-121,5,137,635,-341,1,0,43,16,240,1,53298,1
2,31867,30842,34877,64870,34889,-4127,-340,-1947,-425,-31,52,126,640,-326,1,0,43,16,280,1,53298,1
2,31915,30857,34931,64871,34915,-4121,-327,-1933,-192,29,60,136,642,-338,1,0,43,16,320,1,53298,1
2,31912,30855,34919,64872,34940,-4128,-330,-1945,-93,41,57,138,656,-336,1,0,43,16,360,1,53298,1
2,31526,30720,34564,64873,34966,-4117,-340,-1943,-51,38,23,137,653,-331,1,0,43,16,400,1,53298,1
2,31654,30772,34688,64874,34992,-4112,-353,-1963,34,56,34,137,647,-341,1,0,43,16,440,1,53298,1
2,31645,30775,34711,64875,35018,-4105,-356,-1974,132,58,25,134,640,-342,1,0,43,16,480,1,53298,1
2,31641,30773,34720,64876,35044,-4110,-367,-1980,30,-6,-53,135,643,-339,1,0,43,16,520,1,53298,1
2,31559,30751,34647,64877,35069,-4110,-379,-1964,-65,-91,-66,131,647,-341,1,0,43,16,560,1,53298,1
2,31524,30746,34647,64878,35094,-4105,-389,-1980,-114,-142,39,137,651,-325,1,0,43,16,600,1,53298,1
2,31630,30753,34669,64879,35120,-4111,-388,-1991,-94,-152,135,135,657,-339,1,0,43,16,640,1,53298,1
2,31716,30790,34744,64880,35146,-4121,-344,-1939,25,-188,182,144,640,-336,1,0,43,16,680,1,53298,1
2,31618,30760,34624,64881,35171,-4136,-299,-1903,57,-90,197,134,652,-342,1,0,43,16,720,1,53298,1
2,31561,30746,34555,64882,35197,-4136,-300,-1899,105,68,157,129,645,-335,1,0,43,16,760,1,53298,1
2,31674,30777,34680,64883,35223,-4143,-325,-1922,366,257,109,137,653,-333,1,0,43,16,800,1,53298,1
2,31779,30805,34775,64884,35250,-4143,-297,-1927,852,489,107,140,648,-336,1,0,43,16,840,1,53298,1
2,31826,30842,34828,64885,35277,-4132,-314,-1952,1427,663,149,143,651,-327,1,0,43,16,880,1,53298,1
2,31877,30852,35125,64886,35303,-4103,-392,-2009,1857,576,183,135,637,-341,1,0,43,16,920,1,53298,1
2,31698,30761,34855,64887,35329,-4054,-480,-2064,1744,339,110,134,648,-338,1,0,43,16,960,1,53298,1
1,31999,30890,35226,64888,0,-4033,-536,-2081,1062,118,10,140,638,-338,1,0,43,17,0,0,53298,1
2,31748,30875,34993,64889,34293,-4052,-521,-2075,293,-78,12,132,636,-342,1,0,43,17,40,0,53298,1
2,31994,30868,35177,64890,34320,-4076,-447,-2045,-187,-197,62,145,643,-341,1,0,43,17,80,0,53298,1
2,31916,30729,35015,64891,34346,-4081,-406,-2011,-374,-224,94,142,634,-334,1,0,43,17,120,0,53298,1
2,31668,30706,34990,64892,34372,-4098,-409,-2000,-335,-154,120,133,641,-329,1,0,43,17,160,0,53298,1
2,31499,30700,34700,64893,34398,-4099,-384,-1979,-210,-13,132,128,638,-326,1,0,43,17,200,0,53298,1
2,31665,30678,34897,64894,34423,-4111,-359,-1967,-91,66,111,141,637,-333,1,0,43,17,240,0,53298,1
2,31617,30308,34800,64895,34449,-4108,-368,-1990,5,79,54,131,637,-341,1,0,43,17,280,0,53298,1
2,31802,30826,34991,64896,34475,-4091,-394,-1999,-5,58,-19,137,639,-341,1,0,43,17,320,0,53298,1
2,32027,30789,35231,64897,34501,-4080,-416,-2005,-32,18,-55,140,636,-338,1,0,43,17,360,0,53298,1
2,32027,30890,35221,64898,34527,-4096,-420,-2009,20,8,-36,137,641,-337,1,0,43,17,400,0,53298,1
2,32026,30877,34859,64899,34553,-4077,-400,-2012,49,5,-12,137,641,-345,1,0,43,17,440,0,53298,1
2,31463,30719,34699,64900,34579,-4098,-415,-2011,4,4,-4,132,632,-336,1,0,43,17,480,0,53298,1
2,31455,30114,34670,64901,34605,-4098,-416,-2015,-35,-16,20,137,637,-337,1,0,43,17,520,0,53298,1
2,31746,31349,34866,64902,34631,-4105,-412,-1999,-41,-42,38,133,647,-337,1,0,43,17,560,0,53298,1
2,31792,33586,34955,64903,34658,-4088,-409,-1995,-38,-51,44,134,642,-340,1,0,43,17,600,0,53298,1
2,31822,31504,34969,64904,34684,-4087,-409,-1988,-26,-23,55,125,641,-333,1,0,43,17,640,0,53298,1
2,31910,34850,35168,64905,34709,-4094,-403,-2014,16,21,52,147,645,-337,1,0,43,17,680,0,53298,1
2,31799,34644,35021,64906,34735,-4107,-408,-2013,58,51,46,134,636,-350,1,0,43,17,720,0,53298,1
2,31997,30717,35180,64907,34760,-4091,-407,-2020,53,41,36,131,639,-351,1,0,43,17,760,0,53298,1
2,32015,30804,35196,64908,34786,-4121,-416,-2043,30,-18,13,128,638,-342,1,0,43,17,800,0,53298,1
2,31864,30735,35033,64909,34811,-4149,-428,-2176,-149,-138,-111,135,643,-329,1,0,43,17,840,0,53298,1
2,31836,30762,34127,64910,34836,-4266,-312,-2626,-2197,-2,-876,141,643,-329,1,0,43,17,880,0,53298,1
2,32000,30815,33375,64911,34859,-4858,64,-2714,-8156,-529,-971,141,637,-345,1,0,43,17,920,0,53298,1
2,31520,30647,32113,64912,34883,-4111,113,-1529,-11983,-1591,-738,142,624,-326,1,0,43,17,960,0,53298,1
1,31284,30925,32053,64913,0,-3953,1395,-1803,-5732,-213,1392,139,615,-323,1,0,43,18,0,1,53298,1
2,31430,30340,32157,64914,33840,-4040,1155,-1842,-2509,36,5008,129,605,-335,1,0,43,18,40,1,53298,1
2,31232,34777,32105,64915,33864,-4268,1542,-999,-825,-1026,7873,113,593,-333,1,0,43,18,80,1,53298,1
2,31188,30170,31955,64916,33886,-4591,918,-949,-6157,-1669,8770,80,570,-320,1,0,43,18,120,1,53298,1
2,31135,30712,31865,64917,33909,-4707,-112,-780,-10346,-2828,8284,65,553,-291,1,0,43,18,160,1,53298,1
2,30928,30216,31664,64918,33932,-4677,-1103,-480,-9824,-4502,6533,63,525,-277,1,0,43,18,200,1,53298,1
2,30860,30251,31655,64919,33955,-4431,-1133,-614,-6344,-6731,3728,48,522,-238,1,0,43,18,240,1,53298,1
2,31025,30846,31755,64920,33977,-4256,-1134,-870,-2487,-8552,378,55,499,-209,1,0,43,18,280,1,53298,1
2,30884,31407,31679,64921,34000,-4128,-550,-1088,-376,-8996,-3145,66,500,-212,1,0,43,18,320,1,53298,1
2,30822,31600,31670,64922,34023,-4100,-22,-1428,194,-8740,-5810,95,501,-193,1,0,43,18,360,1,53298,1
2,31126,31215,31923,64923,34045,-3930,536,-1536,1078,-7885,-7394,107,503,-175,1,0,43,18,400,1,53298,1
2,31156,31569,31922,64924,34068,-3974,590,-1527,2026,-6591,-7601,123,501,-163,1,0,43,18,440,1,53298,1
2,30975,31335,31801,64925,34091,-3961,801,-1529,3190,-4830,-6918,136,502,-150,1,0,43,18,480,1,53298,1
2,30945,31516,31646,64926,34114,-3903,712,-1093,2988,-2634,-5848,145,499,-149,1,0,43,18,520,1,53298,1
2,30979,30654,31814,64927,34137,-3906,-797,-98,1156,-1120,-5148,160,508,-146,1,0,43,18,560,1,53298,1
2,30987,33663,31969,64928,34159,-4433,1053,-1571,-339,2476,-2421,156,500,-124,1,0,43,18,600,1,53298,1
2,31008,33526,31976,64929,34181,-8016,-553,625,5734,132,1019,144,506,-136,1,0,43,18,640,1,53298,1
2,30987,32869,31936,64930,34204,-4043,61,15,1899,97,-219,144,510,-144,1,0,43,18,680,1,53298,1
2,30990,33482,31915,64931,34226,-3306,-197,-690,1037,117,201,143,507,-135,1,0,43,18,720,1,53298,1
2,31009,32452,31914,64932,34248,-4763,-320,-928,-962,1301,-71,149,505,-137,1,0,43,18,760,1,53298,1
2,31006,33760,31914,64933,34269,-5040,380,-260,766,1199,10,145,505,-137,1,0,43,18,800,1,53298,1
2,31004,32922,31879,64934,34291,-4406,-132,-580,1509,498,93,142,516,-148,1,0,43,18,840,1,53298,1
2,31020,31959,31874,64935,34313,-4251,-71,-747,1373,492,160,144,508,-144,1,0,43,18,880,1,53298,1
2,30985,33942,31870,64936,34335,-4707,94,-545,702,568,1,134,502,-138,1,0,43,18,920,1,53298,1
2,30986,32921,31855,64937,34356,-4575,40,-560,313,380,-183,140,510,-142,1,0,43,18,960,1,53298,1
1,31021,31364,31873,64938,0,-4400,-78,-664,288,290,-217,144,508,-146,1,0,43,19,0,1,53298,1
2,31008,31104,31865,64939,33390,-4544,-31,-636,457,311,-157,151,509,-153,1,0,43,19,40,1,53298,1
2,31045,30520,31907,64940,33412,-4539,21,-592,439,304,-111,149,503,-149,1,0,43,19,80,1,53298,1
2,31076,30225,31931,64941,33434,-4490,-51,-635,232,294,-47,148,504,-144,1,0,43,19,120,1,53298,1
2,30987,30155,31865,64942,33455,-4516,-51,-686,149,235,47,150,512,-154,1,0,43,19,160,1,53298,1
2,30980,30192,31835,64943,33476,-4526,-22,-648,246,121,84,147,507,-151,1,0,43,19,200,1,53298,1
2,30960,30123,31830,64944,33498,-4504,-17,-654,226,39,77,145,511,-147,1,0,43,19,240,1,53298,1
2,30953,30084,31802,64945,33520,-4495,-13,-659,117,10,34,148,500,-142,1,0,43,19,280,1,53298,1
2,30946,30083,31799,64946,33541,-4512,-13,-638,72,17,-7,136,502,-140,1,0,43,19,320,1,53298,1
2,30952,30099,31796,64947,33562,-4502,-23,-630,68,33,-18,142,508,-154,1,0,43,19,360,1,53298,1
2,30952,30142,31802,64948,33584,-4509,-18,-653,72,38,-6,151,509,-149,1,0,43,19,400,1,53298,1
2,30950,30116,31811,64949,33605,-4520,-20,-642,72,54,5,146,512,-154,1,0,43,19,440,1,53298,1
2,30956,30150,31810,64950,33627,-4519,-28,-654,60,63,-3,146,506,-156,1,0,43,19,480,1,53298,1
2,30960,30129,31808,64951,33648,-4523,-39,-661,64,53,8,148,502,-144,1,0,43,19,520,1,53298,1
2,30965,30147,31819,64952,33669,-4513,-24,-644,62,33,14,145,509,-151,1,0,43,19,560,1,53298,1
2,30975,30125,31846,64953,33691,-4513,-24,-656,56,38,15,138,508,-148,1,0,43,19,600,1,53298,1
2,30973,30090,31837,64954,33712,-4517,-32,-658,52,41,22,149,509,-147,1,0,43,19,640,1,53298,1
2,30974,30074,31837,64955,33734,-4506,-30,-672,38,22,26,150,510,-158,1,0,43,19,680,1,53298,1
2,30941,30067,31799,64956,33756,-4519,-26,-666,31,7,20,144,506,-148,1,0,43,19,720,1,53298,1
2,30935,30099,31796,64957,33778,-4513,-45,-662,34,-9,23,148,518,-152,1,0,43,19,760,1,53298,1
2,30923,30098,31790,64958,33799,-4524,-34,-669,21,-3,26,139,507,-151,1,0,43,19,800,1,53298,1
2,30912,30186,31788,64959,33820,-4510,-22,-657,17,-7,15,143,503,-153,1,0,43,19,840,1,53298,1
2,30933,30101,31802,64960,33841,-4516,-25,-653,13,12,18,140,508,-154,1,0,43,19,880,1,53298,1
2,30826,30037,31703,64961,33863,-4517,-36,-659,15,14,18,131,511,-139,1,0,43,19,920,1,53298,1
2,30808,30060,31694,64962,33885,-4517,-30,-665,21,11,24,149,521,-145,1,0,43,19,960,1,53298,1
1,30803,30247,31693,64963,0,-4524,-36,-666,34,16,15,139,507,-147,1,0,43,20,0,1,53298,1
2,30809,30124,31693,64964,32941,-4514,-32,-647,21,12,13,149,505,-147,1,0,43,20,40,1,53298,1
2,30838,30120,31712,64965,32963,-4513,-21,-668,7,13,19,138,510,-138,1,0,43,20,80,1,53298,1
2,30865,30095,31740,64966,32984,-4521,-44,-658,19,4,21,139,507,-147,1,0,43,20,120,1,53298,1
2,30916,30169,31774,64967,33007,-4508,-30,-666,5,-9,14,146,512,-150,1,0,43,20,160,1,53298,1
2,30960,30203,31816,64968,33029,-4510,-32,-656,6,-5,29,147,503,-151,1,0,43,20,200,1,53298,1
2,30949,30276,31815,64969,33051,-4519,-32,-648,10,-5,28,143,513,-143,1,0,43,20,240,1,53298,1
2,30916,30287,31775,64970,33073,-4535,-42,-665,4,-7,21,138,512,-150,1,0,43,20,280,1,53298,1
2,30897,31909,31754,64971,33095,-4526,-34,-666,-14,-14,38,145,521,-149,1,0,43,20,320,1,53298,1
2,30894,31323,31751,64972,33117,-4527,-17,-681,16,-39,68,151,507,-151,1,0,43,20,360,1,53298,1
2,30903,32375,31745,64973,33140,-4561,6,-637,170,-87,134,144,510,-148,1,0,43,20,400,1,53298,1
2,30903,32152,31726,64974,33162,-4566,62,-695,341,-137,285,143,515,-147,1,0,43,20,440,1,53298,1
2,30883,32327,31734,64975,33184,-4592,121,-843,300,-199,670,141,511,-149,1,0,43,20,480,1,53298,1
2,30864,32955,31695,64976,33207,-4576,290,-1036,363,-282,1604,134,510,-152,1,0,43,20,520,1,53298,1
2,30910,31869,31693,64977,33230,-4291,766,-1180,1911,287,2366,132,512,-158,1,0,43,20,560,1,53298,1
2,30841,33059,31707,64978,33253,-3994,1599,-1319,1497,1480,3516,126,514,-152,1,0,43,20,600,1,53298,1
2,30740,33367,31673,64979,33277,-4200,1312,-1678,-2808,2878,5465,116,504,-170,1,0,43,20,640,1,53298,1
2,30790,32513,31660,64980,33301,-4361,679,-1894,-4502,4627,7142,101,505,-177,1,0,43,20,680,1,53298,1
2,30916,34620,31830,64981,33325,-4536,304,-1802,-2802,6222,7916,83,509,-185,1,0,43,20,720,1,53298,1
2,30910,30727,31727,64982,33348,-4609,-28,-1660,-636,7675,7373,64,516,-208,1,0,43,20,760,1,53298,1
2,30864,31189,31688,64983,33371,-4573,-377,-1385,750,8597,5598,50,512,-228,1,0,43,20,800,1,53298,1
2,30829,31438,31668,64984,33393,-4468,-644,-1226,1282,9078,2944,48,502,-248,1,0,43,20,840,1,53298,1
2,30775,31673,31626,64985,33415,-4426,-1020,-1182,1576,9132,-302,37,515,-269,1,0,43,20,880,1,53298,1
2,30762,31844,31613,64986,33437,-4441,-1014,-890,3891,8211,-3570,46,530,-294,1,0,43,20,920,1,53298,1
2,30811,30458,31632,64987,33458,-4522,-613,-836,5965,6270,-6644,64,534,-336,1,0,43,20,960,1,53298,1
1,30784,32304,31596,64988,0,-4538,-213,-1058,5860,4019,-9232,82,554,-350,1,0,43,21,0,1,53298,1
2,30836,30532,31648,64989,32493,-4413,527,-1159,5865,1643,-10727,121,581,-375,1,0,43,21,40,1,53298,1
2,30874,30434,31691,64990,32515,-4343,790,-1381,3141,-522,-11267,157,581,-371,1,0,43,21,80,1,53298,1
2,30955,30049,31805,64991,32537,-4179,622,-1416,574,-2447,-10410,179,595,-361,1,0,43,21,120,1,53298,1
2,32030,33043,32824,64992,32559,-2123,681,-2856,5330,-2843,-14350,230,596,-354,1,0,43,21,160,1,53298,1
2,31608,31729,32509,64993,32585,-4006,-196,-2662,14319,-4980,-8583,247,601,-343,1,0,43,21,200,1,53298,1
2,31510,32062,32186,64994,32610,-4011,414,-1116,-3030,-2030,3328,238,602,-342,1,0,43,21,240,1,53298,1
2,31859,30248,32576,64995,32633,-4299,-1366,-2193,-17069,1601,2475,214,614,-350,1,0,43,21,280,1,53298,1
2,31571,30164,32300,64996,32655,-3816,159,-2161,1422,-2107,739,218,610,-344,1,0,43,21,320,1,53298,1
2,31484,30302,32047,64997,32676,-4288,-1047,-2942,3906,-1419,33,218,618,-336,1,0,43,21,360,1,53298,1
2,31360,31355,32528,64998,32699,-4173,-947,-1883,6761,-923,933,215,615,-329,1,0,43,21,400,1,53298,1
2,31190,31492,32901,64999,32721,-4182,-528,-1906,8068,598,698,220,620,-330,1,0,43,21,440,1,53298,1
2,31561,30762,33343,65000,32745,-4160,-1217,-2132,2677,2538,-32,221,625,-345,1,0,43,21,480,1,53298,1
2,31529,30700,33301,65001,32769,-4381,-828,-1472,563,1348,61,217,625,-337,1,0,43,21,520,1,53298,1
2,31528,30718,33306,65002,32791,-4196,-790,-1506,68,-121,500,220,626,-330,1,0,43,21,560,1,53298,1
2,31551,30754,33399,65003,32814,-4173,-668,-1730,377,-329,758,222,624,-344,1,0,43,21,600,1,53298,1
2,31502,30693,33438,65004,32837,-4294,-596,-2008,421,-191,1010,212,638,-334,1,0,43,21,640,1,53298,1
2,31557,30718,33406,65005,32861,-4379,-610,-2140,-1206,-138,523,213,643,-325,1,0,43,21,680,1,53298,1
2,31565,30749,33402,65006,32885,-4248,-746,-2139,-128,129,568,209,637,-341,1,0,43,21,720,1,53298,1
2,31581,30661,33048,65007,32909,-4103,-871,-1898,265,-59,504,214,640,-336,1,0,43,21,760,1,53298,1
2,31502,30641,33052,65008,32932,-4064,-963,-1837,-31,-322,514,203,633,-323,1,0,43,21,800,1,53298,1
2,31575,30740,33379,65009,32956,-4112,-820,-1886,-796,-374,368,207,633,-331,1,0,43,21,840,1,53298,1
2,31574,30672,33415,65010,32980,-4195,-717,-1972,-878,-225,287,203,643,-323,1,0,43,21,880,1,53298,1
2,31597,30498,33471,65011,33004,-4238,-677,-1963,-275,-18,285,205,637,-329,1,0,43,21,920,1,53298,1
2,31574,30747,33471,65012,33027,-4176,-667,-1906,323,94,213,196,634,-332,1,0,43,21,960,1,53298,1
1,31565,30745,33494,65013,0,-4168,-787,-1894,42,283,25,194,642,-330,1,0,43,22,0,1,53298,1
2,31548,30707,33499,65014,32047,-4158,-739,-1904,68,199,61,200,638,-336,1,0,43,22,40,1,53298,1
2,31557,30611,33519,65015,32070,-4188,-724,-1913,-154,95,78,199,637,-325,1,0,43,22,80,1,53298,1
2,31561,30562,33520,65016,32094,-4172,-727,-1923,-213,-84,99,200,640,-334,1,0,43,22,120,1,53298,1
2,31526,30425,33507,65017,32118,-4179,-712,-1885,-205,-183,108,196,642,-326,1,0,43,22,160,1,53298,1
2,31426,30639,33351,65018,32142,-4170,-706,-1904,-145,-147,130,199,647,-335,1,0,43,22,200,1,53298,1
2,31538,30191,33502,65019,32165,-4176,-702,-1890,-90,-98,113,207,633,-331,1,0,43,22,240,1,53298,1
2,31531,30358,33500,65020,32189,-4171,-698,-1894,-92,-88,77,197,635,-325,1,0,43,22,280,1,53298,1
2,31534,30271,33461,65021,32213,-4182,-712,-1886,-52,-100,45,192,640,-326,1,0,43,22,320,1,53298,1
2,31424,30643,33410,65022,32237,-4180,-709,-1866,-78,-104,39,193,635,-329,1,0,43,22,360,1,53298,1
2,31535,30682,33435,65023,32263,-4185,-702,-1883,-127,-84,23,197,639,-333,1,0,43,22,400,1,53298,1
2,31250,30480,33272,65024,32288,-4180,-698,-1870,-82,-56,49,197,635,-323,1,0,43,22,440,1,53298,1
2,31228,30452,33260,65025,32313,-4177,-687,-1888,28,-13,57,195,641,-329,1,0,43,22,480,1,53298,1
2,31204,29996,33248,65026,32337,-4185,-686,-1867,79,13,60,204,642,-336,1,0,43,22,520,1,53298,1
2,31221,30511,33266,65027,32361,-4171,-692,-1878,87,38,63,193,639,-327,1,0,43,22,560,1,53298,1
2,31253,30634,33284,65028,32385,-4174,-691,-1878,88,37,60,191,629,-337,1,0,43,22,600,1,53298,1
2,31308,30512,33351,65029,32409,-4183,-697,-1887,54,32,47,201,641,-327,1,0,43,22,640,1,53298,1
2,31549,30722,33548,65030,32433,-4181,-699,-1896,17,9,37,202,636,-334,1,0,43,22,680,1,53298,1
2,31537,30437,33531,65031,32456,-4180,-693,-1893,22,-2,37,203,639,-335,1,0,43,22,720,1,53298,1
2,31539,30616,33541,65032,32480,-4177,-698,-1881,27,5,37,204,648,-324,1,0,43,22,760,1,53298,1
2,31509,30119,33513,65033,32504,-4182,-699,-1886,24,-3,37,202,630,-338,1,0,43,22,800,1,53298,1
2,31537,30404,33548,65034,32528,-4170,-691,-1895,5,-16,36,199,637,-329,1,0,43,22,840,1,53298,1
2,31478,30347,33538,65035,32551,-4180,-702,-1883,9,-4,40,200,628,-328,1,0,43,22,880,1,53298,1
2,31291,30524,33334,65036,32575,-4190,-707,-1890,13,12,29,195,631,-329,1,0,43,22,920,1,53298,1
2,31241,30052,33308,65037,32598,-4167,-694,-1892,1,7,31,191,641,-313,1,0,43,22,960,1,53298,1
1,31278,30223,33317,65038,0,-4169,-702,-1889,-9,-4,25,195,637,-329,1,0,43,23,0,0,53298,1
2,31222,31388,33275,65039,31599,-4181,-699,-1885,-2,1,15,197,645,-329,1,0,43,23,40,0,53298,1
2,31513,30099,33511,65040,31623,-4169,-694,-1882,-17,-6,16,199,635,-329,1,0,43,23,80,0,53298,1
2,31564,30538,33564,65041,31647,-4176,-701,-1870,-26,-7,18,189,635,-325,1,0,43,23,120,0,53298,1
2,31468,30670,33345,65042,31671,-4179,-699,-1897,-24,-2,21,204,628,-330,1,0,43,23,160,0,53298,1
2,31355,29952,33364,65043,31695,-4184,-693,-1897,-18,-20,14,202,640,-332,1,0,43,23,200,0,53298,1
2,31389,30430,33387,65044,31718,-4193,-738,-1936,101,7,11,199,633,-333,1,0,43,23,240,0,53298,1
2,31349,30561,33200,65045,31741,-4236,-731,-2082,146,72,-90,197,637,-319,1,0,43,23,280,0,53298,1
2,31297,32500,32901,65046,31764,-4379,-756,-2349,-279,-6,-207,195,629,-331,1,0,43,23,320,0,53298,1
2,31761,30568,32604,65047,31788,-4669,-511,-2340,-2562,-535,-55,200,630,-338,1,0,43,23,360,0,53298,1
2,31189,30452,31908,65048,31811,-4376,330,-1942,-5395,-226,1806,195,633,-341,1,0,43,23,400,0,53298,1
2,31017,30066,31727,65049,31834,-3967,521,-1977,-4343,624,3697,187,615,-343,1,0,43,23,440,0,53298,1
2,30903,29925,31611,65050,31856,-3986,1343,-1182,2701,1009,6362,169,609,-343,1,0,43,23,480,0,53298,1
2,30806,30418,31545,65051,31878,-4253,662,-961,-3592,449,7452,147,597,-333,1,0,43,23,520,0,53298,1
2,30800,30415,31541,65052,31899,-4486,-536,-1136,-8842,-348,7460,117,579,-325,1,0,43,23,560,0,53298,1
2,30797,30470,31551,65053,31921,-4695,-853,-610,-9231,-2525,6929,99,565,-301,1,0,43,23,600,0,53298,1
2,30827,30471,31564,65054,31942,-4648,-1082,-655,-6912,-5294,5296,80,556,-274,1,0,43,23,640,0,53298,1
2,30843,30492,31568,65055,31963,-4401,-963,-710,-3800,-8067,3059,80,540,-234,1,0,43,23,680,0,53298,1
2,30874,30466,31598,65056,31985,-4162,-649,-1030,-1258,-9551,743,89,533,-223,1,0,43,23,720,0,53298,1
2,31013,30486,31722,65057,32008,-4116,-189,-1365,-880,-9416,-1387,95,519,-205,1,0,43,23,760,0,53298,1
2,30817,30375,31626,65058,32030,-4087,250,-1533,-1149,-8542,-2889,110,512,-186,1,0,43,23,800,0,53298,1
2,31057,30637,31793,65059,32053,-4109,306,-1654,-310,-7050,-3463,113,511,-183,1,0,43,23,840,0,53298,1
2,31032,30572,31722,65060,32076,-4160,266,-1534,651,-5323,-3463,126,512,-148,1,0,43,23,880,0,53298,1
2,31108,30621,31849,65061,32098,-3999,167,-1373,1326,-3706,-3258,131,503,-149,1,0,43,23,920,0,53298,1
2,31202,31471,31960,65062,32120,-3716,2976,-2669,442,-1515,-2792,138,500,-142,1,0,43,23,960,0,53298,1
1,31217,31714,31987,65063,0,-7116,477,-867,2129,1381,1103,128,500,-148,1,0,43,24,0,0,53298,1
2,31172,32117,31918,65064,31149,-4520,-92,507,4467,167,-335,129,511,-143,1,0,43,24,40,0,53298,1
2,31202,30488,31909,65065,31171,-3829,236,-291,943,176,-542,124,508,-146,1,0,43,24,80,0,53298,1
2,31258,30427,31977,65066,31192,-4600,98,-1053,274,638,-30,128,494,-144,1,0,43,24,120,0,53298,1
2,31184,30610,31960,65067,31214,-4765,155,-563,740,1002,-396,132,504,-152,1,0,43,24,160,0,53298,1
2,31172,31217,31942,65068,31236,-4426,116,-525,1068,902,-556,131,499,-159,1,0,43,24,200,0,53298,1
2,31186,31103,31932,65069,31257,-4370,-15,-873,1340,796,-161,129,501,-163,1,0,43,24,240,0,53298,1
2,31211,31046,31983,65070,31279,-4546,171,-752,1352,835,-64,121,505,-149,1,0,43,24,280,0,53298,1
2,31203,31070,31978,65071,31301,-4507,126,-666,967,642,-10,124,502,-162,1,0,43,24,320,0,53298,1
2,31207,31291,31964,65072,31322,-4431,50,-798,362,549,106,128,504,-164,1,0,43,24,360,0,53298,1
2,31197,33747,31976,65073,31344,-4487,102,-850,432,408,170,124,508,-158,1,0,43,24,400,0,53298,1
2,31231,34455,32105,65074,31365,-4471,112,-788,486,208,67,119,507,-153,1,0,43,24,440,0,53298,1
2,31253,34546,32122,65075,31385,-4463,117,-735,406,128,-58,128,506,-170,1,0,43,24,480,0,53298,1
2,31292,34618,32159,65076,31407,-4482,109,-792,120,139,-113,127,501,-157,1,0,43,24,520,0,53298,1
2,31248,34560,32125,65077,31427,-4467,65,-798,-52,88,-91,123,507,-167,1,0,43,24,560,0,53298,1
2,31255,34539,32119,65078,31448,-4467,82,-781,62,26,-9,125,509,-163,1,0,43,24,600,0,53298,1
2,31234,34525,32133,65079,31468,-4470,113,-767,175,11,57,125,503,-151,1,0,43,24,640,0,53298,1
2,31231,34492,32103,65080,31489,-4475,93,-770,104,26,65,124,506,-158,1,0,43,24,680,0,53298,1
2,31260,34530,32110,65081,31509,-4470,91,-793,16,40,62,121,501,-167,1,0,43,24,720,0,53298,1
2,31250,34377,32077,65082,31530,-4482,91,-794,18,6,52,125,505,-161,1,0,43,24,760,0,53298,1
2,31241,34365,32080,65083,31551,-4462,88,-779,33,-37,32,128,508,-162,1,0,43,24,800,0,53298,1
2,31250,34335,32088,65084,31571,-4458,101,-764,28,-52,22,121,501,-169,1,0,43,24,840,0,53298,1
2,31225,34225,32056,65085,31592,-4478,94,-785,4,-28,21,124,502,-156,1,0,43,24,880,0,53298,1
2,31224,34226,32037,65086,31613,-4472,92,-770,15,5,23,128,500,-166,1,0,43,24,920,0,53298,1
2,31311,34459,32102,65087,31633,-4473,97,-761,45,24,6,131,499,-161,1,0,43,24,960,0,53298,1
1,31290,34109,32052,65088,0,-4469,103,-764,42,46,-4,132,508,-162,1,0,43,25,0,1,53298,1
2,31274,34163,32044,65089,30701,-4468,97,-786,32,51,-3,122,500,-162,1,0,43,25,40,1,53298,1
2,31240,33269,31981,65090,30722,-4487,80,-789,14,33,9,134,496,-162,1,0,43,25,80,1,53298,1
2,31230,33207,31983,65091,30744,-4466,81,-795,33,12,13,122,508,-162,1,0,43,25,120,1,53298,1
2,31210,31897,31964,65092,30766,-4482,95,-789,17,-9,24,125,499,-161,1,0,43,25,160,1,53298,1
2,31282,30743,32018,65093,30787,-4469,93,-792,-5,-12,21,128,496,-166,1,0,43,25,200,1,53298,1
2,31215,30839,31992,65094,30808,-4477,92,-775,-1,-13,19,117,507,-157,1,0,43,25,240,1,53298,1
2,31189,31127,31992,65095,30830,-4476,87,-776,14,-10,17,120,508,-160,1,0,43,25,280,1,53298,1
2,31199,30821,31999,65096,30852,-4461,89,-787,12,5,21,128,504,-156,1,0,43,25,320,1,53298,1
2,31192,30976,31990,65097,30873,-4474,94,-781,8,13,25,130,504,-156,1,0,43,25,360,1,53298,1
2,31174,30739,32000,65098,30895,-4468,95,-792,21,11,15,122,502,-170,1,0,43,25,400,1,53298,1
2,31177,30732,32009,65099,30917,-4479,85,-777,18,2,15,122,508,-160,1,0,43,25,440,1,53298,1
2,31147,31409,31983,65100,30938,-4475,85,-796,-3,-4,7,122,512,-156,1,0,43,25,480,1,53298,1
2,31140,32380,31964,65101,30959,-4477,89,-788,-2,-9,-1,130,506,-164,1,0,43,25,520,1,53298,1
2,31150,31400,31981,65102,30981,-4472,99,-774,-1,-23,5,130,508,-164,1,0,43,25,560,1,53298,1
2,31171,30920,32004,65103,31002,-4473,96,-796,-24,-21,-3,130,508,-164,1,0,43,25,600,1,53298,1
2,31204,30437,32030,65104,31024,-4472,92,-774,-53,-34,-11,125,509,-163,1,0,43,25,640,1,53298,1
2,31210,30459,32030,65105,31045,-4480,94,-794,-65,-65,-9,130,504,-152,1,0,43,25,680,1,53298,1
2,31224,30457,32036,65106,31067,-4472,91,-779,-103,-104,-12,127,499,-159,1,0,43,25,720,1,53298,1
2,31200,30358,32029,65107,31087,-4474,79,-788,-147,-132,-11,133,499,-167,1,0,43,25,760,1,53298,1
2,31210,30380,32026,65108,31109,-4486,96,-773,-125,-164,7,124,496,-162,1,0,43,25,800,1,53298,1
2,31191,30470,32018,65109,31129,-4464,81,-759,-169,-207,17,131,503,-159,1,0,43,25,840,1,53298,1
2,31221,30406,32031,65110,31150,-4473,98,-789,-225,-202,59,128,506,-160,1,0,43,25,880,1,53298,1
2,31213,30426,32028,65111,31171,-4553,138,-756,-131,-271,40,127,503,-153,1,0,43,25,920,1,53298,1
2,31189,30377,32023,65112,31192,-4592,130,-773,-83,-354,87,120,508,-172,1,0,43,25,960,1,53298,1
1,31150,30414,31996,65113,0,-4596,89,-897,-543,-468,368,128,496,-158,1,0,43,26,0,0,53298,1
2,31047,32589,31919,65114,30255,-4810,-136,-1097,-1063,-644,766,125,501,-157,1,0,43,26,40,0,53298,1
2,31346,31275,31992,65115,30278,-4789,-402,-1465,-158,25,281,133,503,-167,1,0,43,26,80,0,53298,1
2,31390,32848,32009,65116,30301,-4897,-329,-1342,453,1049,-999,120,506,-158,1,0,43,26,120,0,53298,1
2,31487,30397,32102,65117,30325,-4865,-792,-1682,-3152,2610,-3143,138,516,-168,1,0,43,26,160,0,53298,1
2,31526,30397,32116,65118,30350,-4775,-1126,-1710,-1695,4550,-4724,150,534,-188,1,0,43,26,200,0,53298,1
2,31536,30502,32102,65119,30374,-4761,-1265,-1350,2582,5932,-6075,168,546,-202,1,0,43,26,240,0,53298,1
2,31544,30494,32086,65120,30396,-4883,-1344,-1031,7337,6085,-7254,189,559,-221,1,0,43,26,280,0,53298,1
2,31505,30467,32022,65121,30417,-4609,-931,-787,9458,5221,-9024,221,563,-245,1,0,43,26,320,0,53298,1
2,31503,30523,31975,65122,30439,-4160,-386,-769,6559,4463,-10701,262,562,-256,1,0,43,26,360,0,53298,1
2,31413,32822,31917,65123,30461,-3605,-120,-672,3211,3712,-10543,299,551,-263,1,0,43,26,400,0,53298,1
2,31405,31971,31945,65124,30483,-3247,3958,2064,18410,828,-5658,311,561,-263,1,0,43,26,440,0,53298,1
2,31376,33722,31873,65125,30504,-3960,-2019,-1515,-15234,-86,-6012,324,538,-268,1,0,43,26,480,0,53298,1
2,31108,32362,31570,65126,30526,-4099,-1785,-1868,-6869,1353,-6400,344,542,-288,1,0,43,26,520,0,53298,1
2,31066,31871,31565,65127,30548,-4813,-1986,-1767,-5192,1432,-7195,363,541,-301,1,0,43,26,560,0,53298,1
2,31078,31263,31598,65128,30569,-4869,-1725,-1454,543,-627,-6082,377,535,-291,1,0,43,26,600,0,53298,1
2,31229,31285,31718,65129,30592,-4618,-791,-1640,2390,-1607,-4921,397,529,-291,1,0,43,26,640,0,53298,1
2,31250,31372,31766,65130,30613,-4278,-1014,-1732,-718,-1903,-3438,411,521,-287,1,0,43,26,680,0,53298,1
2,31335,31387,31890,65131,30635,-4231,-1351,-1410,-3628,-1163,-2216,410,512,-298,1,0,43,26,720,0,53298,1
2,31395,31408,31921,65132,30658,-4163,-1297,-1071,-2450,-826,-817,416,510,-292,1,0,43,26,760,0,53298,1
2,31370,31928,31910,65133,30680,-4187,-1368,-930,-3595,-568,151,410,518,-292,1,0,43,26,800,0,53298,1
2,31429,31820,32032,65134,30703,-4129,-1193,-1069,-4200,-585,1016,394,526,-294,1,0,43,26,840,0,53298,1
2,31557,31309,32219,65135,30726,-4300,-1016,-1269,-5868,-1029,1912,396,546,-304,1,0,43,26,880,0,53298,1
2,31806,31045,33726,65136,30748,-2689,562,-888,-14259,-3186,2746,371,549,-317,1,0,43,26,920,0,53298,1
2,33320,31759,34557,65137,30772,-4468,-3611,-2917,-27661,-1676,1522,365,557,-327,1,0,43,26,960,0,53298,1
1,32407,32043,34553,65138,0,-4383,-626,-2280,-2365,-2126,889,353,563,-317,1,0,43,27,0,1,53298,1
2,31530,31041,33612,65139,29810,-4223,-1399,-1583,-1709,-770,611,361,561,-319,1,0,43,27,40,1,53298,1
2,32354,31141,34652,65140,29834,-4217,-1322,-1662,-252,450,1219,347,565,-321,1,0,43,27,80,1,53298,1
2,31232,30799,33934,65141,29859,-4256,-886,-974,731,-479,2425,337,575,-325,1,0,43,27,120,1,53298,1
2,31072,31106,34054,65142,29884,-4497,-1668,-1356,-2381,-729,2205,342,572,-312,1,0,43,27,160,1,53298,1
2,31964,38227,34791,65143,29908,-4382,-1429,-1524,-2088,-770,714,331,575,-313,1,0,43,27,200,1,53298,1
2,31513,40807,34617,65144,29931,-4395,-1083,-1782,155,-849,348,346,572,-308,1,0,43,27,240,1,53298,1
2,31155,32623,34103,65145,29954,-4399,-919,-1665,1141,-600,559,332,578,-310,1,0,43,27,280,1,53298,1
2,31560,32899,34225,65146,29978,-4468,-1011,-1414,1166,-218,581,337,579,-313,1,0,43,27,320,1,53298,1
2,31609,33465,35278,65147,30002,-4447,-936,-1424,625,-133,348,335,577,-309,1,0,43,27,360,1,53298,1
2,31343,33872,34209,65148,30025,-4340,-1071,-1514,-566,-38,137,321,579,-301,1,0,43,27,400,1,53298,1
2,32224,37498,35060,65149,30048,-4316,-1146,-1487,-398,-71,146,333,575,-309,1,0,43,27,440,1,53298,1
2,32101,37956,34968,65150,30072,-4316,-1145,-1539,-184,-43,61,333,585,-295,1,0,43,27,480,1,53298,1
2,32122,39528,34978,65151,30095,-4337,-1072,-1503,10,27,-39,329,577,-307,1,0,43,27,520,1,53298,1
2,32215,39054,35058,65152,30118,-4407,-1034,-1421,165,42,-50,325,579,-303,1,0,43,27,560,1,53298,1
2,32242,37206,35047,65153,30141,-4392,-1041,-1425,-39,-29,-24,325,577,-309,1,0,43,27,600,1,53298,1
2,32140,36949,34967,65154,30165,-4350,-1069,-1440,-235,-117,7,330,576,-304,1,0,43,27,640,1,53298,1
2,32180,36492,34951,65155,30188,-4355,-1103,-1465,-305,-131,7,330,576,-302,1,0,43,27,680,1,53298,1
2,31731,35947,34519,65156,30212,-4365,-1086,-1461,-183,-103,23,323,581,-299,1,0,43,27,720,1,53298,1
2,31684,35535,34437,65157,30235,-4373,-1066,-1429,-14,-28,26,319,579,-295,1,0,43,27,760,1,53298,1
2,31438,35239,34241,65158,30258,-4366,-1063,-1423,5,4,29,328,578,-298,1,0,43,27,800,1,53298,1
2,31568,33701,34350,65159,30280,-4364,-1040,-1427,-20,30,8,329,569,-313,1,0,43,27,840,1,53298,1
2,32151,34598,35176,65160,30303,-4360,-1084,-1445,-53,38,9,328,572,-294,1,0,43,27,880,1,53298,1
2,32425,34385,35198,65161,30326,-4346,-1065,-1451,0,8,11,330,572,-302,1,0,43,27,920,1,53298,1
2,31642,33125,34400,65162,30349,-4357,-1060,-1437,-6,4,1,333,581,-303,1,0,43,27,960,1,53298,1
1,31665,33018,34431,65163,0,-4367,-1062,-1463,-30,7,3,337,583,-311,1,0,43,28,0,0,53298,1
2,31535,33140,34302,65164,29362,-4368,-1055,-1445,-20,20,16,327,583,-299,1,0,43,28,40,0,53298,1
2,31638,32937,34384,65165,29385,-4365,-1069,-1446,-28,-5,19,327,573,-301,1,0,43,28,80,0,53298,1
2,31604,33524,34368,65166,29407,-4359,-1071,-1436,-21,-23,13,335,581,-299,1,0,43,28,120,0,53298,1
2,31690,32477,34421,65167,29430,-4354,-1067,-1436,-24,-22,12,332,576,-296,1,0,43,28,160,0,53298,1
2,31726,32235,34463,65168,29453,-4362,-1066,-1438,-1,-13,8,332,578,-302,1,0,43,28,200,0,53298,1
2,31532,32329,34276,65169,29475,-4371,-1062,-1436,34,9,6,331,575,-295,1,0,43,28,240,0,53298,1
2,31613,31978,34348,65170,29498,-4379,-1054,-1443,38,13,34,326,578,-314,1,0,43,28,280,0,53298,1
2,31695,32071,34450,65171,29521,-4377,-1051,-1447,-32,-4,43,327,575,-297,1,0,43,28,320,0,53298,1
2,31704,32120,34530,65172,29543,-4366,-1058,-1419,-38,-51,49,328,570,-306,1,0,43,28,360,0,53298,1
2,31666,31949,34360,65173,29565,-4375,-1044,-1439,-129,-95,63,329,583,-303,1,0,43,28,400,0,53298,1
2,31810,32091,34549,65174,29588,-4386,-1042,-1461,-436,-115,67,321,581,-303,1,0,43,28,440,0,53298,1
2,31846,31647,34471,65175,29610,-4488,-908,-1534,-1054,-57,88,325,581,-303,1,0,43,28,480,0,53298,1
2,31850,35052,34511,65176,29632,-4506,-436,-1249,-1255,16,178,322,580,-294,1,0,43,28,520,0,53298,1
2,31971,33530,34045,65177,29653,-4480,-1328,-1432,-2601,207,194,332,578,-310,1,0,43,28,560,0,53298,1
2,32305,31228,32860,65178,29674,-4920,-973,-1523,2928,-225,547,327,575,-299,1,0,43,28,600,0,53298,1
2,31840,30769,32390,65179,29697,-4383,-931,-1433,4570,-383,1156,320,576,-298,1,0,43,28,640,0,53298,1
2,31656,30604,32297,65180,29719,-4631,-1295,-998,3003,-598,886,319,565,-285,1,0,43,28,680,0,53298,1
2,31719,30314,32136,65181,29742,-4611,15,-631,10862,-2656,2129,314,564,-276,1,0,43,28,720,0,53298,1
2,31420,30142,31963,65182,29764,-4544,-572,-642,4665,-4383,3537,297,567,-257,1,0,43,28,760,0,53298,1
2,31757,30285,32300,65183,29785,-4237,-263,-847,2167,-5156,4878,284,556,-250,1,0,43,28,800,0,53298,1
2,31365,30125,31895,65184,29808,-4258,-307,-1118,2284,-5097,6421,267,557,-217,1,0,43,28,840,0,53298,1
2,31398,30165,31952,65185,29831,-4469,-542,-74,4057,-5869,8086,244,548,-208,1,0,43,28,880,0,53298,1
2,31395,30150,31970,65186,29853,-4595,-1035,127,1945,-6583,8193,227,539,-183,1,0,43,28,920,0,53298,1
2,31405,30206,32005,65187,29876,-4625,-1319,-94,235,-7202,6851,195,533,-167,1,0,43,28,960,0,53298,1
1,31490,30236,32118,65188,0,-4569,-1199,-261,432,-7538,4997,193,517,-149,1,0,43,29,0,0,53298,1
2,31502,30274,32140,65189,28917,-4596,-848,-418,1838,-7733,3440,191,495,-131,1,0,43,29,40,0,53298,1
2,31461,30878,32120,65190,28940,-4379,-684,-771,3115,-7336,2192,188,492,-132,1,0,43,29,80,0,53298,1
2,31653,34999,32300,65191,28964,-4238,-220,-783,4699,-5852,1137,186,480,-114,1,0,43,29,120,0,53298,1
2,31629,34976,32285,65192,28989,-4018,-239,-754,2799,-3897,109,179,473,-95,1,0,43,29,160,0,53298,1
2,31630,34568,32114,65193,29013,-3855,-11,-1494,1916,-1927,-730,176,474,-118,1,0,43,29,200,0,53298,1
2,31493,32091,32152,65194,29037,-5270,-495,-975,4211,2124,105,173,475,-107,1,0,43,29,240,0,53298,1
2,31470,32338,32119,65195,29061,-6160,740,70,5075,1597,-1103,175,473,-109,1,0,43,29,280,0,53298,1
2,31465,31573,32071,65196,29084,-4631,-351,-23,3605,1006,-1195,179,487,-113,1,0,43,29,320,0,53298,1
2,31631,34978,32249,65197,29106,-3436,-591,116,1330,1473,-364,168,470,-118,1,0,43,29,360,0,53298,1
2,31640,35042,32286,65198,29128,-4871,-111,-292,-605,1653,168,175,475,-125,1,0,43,29,400,0,53298,1
2,31640,34933,32275,65199,29150,-5091,67,-240,434,1026,534,170,482,-122,1,0,43,29,440,0,53298,1
2,31472,31521,32083,65200,29172,-4467,-234,-225,928,377,120,168,478,-122,1,0,43,29,480,0,53298,1
2,31637,34871,32262,65201,29194,-4416,-199,-203,569,31,-63,163,475,-127,1,0,43,29,520,0,53298,1
2,31477,31613,32087,65202,29215,-4764,-80,-210,-119,-259,-220,165,469,-115,1,0,43,29,560,0,53298,1
2,31634,34967,32261,65203,29237,-4601,-182,-137,-331,-499,-281,161,479,-115,1,0,43,29,600,0,53298,1
2,31486,30940,32101,65204,29259,-4496,-270,-178,-145,-603,-69,173,475,-129,1,0,43,29,640,0,53298,1
2,31473,31374,32088,65205,29281,-4605,-176,-121,140,-564,253,174,470,-116,1,0,43,29,680,0,53298,1
2,31485,30850,32100,65206,29303,-4625,-119,-71,170,-391,356,170,478,-114,1,0,43,29,720,0,53298,1
2,31480,30996,32095,65207,29326,-4573,-143,-85,72,-133,268,171,475,-113,1,0,43,29,760,0,53298,1
2,31472,31568,32087,65208,29348,-4589,-143,-120,7,55,126,164,482,-122,1,0,43,29,800,0,53298,1
2,31469,31732,32080,65209,29370,-4617,-163,-117,56,151,-10,169,477,-115,1,0,43,29,840,0,53298,1
2,31473,31385,32090,65210,29392,-4586,-164,-133,87,173,-68,158,476,-110,1,0,43,29,880,0,53298,1
2,31468,31339,32080,65211,29413,-4594,-158,-145,77,120,-46,174,490,-120,1,0,43,29,920,0,53298,1
2,31460,31877,32080,65212,29434,-4603,-173,-146,20,36,-16,172,480,-122,1,0,43,29,960,0,53298,1
1,31462,31659,32076,65213,0,-4589,-175,-149,25,-7,-8,170,476,-116,1,0,43,30,0,1,53298,1
2,31464,31858,32084,65214,28468,-4592,-157,-145,50,-27,-9,168,486,-126,1,0,43,30,40,1,53298,1
2,31458,32287,32077,65215,28489,-4590,-159,-105,26,8,-15,170,472,-124,1,0,43,30,80,1,53298,1
2,31617,34931,32249,65216,28510,-4591,-169,-138,-1,52,13,165,485,-115,1,0,43,30,120,1,53298,1
2,31619,34988,32251,65217,28531,-4606,-189,-142,29,43,28,181,473,-123,1,0,43,30,160,1,53298,1
2,31613,34987,32236,65218,28552,-4593,-167,-142,25,17,44,164,472,-120,1,0,43,30,200,1,53298,1
2,31611,34992,32242,65219,28573,-4596,-162,-145,9,-18,42,171,483,-117,1,0,43,30,240,1,53298,1
2,31610,34991,32239,65220,28595,-4608,-168,-129,2,-44,36,165,483,-103,1,0,43,30,280,1,53298,1
2,31609,34996,32242,65221,28616,-4597,-170,-123,29,-34,16,171,475,-111,1,0,43,30,320,1,53298,1
2,31614,35001,32249,65222,28638,-4604,-176,-126,23,12,7,165,477,-111,1,0,43,30,360,1,53298,1
2,31616,35004,32249,65223,28660,-4583,-155,-151,9,36,8,169,471,-113,1,0,43,30,400,1,53298,1
2,31611,35000,32247,65224,28683,-4604,-171,-127,23,39,15,173,481,-105,1,0,43,30,440,1,53298,1
2,31618,35007,32247,65225,28704,-4600,-165,-147,28,13,28,164,470,-124,1,0,43,30,480,1,53298,1
2,31618,35004,32250,65226,28725,-4596,-161,-137,8,-14,31,164,484,-130,1,0,43,30,520,1,53298,1
2,31621,35003,32250,65227,28747,-4593,-167,-126,13,-21,35,172,474,-126,1,0,43,30,560,1,53298,1
2,31616,35006,32254,65228,28768,-4588,-158,-133,14,-24,37,163,481,-123,1,0,43,30,600,1,53298,1
2,31616,35006,32250,65229,28790,-4588,-162,-134,5,-24,31,170,476,-122,1,0,43,30,640,1,53298,1
2,31619,35007,32249,65230,28812,-4604,-169,-136,8,-16,28,168,482,-106,1,0,43,30,680,1,53298,1
2,31619,35006,32251,65231,28834,-4597,-175,-143,8,-5,31,171,477,-111,1,0,43,30,720,1,53298,1
2,31619,35010,32253,65232,28855,-4601,-167,-148,17,-6,21,169,477,-115,1,0,43,30,760,1,53298,1
2,31617,35003,32249,65233,28877,-4588,-164,-130,-4,-5,30,163,475,-119,1,0,43,30,800,1,53298,1
2,31619,35011,32253,65234,28898,-4596,-158,-165,0,6,24,168,468,-112,1,0,43,30,840,1,53298,1
2,31625,35008,32255,65235,28919,-4592,-160,-136,-4,-6,14,172,476,-120,1,0,43,30,880,1,53298,1
2,31625,35011,32253,65236,28941,-4602,-170,-134,11,-14,-18,166,472,-116,1,0,43,30,920,1,53298,1
2,31617,35008,32249,65237,28963,-4590,-165,-133,9,-45,-7,174,476,-126,1,0,43,30,960,1,53298,1
1,31620,35010,32255,65238,0,-4594,-181,-131,-20,-52,23,169,485,-121,1,0,43,31,0,1,53298,1
2,31615,35008,32253,65239,28023,-4599,-153,-125,13,-61,59,175,477,-115,1,0,43,31,40,1,53298,1
2,31612,34996,32244,65240,28045,-4598,-159,-124,37,-12,49,165,481,-113,1,0,43,31,80,1,53298,1
2,31615,35004,32247,65241,28067,-4598,-156,-133,25,46,17,167,473,-113,1,0,43,31,120,1,53298,1
2,31606,34994,32237,65242,28089,-4588,-164,-151,6,70,-12,171,481,-117,1,0,43,31,160,1,53298,1
2,31613,34996,32236,65243,28111,-4590,-166,-150,39,40,-10,160,474,-122,1,0,43,31,200,1,53298,1
2,31611,34997,32239,65244,28132,-4603,-165,-139,41,-2,2,166,480,-114,1,0,43,31,240,1,53298,1
2,31612,34997,32233,65245,28153,-4588,-155,-147,19,-29,13,172,474,-116,1,0,43,31,280,1,53298,1
2,31611,34998,32248,65246,28175,-4600,-168,-135,-9,-56,12,167,485,-119,1,0,43,31,320,1,53298,1
2,31614,34999,32240,65247,28196,-4589,-169,-119,-12,-70,17,167,469,-119,1,0,43,31,360,1,53298,1
2,31607,35000,32238,65248,28217,-4618,-166,-126,-16,-76,14,158,474,-108,1,0,43,31,400,1,53298,1
2,31612,35002,32240,65249,28238,-4637,-141,-169,-43,-108,-8,167,477,-119,1,0,43,31,440,1,53298,1
2,31608,35001,32235,65250,28259,-4656,-131,-115,266,-120,-95,174,482,-126,1,0,43,31,480,1,53298,1
2,31609,34996,32233,65251,28281,-4650,-148,-122,368,-124,-55,168,468,-122,1,0,43,31,520,1,53298,1
2,31629,34998,32235,65252,28302,-4820,-157,-241,36,-389,613,166,478,-114,1,0,43,31,560,1,53298,1
2,31477,32267,32046,65253,28324,-4826,-130,-577,182,-838,1516,166,478,-120,1,0,43,31,600,1,53298,1
2,31543,30284,32063,65254,28348,-4488,-173,-633,-452,-448,1425,169,479,-123,1,0,43,31,640,1,53298,1
2,31566,34797,32206,65255,28372,-4113,808,-971,-858,427,1692,161,477,-127,1,0,43,31,680,1,53298,1
2,31616,34680,32156,65256,28395,-4609,162,-1525,-4190,2681,2291,164,482,-118,1,0,43,31,720,1,53298,1
2,31593,34587,32094,65257,28419,-4967,-770,-1706,-5442,5780,1792,149,495,-127,1,0,43,31,760,1,53298,1
2,31476,34367,32022,65258,28443,-5203,-1400,-1179,-1067,8176,383,151,509,-143,1,0,43,31,800,1,53298,1
2,31523,34744,32063,65259,28466,-5102,-1781,-672,3507,9273,-2286,152,526,-166,1,0,43,31,840,1,53298,1
2,31472,33915,31990,65260,28490,-4961,-1860,-256,6698,8764,-5904,165,539,-179,1,0,43,31,880,1,53298,1
2,31549,33895,31966,65261,28512,-4759,-1660,-57,7790,7536,-9325,196,550,-212,1,0,43,31,920,1,53298,1
2,31466,34310,31984,65262,28535,-4543,-863,25,6964,5887,-11633,230,564,-230,1,0,43,31,960,1,53298,1
1,31463,33935,32046,65263,0,-4348,-214,-244,2840,4178,-12476,268,566,-246,1,0,43,32,0,0,53298,1
2,31578,34906,32032,65264,27577,-4189,-147,-416,-1605,2691,-11399,306,558,-252,1,0,43,32,40,0,53298,1
2,31484,33949,31906,65265,27600,-4423,403,-1287,-6658,2779,-9857,328,556,-260,1,0,43,32,80,0,53298,1
2,31500,33898,31908,65266,27623,-4614,-163,-1620,-6866,3391,-7335,359,553,-285,1,0,43,32,120,0,53298,1
2,31537,34333,31959,65267,27646,-4555,-683,-1183,-3831,2509,-4487,372,546,-298,1,0,43,32,160,0,53298,1
2,31560,34613,32023,65268,27670,-4383,-353,-987,-99,1253,-2034,376,538,-300,1,0,43,32,200,0,53298,1
2,31597,36002,32140,65269,27692,-4451,-831,-567,-1143,263,-230,370,544,-304,1,0,43,32,240,0,53298,1
2,31796,31176,32606,65270,27715,-3826,-675,-298,-9497,-877,611,366,556,-322,1,0,43,32,280,0,53298,1
2,32307,31410,33082,65271,27738,-4285,-2159,-1538,-18675,-1429,24,351,559,-311,1,0,43,32,320,0,53298,1
2,30473,31339,32826,65272,27759,-4043,88,-621,-1314,-3534,832,342,564,-302,1,0,43,32,360,0,53298,1
2,30783,31214,32749,65273,27781,-5060,-2585,-2425,-9395,-2457,1585,333,573,-305,1,0,43,32,400,0,53298,1
2,31363,30888,32295,65274,27803,-4623,-1099,-2318,-7096,-3124,295,316,574,-282,1,0,43,32,440,0,53298,1
2,30692,31399,32756,65275,27826,-3999,-1556,-2459,-7067,-1548,-586,324,578,-278,1,0,43,32,480,0,53298,1
2,32598,31408,32719,65276,27849,-3937,-1653,-2049,-1749,-712,-222,325,569,-281,1,0,43,32,520,0,53298,1
2,32723,31491,33017,65277,27872,-4158,-1375,-1214,4888,-369,618,330,572,-290,1,0,43,32,560,0,53298,1
2,32741,31475,32979,65278,27896,-4460,-1405,-1253,4808,413,350,325,581,-283,1,0,43,32,600,0,53298,1
2,32784,31477,32999,65279,27919,-4593,-745,-1390,4787,370,196,319,579,-281,1,0,43,32,640,0,53298,1
2,32814,31465,32970,65280,27943,-4648,-851,-1433,1481,554,119,320,576,-278,1,0,43,32,680,0,53298,1
2,32804,31454,32985,65281,27966,-4515,-1019,-1470,319,432,218,330,580,-278,1,0,43,32,720,0,53298,1
2,32818,31441,32925,65282,27989,-4305,-1241,-1501,530,273,316,321,581,-285,1,0,43,32,760,0,53298,1
2,32832,31444,32942,65283,28012,-4233,-1363,-1546,933,347,247,319,583,-261,1,0,43,32,800,0,53298,1
2,32828,31437,32919,65284,28035,-4307,-1269,-1507,1255,591,40,319,579,-275,1,0,43,32,840,0,53298,1
2,32838,31441,32951,65285,28058,-4382,-1150,-1473,1340,789,-100,321,583,-281,1,0,43,32,880,0,53298,1
2,32853,31426,32914,65286,28081,-4353,-928,-1382,1685,695,9,319,585,-277,1,0,43,32,920,0,53298,1
2,32850,31420,32900,65287,28104,-4366,-1089,-1435,1134,630,107,318,578,-272,1,0,43,32,960,0,53298,1
1,32822,31406,32869,65288,0,-4334,-1188,-1463,703,579,171,317,581,-275,1,0,43,33,0,1,53298,1
2,32638,31338,32824,65289,27133,-4345,-1254,-1513,671,503,193,318,582,-276,1,0,43,33,40,1,53298,1
2,32560,31356,32614,65290,27156,-4340,-1236,-1553,659,448,156,307,581,-279,1,0,43,33,80,1,53298,1
2,32540,31335,32638,65291,27180,-4344,-1200,-1550,627,379,157,315,581,-279,1,0,43,33,120,1,53298,1
2,32567,31330,32652,65292,27204,-4319,-1217,-1537,648,320,147,315,577,-281,1,0,43,33,160,1,53298,1
2,32807,31317,32800,65293,27227,-4303,-1218,-1518,670,321,131,315,587,-267,1,0,43,33,200,1,53298,1
2,32834,31381,32772,65294,27250,-4308,-1215,-1515,577,344,110,310,582,-266,1,0,43,33,240,1,53298,1
2,32809,31391,32810,65295,27273,-4330,-1222,-1530,455,352,117,322,580,-272,1,0,43,33,280,1,53298,1
2,32834,31217,32802,65296,27296,-4326,-1209,-1546,423,319,112,310,582,-280,1,0,43,33,320,1,53298,1
2,32839,31387,32804,65297,27319,-4316,-1232,-1549,383,300,112,309,583,-275,1,0,43,33,360,1,53298,1
2,32853,31385,32790,65298,27342,-4306,-1210,-1571,402,255,129,318,584,-270,1,0,43,33,400,1,53298,1
2,32854,31376,32784,65299,27365,-4317,-1235,-1570,328,226,122,311,577,-275,1,0,43,33,440,1,53298,1
2,32596,31326,32621,65300,27388,-4293,-1228,-1566,325,185,117,311,583,-273,1,0,43,33,480,1,53298,1
2,32512,31143,32565,65301,27411,-4304,-1211,-1568,307,156,103,303,581,-269,1,0,43,33,520,1,53298,1
2,32235,30758,32357,65302,27435,-4293,-1233,-1563,251,129,86,313,579,-279,1,0,43,33,560,1,53298,1
2,32721,31027,32696,65303,27457,-4306,-1216,-1562,188,120,76,313,589,-281,1,0,43,33,600,1,53298,1
2,32810,31226,32718,65304,27480,-4304,-1217,-1571,95,111,58,313,581,-277,1,0,43,33,640,1,53298,1
2,32827,31360,32735,65305,27503,-4300,-1234,-1560,64,50,57,299,587,-275,1,0,43,33,680,1,53298,1
2,32807,31300,32738,65306,27527,-4291,-1231,-1593,3,15,63,311,577,-275,1,0,43,33,720,1,53298,1
2,32791,31357,32723,65307,27550,-4297,-1245,-1577,29,7,49,306,580,-278,1,0,43,33,760,1,53298,1
2,32780,31355,32721,65308,27572,-4304,-1231,-1580,79,-1,44,304,588,-280,1,0,43,33,800,1,53298,1
2,32767,31355,32700,65309,27595,-4307,-1217,-1567,57,-22,34,300,574,-262,1,0,43,33,840,1,53298,1
2,32730,31344,32691,65310,27618,-4320,-1237,-1559,-21,-27,33,313,583,-277,1,0,43,33,880,1,53298,1
2,32756,31350,32717,65311,27641,-4300,-1232,-1563,-41,-33,29,310,578,-278,1,0,43,33,920,1,53298,1
2,32788,31351,32716,65312,27665,-4295,-1231,-1564,8,-28,32,311,579,-273,1,0,43,33,960,1,53298,1
1,32798,31344,32705,65313,0,-4308,-1219,-1567,35,-14,32,309,581,-275,1,0,43,34,0,1,53298,1
2,32779,31340,32690,65314,26688,-4302,-1220,-1560,11,-1,36,316,586,-282,1,0,43,34,40,1,53298,1
2,32740,31290,32670,65315,26711,-4305,-1222,-1567,6,12,29,312,580,-286,1,0,43,34,80,1,53298,1
2,32737,31332,32667,65316,26734,-4300,-1227,-1573,-11,17,27,304,582,-282,1,0,43,34,120,1,53298,1
2,32197,32798,32169,65317,26757,-4295,-1232,-1574,-13,-2,20,297,583,-269,1,0,43,34,160,1,53298,1
2,32519,30743,32383,65318,26780,-4296,-1231,-1560,-3,-15,26,308,584,-272,1,0,43,34,200,1,53298,1
2,32610,31044,32579,65319,26804,-4301,-1220,-1580,8,-14,32,308,582,-270,1,0,43,34,240,1,53298,1
2,32277,30895,32399,65320,26826,-4313,-1221,-1576,-7,-13,31,306,578,-272,1,0,43,34,280,1,53298,1
2,32426,31240,32546,65321,26849,-4302,-1230,-1562,-28,-18,29,311,575,-277,1,0,43,34,320,1,53298,1
2,32029,31277,32465,65322,26872,-4291,-1220,-1559,-24,-24,37,304,580,-276,1,0,43,34,360,1,53298,1
2,32196,31274,32493,65323,26893,-4325,-1252,-1561,2,-20,28,308,588,-284,1,0,43,34,400,1,53298,1
2,31961,31255,32418,65324,26916,-4294,-1213,-1556,10,-16,28,307,585,-267,1,0,43,34,440,1,53298,1
2,32135,31262,32445,65325,26939,-4306,-1216,-1567,-10,3,30,313,589,-277,1,0,43,34,480,1,53298,1
2,32728,31332,32672,65326,26962,-4310,-1252,-1567,-13,18,32,306,580,-286,1,0,43,34,520,1,53298,1
2,32763,31254,32651,65327,26985,-4307,-1226,-1580,9,13,26,306,586,-274,1,0,43,34,560,1,53298,1
2,32759,31327,32656,65328,27008,-4304,-1203,-1556,30,3,25,302,580,-274,1,0,43,34,600,1,53298,1
2,32740,31324,32639,65329,27031,-4292,-1222,-1579,-19,-16,29,304,584,-264,1,0,43,34,640,1,53298,1
2,32715,31322,32631,65330,27054,-4295,-1222,-1561,-35,-18,30,306,584,-284,1,0,43,34,680,1,53298,1
2,32721,30906,32609,65331,27077,-4298,-1226,-1567,7,-2,29,300,580,-272,1,0,43,34,720,1,53298,1
2,32717,31297,32632,65332,27100,-4305,-1207,-1573,14,5,33,310,582,-284,1,0,43,34,760,1,53298,1
2,32753,31270,32640,65333,27123,-4304,-1222,-1568,-22,-7,41,302,588,-268,1,0,43,34,800,1,53298,1
2,32692,30951,32614,65334,27146,-4333,-1190,-1570,-97,1,36,309,573,-271,1,0,43,34,840,1,53298,1
2,32708,31288,32633,65335,27170,-4357,-1143,-1568,-557,37,108,314,570,-274,1,0,43,34,880,1,53298,1
2,32668,31276,32618,65336,27193,-4529,-602,-1389,500,-408,633,306,578,-276,1,0,43,34,920,1,53298,1
2,32561,30677,32584,65337,27217,-4480,-832,-1609,67,-1040,1116,300,574,-274,1,0,43,34,960,1,53298,1
1,32486,31152,32613,65338,0,-4702,-1142,-2001,-3551,-1038,996,305,581,-269,1,0,43,35,0,1,53298,1
2,30821,30980,32424,65339,26243,-4596,-2417,-1936,-11916,-185,-514,303,575,-285,1,0,43,35,40,1,53298,1
2,31789,30461,32272,65340,26268,-4932,-2585,-2059,-3686,385,-2834,309,577,-285,1,0,43,35,80,1,53298,1
2,31793,30457,32254,65341,26293,-4417,-340,-1072,16577,-3154,-749,320,564,-276,1,0,43,35,120,1,53298,1
2,31386,32209,32146,65342,26319,-4365,353,-477,19469,-5697,2711,323,567,-237,1,0,43,35,160,1,53298,1
2,30899,33284,32296,65343,26344,-4031,-482,-1665,7880,-4613,3283,315,545,-231,1,0,43,35,200,1,53298,1
2,31022,32233,32077,65344,26370,-3882,70,-857,6595,-2396,4639,300,554,-226,1,0,43,35,240,1,53298,1
2,31199,30679,32125,65345,26395,-4700,372,227,10886,-3019,8011,262,556,-226,1,0,43,35,280,1,53298,1
2,31454,31224,32122,65346,26421,-4576,-744,-191,3942,-4350,8912,242,552,-192,1,0,43,35,320,1,53298,1
2,31489,31000,32150,65347,26445,-4051,-248,-508,-1886,-4570,8477,214,536,-188,1,0,43,35,360,1,53298,1
2,31506,30913,32156,65348,26470,-4467,-141,-262,-2612,-4602,9310,178,514,-168,1,0,43,35,400,1,53298,1
2,31444,30852,32156,65349,26494,-4667,-940,-719,-5363,-5031,9001,179,507,-155,1,0,43,35,440,1,53298,1
2,31464,30727,32143,65350,26517,-4662,-858,-739,-4612,-5432,7686,169,491,-155,1,0,43,35,480,1,53298,1
2,31471,30801,32171,65351,26540,-4867,-374,-408,-4969,-5217,6043,162,486,-136,1,0,43,35,520,1,53298,1
2,31470,30670,32166,65352,26563,-4619,-702,-958,-9008,-4423,3739,171,477,-135,1,0,43,35,560,1,53298,1
2,31414,30838,32102,65353,26585,-4231,-685,-1141,-7216,-3361,2199,166,476,-138,1,0,43,35,600,1,53298,1
2,31404,30802,32066,65354,26607,-3901,-444,-895,-1617,-2109,1493,170,472,-126,1,0,43,35,640,1,53298,1
2,31477,30544,32119,65355,26629,-4120,-1060,-1552,2759,-532,653,155,467,-119,1,0,43,35,680,1,53298,1
2,31336,32527,32133,65356,26650,-9391,1111,-181,6502,351,1029,152,474,-114,1,0,43,35,720,1,53298,1
2,31349,32995,32059,65357,26672,-3706,631,689,3050,17,-1194,149,465,-131,1,0,43,35,760,1,53298,1
2,31444,34941,32213,65358,26693,-3670,-108,44,1885,-121,-269,152,470,-130,1,0,43,35,800,1,53298,1
2,31323,30239,32109,65359,26714,-4511,-71,-142,-481,735,149,155,469,-121,1,0,43,35,840,1,53298,1
2,31385,30231,32123,65360,26735,-5013,292,-310,-268,977,463,146,468,-124,1,0,43,35,880,1,53298,1
2,31402,30215,32110,65361,26757,-4553,170,-186,1168,742,342,144,476,-126,1,0,43,35,920,1,53298,1
2,31451,30279,32159,65362,26779,-4364,174,-174,1175,644,99,153,473,-129,1,0,43,35,960,1,53298,1
1,31445,30384,32149,65363,0,-4620,195,-252,662,449,-82,154,474,-134,1,0,43,36,0,1,53298,1
2,31409,31116,32110,65364,25797,-4585,194,-239,31,220,-316,153,463,-125,1,0,43,36,40,1,53298,1
2,31490,30560,32102,65365,25818,-4497,58,-230,-246,63,-399,155,469,-131,1,0,43,36,80,1,53298,1
2,31493,30640,32196,65366,25841,-4516,100,-238,77,-48,-166,158,468,-126,1,0,43,36,120,1,53298,1
2,31528,30521,32196,65367,25864,-4544,158,-181,365,-80,56,154,464,-130,1,0,43,36,160,1,53298,1
2,31490,30218,32155,65368,25886,-4538,145,-164,127,46,131,162,474,-128,1,0,43,36,200,1,53298,1
2,31531,30436,32200,65369,25910,-4521,128,-241,-76,128,126,150,466,-134,1,0,43,36,240,1,53298,1
2,31446,31143,32122,65370,25932,-4542,154,-230,131,98,74,153,463,-133,1,0,43,36,280,1,53298,1
2,31412,31730,32101,65371,25955,-4539,151,-207,196,82,1,160,472,-130,1,0,43,36,320,1,53298,1
2,31443,30545,32130,65372,25977,-4532,150,-217,68,79,-49,143,471,-127,1,0,43,36,360,1,53298,1
2,31453,30900,32142,65373,25999,-4529,140,-222,-12,42,-51,159,477,-125,1,0,43,36,400,1,53298,1
2,31403,32351,32115,65374,26022,-4537,116,-241,7,25,-18,151,467,-125,1,0,43,36,440,1,53298,1
2,31436,30752,32147,65375,26045,-4543,130,-232,54,-10,14,150,470,-130,1,0,43,36,480,1,53298,1
2,31430,31053,32140,65376,26068,-4534,153,-220,44,-11,23,149,469,-127,1,0,43,36,520,1,53298,1
2,31420,31370,32133,65377,26090,-4544,147,-217,23,20,19,138,474,-130,1,0,43,36,560,1,53298,1
2,31450,31475,32160,65378,26112,-4521,130,-234,36,46,13,159,475,-131,1,0,43,36,600,1,53298,1
2,31449,31741,32152,65379,26134,-4533,143,-233,51,48,19,159,467,-139,1,0,43,36,640,1,53298,1
2,31447,31561,32152,65380,26157,-4540,129,-236,38,28,9,152,472,-134,1,0,43,36,680,1,53298,1
2,31442,31443,32150,65381,26179,-4532,131,-239,8,7,18,149,473,-131,1,0,43,36,720,1,53298,1
2,31471,31323,32158,65382,26202,-4539,142,-241,16,-18,23,154,470,-130,1,0,43,36,760,1,53298,1
2,31510,30782,32180,65383,26226,-4532,145,-229,27,-19,10,150,472,-132,1,0,43,36,800,1,53298,1
2,31527,30656,32195,65384,26249,-4534,152,-236,25,4,14,148,470,-134,1,0,43,36,840,1,53298,1
2,31550,30359,32208,65385,26273,-4528,147,-233,12,20,17,159,459,-127,1,0,43,36,880,1,53298,1
2,31581,30223,32235,65386,26296,-4524,132,-239,19,26,22,155,469,-135,1,0,43,36,920,1,53298,1
2,31603,30318,32256,65387,26319,-4532,131,-228,34,13,23,159,467,-147,1,0,43,36,960,1,53298,1
1,31618,30358,32259,65388,0,-4535,130,-236,8,-5,25,147,469,-119,1,0,43,37,0,1,53298,1
2,31622,30356,32260,65389,25351,-4532,132,-237,7,-4,26,152,468,-130,1,0,43,37,40,1,53298,1
2,31622,30342,32262,65390,25374,-4538,141,-212,27,-10,26,148,460,-130,1,0,43,37,80,1,53298,1
2,31629,30451,32270,65391,25398,-4523,141,-219,10,-7,29,153,465,-127,1,0,43,37,120,1,53298,1
2,31628,30458,32270,65392,25421,-4530,133,-225,3,-4,21,156,476,-136,1,0,43,37,160,1,53298,1
2,31630,30428,32270,65393,25444,-4527,140,-215,19,-8,11,158,466,-136,1,0,43,37,200,1,53298,1
2,31626,30352,32263,65394,25468,-4540,136,-231,14,-3,7,150,472,-130,1,0,43,37,240,1,53298,1
2,31626,30278,32257,65395,25491,-4520,141,-231,1,2,12,154,464,-130,1,0,43,37,280,1,53298,1
2,31621,30265,32261,65396,25514,-4527,140,-211,3,-5,25,156,480,-132,1,0,43,37,320,1,53298,1
2,31632,30296,32262,65397,25537,-4531,140,-231,18,-8,39,154,470,-132,1,0,43,37,360,1,53298,1
2,31629,30272,32256,65398,25559,-4540,131,-229,10,2,30,150,470,-130,1,0,43,37,400,1,53298,1
2,31629,30265,32260,65399,25582,-4533,143,-235,0,1,31,153,471,-133,1,0,43,37,440,1,53298,1
2,31637,30243,32267,65400,25605,-4537,125,-228,12,-1,21,154,466,-128,1,0,43,37,480,1,53298,1
2,31631,30238,32260,65401,25627,-4535,127,-228,11,-6,23,156,472,-128,1,0,43,37,520,1,53298,1
2,31627,30231,32260,65402,25650,-4532,135,-231,16,4,24,157,467,-131,1,0,43,37,560,1,53298,1
2,31640,30246,32265,65403,25673,-4523,141,-238,9,2,24,146,466,-130,1,0,43,37,600,1,53298,1
2,31631,30245,32254,65404,25696,-4536,136,-225,6,4,30,153,471,-135,1,0,43,37,640,1,53298,1
2,31675,30278,32287,65405,25720,-4538,137,-231,19,2,26,157,473,-133,1,0,43,37,680,1,53298,1
2,31670,30296,32292,65406,25744,-4529,135,-214,-13,-14,24,141,471,-135,1,0,43,37,720,1,53298,1
2,31682,30295,32304,65407,25766,-4552,137,-241,-11,-24,30,154,460,-128,1,0,43,37,760,1,53298,1
2,31680,30304,32299,65408,25790,-4533,144,-231,23,-60,25,153,473,-129,1,0,43,37,800,1,53298,1
2,31688,30317,32309,65409,25814,-4538,126,-221,-16,-91,42,152,472,-124,1,0,43,37,840,1,53298,1
2,31690,30341,32314,65410,25838,-4547,138,-248,-123,-146,66,154,474,-128,1,0,43,37,880,1,53298,1
2,31694,30353,32311,65411,25862,-4501,120,-213,-122,-230,83,152,478,-130,1,0,43,37,920,1,53298,1
2,31694,30335,32315,65412,25884,-4517,161,-209,-52,-232,106,150,464,-112,1,0,43,37,960,1,53298,1
1,31696,30335,32320,65413,0,-4545,155,-202,-56,-176,69,148,476,-128,1,0,43,38,0,1,53298,1
2,31693,30339,32319,65414,24907,-4514,140,-189,-86,-110,12,156,464,-128,1,0,43,38,40,1,53298,1
2,31691,30324,32318,65415,24929,-4536,139,-213,-5,-26,-5,152,476,-124,1,0,43,38,80,1,53298,1
2,31714,30351,32325,65416,24952,-4531,131,-189,119,21,4,148,470,-134,1,0,43,38,120,1,53298,1
2,31713,30344,32330,65417,24975,-4519,148,-184,66,84,22,162,470,-126,1,0,43,38,160,1,53298,1
2,31719,30345,32332,65418,24998,-4539,143,-238,-38,72,34,157,465,-127,1,0,43,38,200,1,53298,1
2,31722,30336,32336,65419,25020,-4533,138,-213,17,-2,30,160,468,-132,1,0,43,38,240,1,53298,1
2,31726,30340,32340,65420,25044,-4542,151,-201,42,-50,15,150,480,-126,1,0,43,38,280,1,53298,1
2,31717,30342,32334,65421,25068,-4542,129,-217,-5,-63,18,148,468,-118,1,0,43,38,320,1,53298,1
2,31719,30331,32333,65422,25091,-4562,168,-231,22,-35,63,157,467,-133,1,0,43,38,360,1,53298,1
2,31720,30327,32323,65423,25114,-4649,199,-249,436,-67,240,152,470,-126,1,0,43,38,400,1,53298,1
2,31637,30253,32185,65424,25138,-4768,248,-173,641,-285,730,147,475,-123,1,0,43,38,440,1,53298,1
2,31635,33015,32154,65425,25163,-4559,588,-297,2343,-592,1541,152,468,-134,1,0,43,38,480,1,53298,1
2,31661,31992,32204,65426,25187,-4334,785,-718,2199,87,1957,151,469,-137,1,0,43,38,520,1,53298,1
2,31653,30394,32203,65427,25212,-3924,1721,-968,1056,905,3020,135,469,-129,1,0,43,38,560,1,53298,1
2,31503,30387,32161,65428,25237,-4138,1540,-1507,-3766,2440,5129,125,473,-135,1,0,43,38,600,1,53298,1
2,31475,31284,32161,65429,25262,-4378,824,-1892,-6208,4845,6957,113,465,-147,1,0,43,38,640,1,53298,1
2,31482,30755,32100,65430,25286,-4651,250,-1852,-3588,7173,8039,97,469,-171,1,0,43,38,680,1,53298,1
2,31438,32942,32070,65431,25310,-4808,-66,-1498,577,9279,7646,74,462,-184,1,0,43,38,720,1,53298,1
2,31476,30362,32087,65432,25335,-4710,-190,-1150,3316,10586,5655,52,480,-210,1,0,43,38,760,1,53298,1
2,31486,30414,32065,65433,25359,-4589,-689,-938,3612,11146,2554,43,493,-219,1,0,43,38,800,1,53298,1
2,31518,30460,32105,65434,25382,-4633,-1380,-917,3950,10959,-1401,45,503,-249,1,0,43,38,840,1,53298,1
2,31530,30494,32135,65435,25405,-4619,-1046,-776,5071,10269,-5629,50,512,-268,1,0,43,38,880,1,53298,1
2,31548,30729,32146,65436,25429,-4474,-733,-812,6918,8522,-9081,68,538,-298,1,0,43,38,920,1,53298,1
2,31570,31603,32202,65437,25452,-4564,159,-760,7285,6202,-11463,91,563,-331,1,0,43,38,960,1,53298,1
1,31412,32577,32490,65438,0,-4008,4063,1143,4647,4079,-12351,145,573,-357,1,0,43,39,0,1,53298,1
2,32049,30540,32973,65439,24463,-7769,100,-991,357,6207,-27547,172,586,-352,1,0,43,39,40,1,53298,1
2,31209,30576,32283,65440,24489,-3567,-828,-228,-5186,-5529,-11,168,594,-340,1,0,43,39,80,1,53298,1
2,31420,30086,32307,65441,24513,-4223,-704,-1172,2188,-9805,4195,163,605,-305,1,0,43,39,120,1,53298,1
2,31673,30814,33239,65442,24538,-3988,1276,-5118,15321,-4121,1787,157,609,-301,1,0,43,39,160,1,53298,1
2,31379,30765,33326,65443,24562,-3565,-73,-3419,9356,4127,4247,157,609,-303,1,0,43,39,200,1,53298,1
2,31089,30728,33465,65444,24586,-4794,-636,-2220,534,-954,538,149,615,-313,1,0,43,39,240,1,53298,1
2,30831,30756,33456,65445,24611,-4205,-501,-1461,548,887,-324,152,610,-310,1,0,43,39,280,1,53298,1
2,31193,30790,33584,65446,24635,-3852,-428,-1655,1517,484,450,146,612,-300,1,0,43,39,320,1,53298,1
2,31471,30780,33685,65447,24658,-4116,-542,-1872,-103,523,1264,143,609,-315,1,0,43,39,360,1,53298,1
2,31517,30785,33819,65448,24683,-4286,-512,-2129,-1672,106,1169,126,616,-300,1,0,43,39,400,1,53298,1
2,31627,30794,33928,65449,24708,-4162,-370,-2226,-1503,-56,764,133,619,-309,1,0,43,39,440,1,53298,1
2,31561,30218,33688,65450,24733,-4116,-376,-2009,-461,-117,348,134,616,-306,1,0,43,39,480,1,53298,1
2,31708,34434,33934,65451,24758,-4108,-456,-1909,414,77,222,129,611,-297,1,0,43,39,520,1,53298,1
2,31676,34524,33937,65452,24783,-4102,-430,-1962,348,317,94,133,611,-311,1,0,43,39,560,1,53298,1
2,31636,33752,33927,65453,24808,-4148,-398,-1967,17,168,17,135,617,-307,1,0,43,39,600,1,53298,1
2,31363,31138,33707,65454,24833,-4138,-425,-1970,-140,-68,40,137,615,-307,1,0,43,39,640,1,53298,1
2,31355,30367,33734,65455,24858,-4103,-440,-1973,-269,-167,92,141,617,-307,1,0,43,39,680,1,53298,1
2,31422,30246,33828,65456,24883,-4108,-416,-1966,-274,-121,146,129,625,-311,1,0,43,39,720,1,53298,1
2,31504,30476,33893,65457,24907,-4124,-383,-1958,-182,-46,126,132,622,-302,1,0,43,39,760,1,53298,1
2,31536,30097,33913,65458,24932,-4146,-368,-1942,-87,-8,113,131,623,-313,1,0,43,39,800,1,53298,1
2,31535,30146,33947,65459,24957,-4140,-363,-1927,-39,-3,84,131,619,-305,1,0,43,39,840,1,53298,1
2,31798,30162,34186,65460,24982,-4119,-375,-1904,-56,16,65,135,619,-303,1,0,43,39,880,1,53298,1
2,31858,30196,34283,65461,25007,-4125,-383,-1951,-72,92,50,125,619,-315,1,0,43,39,920,1,53298,1
2,31914,30229,34211,65462,25032,-4113,-381,-1956,-31,160,30,139,625,-315,1,0,43,39,960,1,53298,1
1,31951,30850,34374,65463,0,-4137,-389,-1958,17,198,49,132,614,-294,1,0,43,40,0,1,53298,1
2,31960,30710,34320,65464,24019,-4133,-383,-1949,-27,192,81,131,621,-315,1,0,43,40,40,1,53298,1
2,31913,30154,34384,65465,24044,-4108,-399,-1979,-125,226,69,129,619,-311,1,0,43,40,80,1,53298,1
2,31814,30481,34287,65466,24070,-4104,-404,-2006,-71,268,31,131,621,-307,1,0,43,40,120,1,53298,1
2,31790,30654,34415,65467,24095,-4103,-413,-1991,93,268,19,133,613,-309,1,0,43,40,160,1,53298,1
2,31567,33162,34322,65468,24120,-4107,-388,-1991,111,184,39,134,620,-316,1,0,43,40,200,1,53298,1
2,31538,31124,34281,65469,24145,-4110,-375,-1974,-83,53,50,136,616,-312,1,0,43,40,240,1,53298,1
2,31640,30210,34389,65470,24171,-4119,-381,-1983,-221,-66,32,136,620,-314,1,0,43,40,280,1,53298,1
2,31608,30588,34315,65471,24195,-4110,-386,-1974,-183,-113,34,136,626,-308,1,0,43,40,320,1,53298,1
2,31565,30602,34306,65472,24219,-4111,-370,-1962,-91,-77,46,131,617,-305,1,0,43,40,360,1,53298,1
2,31698,30445,34411,65473,24243,-4117,-389,-1965,-2,3,53,125,623,-307,1,0,43,40,400,1,53298,1
2,31712,30465,34421,65474,24268,-4122,-386,-1979,50,68,66,137,625,-315,1,0,43,40,440,1,53298,1
2,31708,30749,34438,65475,24293,-4120,-379,-1982,98,95,48,132,620,-314,1,0,43,40,480,1,53298,1
2,31564,30400,34361,65476,24317,-4112,-377,-1983,115,58,37,133,611,-313,1,0,43,40,520,1,53298,1
2,31606,30701,34350,65477,24343,-4100,-381,-1991,42,10,19,129,615,-309,1,0,43,40,560,1,53298,1
2,31682,30574,34427,65478,24367,-4102,-380,-1979,-17,-29,24,129,621,-311,1,0,43,40,600,1,53298,1
2,31682,30771,34432,65479,24391,-4111,-388,-1990,-30,-41,38,131,625,-305,1,0,43,40,640,1,53298,1
2,31651,30739,34420,65480,24416,-4115,-392,-1980,-22,-16,40,131,623,-307,1,0,43,40,680,1,53298,1
2,31650,30730,34421,65481,24440,-4112,-383,-1980,3,-2,42,131,619,-319,1,0,43,40,720,1,53298,1
2,31633,30786,34425,65482,24465,-4118,-378,-1982,26,19,51,134,614,-314,1,0,43,40,760,1,53298,1
2,31467,30728,34284,65483,24489,-4116,-389,-1990,24,5,32,135,619,-301,1,0,43,40,800,1,53298,1
2,31572,30789,34359,65484,24515,-4115,-372,-1980,7,-3,32,132,624,-304,1,0,43,40,840,1,53298,1
2,31686,30644,34434,65485,24540,-4108,-375,-1984,0,1,35,137,621,-315,1,0,43,40,880,1,53298,1
2,31636,30355,34429,65486,24566,-4116,-372,-1976,20,11,35,131,607,-307,1,0,43,40,920,1,53298,1
2,31568,30417,34335,65487,24591,-4107,-378,-1974,34,14,38,133,623,-313,1,0,43,40,960,1,53298,1
1,31613,30708,34403,65488,0,-4117,-392,-1976,-3,8,29,136,622,-316,1,0,43,41,0,1,53298,1
2,31626,30663,34421,65489,23575,-4108,-380,-1993,-7,-8,33,134,616,-318,1,0,43,41,40,1,53298,1
2,31319,30488,34180,65490,23599,-4121,-388,-1979,11,-18,29,134,626,-310,1,0,43,41,80,1,53298,1
2,31296,30325,34172,65491,23624,-4103,-377,-1972,-13,-13,25,128,618,-306,1,0,43,41,120,1,53298,1
2,31316,30678,34189,65492,23650,-4104,-368,-1989,-37,-2,29,130,612,-308,1,0,43,41,160,1,53298,1
2,31304,30732,34199,65493,23675,-4108,-383,-1974,33,5,33,134,616,-314,1,0,43,41,200,1,53298,1
2,31318,30745,34233,65494,23700,-4110,-381,-1981,46,11,35,132,616,-320,1,0,43,41,240,1,53298,1
2,31372,30755,34261,65495,23727,-4109,-387,-1986,2,10,33,138,612,-314,1,0,43,41,280,1,53298,1
2,31474,30787,34279,65496,23752,-4122,-387,-1980,-10,1,33,138,618,-310,1,0,43,41,320,1,53298,1
2,31500,30793,34402,65497,23778,-4117,-380,-1983,2,3,29,131,619,-311,1,0,43,41,360,1,53298,1
2,31597,30805,34410,65498,23804,-4102,-371,-1977,7,-2,22,132,622,-310,1,0,43,41,400,1,53298,1
2,31560,30796,34394,65499,23829,-4088,-379,-1987,1,13,21,135,625,-319,1,0,43,41,440,1,53298,1
2,31573,30798,34397,65500,23855,-4114,-383,-1971,4,-8,26,132,620,-310,1,0,43,41,480,1,53298,1
2,31577,30765,34388,65501,23881,-4110,-382,-1971,4,-9,29,135,621,-321,1,0,43,41,520,1,53298,1
2,31497,30637,34256,65502,23907,-4115,-380,-1975,5,-15,22,129,619,-323,1,0,43,41,560,1,53298,1
2,31395,30500,34202,65503,23933,-4132,-384,-2000,130,-5,43,127,621,-297,1,0,43,41,600,1,53298,1
2,31361,30672,34170,65504,23958,-4159,-352,-2021,448,-89,53,132,618,-318,1,0,43,41,640,1,53298,1
2,31356,30637,33852,65505,23983,-4182,-210,-2195,1094,-311,-94,144,620,-312,1,0,43,41,680,1,53298,1
2,31252,30594,33173,65506,24008,-4555,-54,-2274,-294,-1055,-1147,132,612,-302,1,0,43,41,720,1,53298,1
2,31098,32829,32515,65507,24033,-3885,324,-1827,-4556,-2682,-541,139,615,-301,1,0,43,41,760,1,53298,1
2,31452,32311,32127,65508,24056,-4564,681,-1749,-13283,-1389,3662,119,599,-285,1,0,43,41,800,1,53298,1
2,31880,34451,32530,65509,24080,-4322,957,-1277,-2980,-2465,6094,98,594,-272,1,0,43,41,840,1,53298,1
2,31590,32388,32189,65510,24103,-4724,542,-838,-1873,-3253,7705,86,574,-274,1,0,43,41,880,1,53298,1
2,31634,34389,32310,65511,24126,-4872,-332,-803,-6076,-4257,6984,79,557,-241,1,0,43,41,920,1,53298,1
2,31755,33934,32300,65512,24149,-4906,-1115,-689,-9209,-5169,4355,76,528,-230,1,0,43,41,960,1,53298,1
1,31758,33943,32322,65513,0,-4608,-1181,-863,-7430,-6813,1450,79,517,-215,1,0,43,42,0,1,53298,1
2,31593,34011,32346,65514,23129,-4272,-1033,-972,-3841,-7792,-1322,98,510,-200,1,0,43,42,40,1,53298,1
2,31708,34124,32361,65515,23152,-4143,-570,-1039,165,-8271,-3415,99,509,-187,1,0,43,42,80,1,53298,1
2,31472,34034,32139,65516,23175,-3970,-122,-1030,1532,-8091,-5159,124,506,-166,1,0,43,42,120,1,53298,1
2,31382,33694,32173,65517,23198,-3928,-145,-941,932,-7590,-6631,140,500,-156,1,0,43,42,160,1,53298,1
2,31111,33475,32190,65518,23220,-3927,-528,-746,498,-7010,-7712,159,495,-141,1,0,43,42,200,1,53298,1
2,31260,34017,32128,65519,23242,-3766,2262,-3872,-5216,-2461,-5414,163,497,-135,1,0,43,42,240,1,53298,1
2,31069,33295,31884,65520,23264,-6616,-150,-1000,2364,389,-39,160,500,-134,1,0,43,42,280,1,53298,1
2,31377,33372,31961,65521,23287,-4519,-452,411,3298,471,-368,152,502,-138,1,0,43,42,320,1,53298,1
2,31504,33209,32194,65522,23310,-4006,-409,264,3111,185,103,154,504,-136,1,0,43,42,360,1,53298,1
2,31356,32422,32221,65523,23332,-4106,71,-297,909,-135,461,158,516,-136,1,0,43,42,400,1,53298,1
2,31330,32256,32239,65524,23354,-5466,250,-671,-997,584,641,151,507,-135,1,0,43,42,440,1,53298,1
2,31548,33716,32236,65525,23376,-4592,-61,-334,-433,490,249,143,503,-127,1,0,43,42,480,1,53298,1
2,31541,33594,32235,65526,23399,-4190,-186,-495,660,255,238,146,504,-130,1,0,43,42,520,1,53298,1
2,31587,34311,32270,65527,23421,-4548,-56,-606,965,397,103,151,495,-133,1,0,43,42,560,1,53298,1
2,31588,34381,32265,65528,23444,-4751,90,-418,645,318,-155,142,498,-132,1,0,43,42,600,1,53298,1
2,31618,34510,32284,65529,23466,-4499,-71,-463,13,112,-239,150,498,-134,1,0,43,42,640,1,53298,1
2,31598,34320,32266,65530,23488,-4456,-178,-578,-162,19,-106,162,502,-138,1,0,43,42,680,1,53298,1
2,31563,34290,32219,65531,23511,-4603,-45,-513,221,-61,61,152,504,-132,1,0,43,42,720,1,53298,1
2,31397,34283,32066,65532,23533,-4589,-9,-454,293,-156,142,156,502,-140,1,0,43,42,760,1,53298,1
2,31613,34424,32288,65533,23555,-4509,-59,-475,73,-167,106,153,509,-139,1,0,43,42,800,1,53298,1
2,31248,33685,31921,65534,23578,-4559,-46,-480,14,-73,66,152,500,-148,1,0,43,42,840,1,53298,1
2,31395,33702,32133,65535,23600,-4569,-41,-458,79,4,33,153,503,-139,1,0,43,42,880,1,53298,1
2,31514,34022,32125,65536,23623,-4532,-60,-493,67,47,12,153,505,-135,1,0,43,42,920,1,53298,1
2,31615,34395,32274,65537,23645,-4535,-50,-491,56,52,28,154,500,-134,1,0,43,42,960,1,53298,1
1,31625,34454,32292,65538,0,-4553,-42,-482,54,23,34,155,505,-135,1,0,43,43,0,0,53298,1
2,31361,34219,32056,65539,22683,-4556,-60,-488,46,-17,30,143,503,-143,1,0,43,43,40,0,53298,1
2,31291,34169,31948,65540,22705,-4551,-65,-472,63,-34,19,152,504,-138,1,0,43,43,80,0,53298,1
2,31228,34060,31901,65541,22727,-4563,-62,-482,78,-2,-1,146,508,-148,1,0,43,43,120,0,53298,1
2,31232,34123,31911,65542,22748,-4536,-57,-494,37,9,1,147,505,-127,1,0,43,43,160,0,53298,1
2,31268,34224,31961,65543,22770,-4547,-48,-488,15,20,16,157,509,-137,1,0,43,43,200,0,53298,1
2,31330,34325,31984,65544,22792,-4554,-62,-499,23,12,34,151,511,-143,1,0,43,43,240,0,53298,1
2,31443,34466,32163,65545,22815,-4559,-58,-479,43,0,43,151,505,-135,1,0,43,43,280,0,53298,1
2,31702,34699,32378,65546,22836,-4542,-43,-480,24,-18,26,158,500,-140,1,0,43,43,320,0,53298,1
2,31676,34633,32364,65547,22859,-4559,-57,-479,2,-3,3,155,505,-133,1,0,43,43,360,0,53298,1
2,31682,34635,32364,65548,22881,-4550,-47,-494,19,11,9,149,511,-127,1,0,43,43,400,0,53298,1
2,31523,34490,32200,65549,22904,-4562,-64,-485,28,12,20,150,498,-136,1,0,43,43,440,0,53298,1
2,31551,34527,32206,65550,22926,-4552,-62,-490,22,10,40,149,507,-125,1,0,43,43,480,0,53298,1
2,31658,34598,32339,65551,22949,-4560,-48,-492,20,6,28,150,498,-136,1,0,43,43,520,0,53298,1
2,31675,34565,32369,65552,22973,-4555,-63,-487,-2,3,21,154,504,-140,1,0,43,43,560,0,53298,1
2,31680,34596,32363,65553,22997,-4549,-56,-496,-11,-20,21,149,501,-139,1,0,43,43,600,0,53298,1
2,31665,34486,32345,65554,23020,-4555,-55,-484,-17,-29,18,153,509,-147,1,0,43,43,640,0,53298,1
2,31672,34540,32348,65555,23043,-4553,-67,-492,-24,-40,15,152,500,-142,1,0,43,43,680,0,53298,1
2,31680,34555,32365,65556,23066,-4546,-52,-474,3,-25,19,156,508,-134,1,0,43,43,720,0,53298,1
2,31696,34564,32370,65557,23090,-4547,-54,-481,15,1,20,154,506,-142,1,0,43,43,760,0,53298,1
2,31717,34677,32395,65558,23113,-4542,-59,-474,9,16,21,157,497,-139,1,0,43,43,800,0,53298,1
2,31720,34642,32393,65559,23136,-4559,-58,-494,15,28,41,152,494,-138,1,0,43,43,840,0,53298,1
2,31723,34732,32419,65560,23158,-4572,-57,-489,38,12,40,162,506,-136,1,0,43,43,880,0,53298,1
2,31733,34735,32422,65561,23180,-4556,-48,-480,78,4,47,154,504,-138,1,0,43,43,920,0,53298,1
2,31719,34706,32417,65562,23203,-4536,-49,-479,71,10,52,151,505,-145,1,0,43,43,960,0,53298,1
1,31730,34741,32413,65563,0,-4558,-52,-490,-21,28,38,154,502,-146,1,0,43,44,0,1,53298,1
2,31722,34783,32435,65564,22239,-4567,-35,-463,-35,27,66,153,499,-139,1,0,43,44,40,1,53298,1
2,31748,34812,32444,65565,22262,-4545,-71,-489,-293,67,91,150,500,-136,1,0,43,44,80,1,53298,1
2,31771,34873,32464,65566,22284,-4588,-4,-512,-424,82,64,148,506,-128,1,0,43,44,120,1,53298,1
2,31746,34841,32445,65567,22305,-4609,-51,-503,-352,-110,82,150,496,-136,1,0,43,44,160,1,53298,1
2,31673,34695,32350,65568,22327,-5085,196,-905,-465,-391,513,146,506,-140,1,0,43,44,200,1,53298,1
2,31497,33225,32206,65569,22350,-4658,633,-1032,2119,-913,1739,144,498,-138,1,0,43,44,240,1,53298,1
2,31494,34560,32254,65570,22373,-3996,1553,-1538,2376,988,2837,134,504,-150,1,0,43,44,280,1,53298,1
2,31523,30309,32144,65571,22397,-4212,1793,-1834,118,3425,5316,120,510,-158,1,0,43,44,320,1,53298,1
2,31459,31085,32072,65572,22420,-4361,875,-1832,-3125,6375,8002,112,512,-164,1,0,43,44,360,1,53298,1
2,31383,31349,32044,65573,22444,-4739,-141,-1672,-1963,8328,9211,92,508,-190,1,0,43,44,400,1,53298,1
2,31447,30716,32094,65574,22467,-4688,-786,-1234,-296,9262,8015,71,503,-215,1,0,43,44,440,1,53298,1
2,31385,33052,32040,65575,22492,-4274,-1156,-1262,-336,9640,4778,63,507,-237,1,0,43,44,480,1,53298,1
2,31343,33838,31953,65576,22516,-4230,-1746,-1432,117,10457,528,59,517,-265,1,0,43,44,520,1,53298,1
2,31358,32699,31947,65577,22540,-4222,-1278,-1061,4000,10297,-3590,51,535,-281,1,0,43,44,560,1,53298,1
2,31365,33264,31972,65578,22563,-4262,-826,-1012,6209,9185,-7188,78,550,-322,1,0,43,44,600,1,53298,1
2,31395,33130,32017,65579,22585,-4463,66,-878,8545,6899,-9365,107,569,-351,1,0,43,44,640,1,53298,1
2,31448,34006,32177,65580,22607,-4631,1045,-769,9039,3307,-9902,143,585,-371,1,0,43,44,680,1,53298,1
2,31475,34106,32200,65581,22629,-4432,981,-613,4338,-611,-9632,169,605,-373,1,0,43,44,720,1,53298,1
2,31356,31645,32657,65582,22651,-1929,5083,-1004,6065,-4393,-11665,205,613,-361,1,0,43,44,760,1,53298,1
2,31173,32196,32549,65583,22678,-2862,1220,-2848,18185,-12518,-5318,184,630,-326,1,0,43,44,800,1,53298,1
2,31021,32653,32404,65584,22704,-3820,-3145,-2180,-11309,-2073,9592,167,631,-327,1,0,43,44,840,1,53298,1
2,31323,32745,32650,65585,22727,-5077,-2108,-2746,-15445,4530,2493,153,633,-325,1,0,43,44,880,1,53298,1
2,30840,32675,32361,65586,22751,-4195,-302,-2389,-631,-424,-2438,150,612,-316,1,0,43,44,920,1,53298,1
2,30969,32869,32803,65587,22775,-3856,-682,-1615,3715,383,-736,166,630,-334,1,0,43,44,960,1,53298,1
1,30970,31227,33499,65588,0,-4186,-621,-1558,9890,1534,586,160,630,-330,1,0,43,45,0,0,53298,1
2,31172,30183,33468,65589,21798,-3990,-1344,-1859,4046,1938,803,167,633,-341,1,0,43,45,40,0,53298,1
2,31228,30182,33416,65590,21822,-4012,-442,-1567,1183,1368,283,163,635,-345,1,0,43,45,80,0,53298,1
2,31151,30231,33621,65591,21846,-4300,40,-1947,-1297,1805,558,164,642,-342,1,0,43,45,120,0,53298,1
2,31283,30758,34012,65592,21871,-4404,84,-2088,-1493,968,1474,154,638,-350,1,0,43,45,160,0,53298,1
2,31203,30343,34129,65593,21895,-4313,-114,-2170,-205,444,1671,152,636,-354,1,0,43,45,200,0,53298,1
2,31267,30155,34149,65594,21919,-4046,-536,-2182,-326,706,586,150,644,-346,1,0,43,45,240,0,53298,1
2,30859,31181,33953,65595,21943,-4003,-767,-2084,-434,489,-64,148,636,-352,1,0,43,45,280,0,53298,1
2,30908,32489,34020,65596,21968,-4052,-680,-2077,-965,303,-31,152,638,-354,1,0,43,45,320,0,53298,1
2,31067,30539,34224,65597,21993,-4103,-400,-2104,-1220,-32,246,145,645,-341,1,0,43,45,360,0,53298,1
2,30812,30224,34050,65598,22018,-4121,-291,-2042,-977,-188,349,152,636,-352,1,0,43,45,400,0,53298,1
2,31049,32444,34276,65599,22042,-4116,-293,-1986,-503,-145,266,147,635,-347,1,0,43,45,440,0,53298,1
2,30889,32966,34142,65600,22066,-4089,-328,-1974,-195,95,147,145,641,-349,1,0,43,45,480,0,53298,1
2,31096,33801,34425,65601,22091,-4074,-394,-2024,-312,296,-48,146,644,-344,1,0,43,45,520,0,53298,1
2,31158,30740,34340,65602,22115,-4073,-381,-2051,-297,212,-38,148,634,-356,1,0,43,45,560,0,53298,1
2,31258,30395,34515,65603,22139,-4087,-362,-2038,-365,21,-21,147,647,-353,1,0,43,45,600,0,53298,1
2,31259,30773,34515,65604,22164,-4087,-351,-2013,-529,-149,-26,145,643,-357,1,0,43,45,640,0,53298,1
2,31124,31523,34364,65605,22188,-4084,-348,-2014,-567,-229,-37,146,644,-352,1,0,43,45,680,0,53298,1
2,31180,30717,34477,65606,22213,-4100,-334,-2003,-425,-203,2,145,635,-353,1,0,43,45,720,0,53298,1
2,30987,32803,34322,65607,22238,-4097,-325,-1979,-237,-99,37,142,642,-344,1,0,43,45,760,0,53298,1
2,30978,32755,34335,65608,22262,-4109,-322,-1972,-72,17,67,154,646,-350,1,0,43,45,800,0,53298,1
2,30950,33571,34350,65609,22285,-4092,-319,-1995,-14,93,83,135,645,-349,1,0,43,45,840,0,53298,1
2,30980,33028,34364,65610,22309,-4101,-343,-2020,1,104,79,150,638,-352,1,0,43,45,880,0,53298,1
2,30988,32687,34354,65611,22333,-4094,-340,-2028,27,82,52,148,646,-346,1,0,43,45,920,0,53298,1
2,30966,32865,34362,65612,22358,-4082,-341,-2019,65,39,36,151,643,-351,1,0,43,45,960,0,53298,1
1,30944,32836,34370,65613,0,-4091,-346,-2001,42,13,28,142,648,-348,1,0,43,46,0,1,53298,1
2,30938,32898,34378,65614,21353,-4078,-336,-2012,-16,13,31,140,640,-354,1,0,43,46,40,1,53298,1
2,30912,32349,34370,65615,21377,-4077,-337,-2028,-11,16,42,148,644,-362,1,0,43,46,80,1,53298,1
2,30949,32047,34373,65616,21400,-4076,-333,-2019,-5,17,55,150,646,-356,1,0,43,46,120,1,53298,1
2,30977,31605,34376,65617,21424,-4084,-333,-2016,7,21,51,152,636,-356,1,0,43,46,160,1,53298,1
2,30985,31186,34387,65618,21447,-4089,-340,-2024,9,6,39,134,646,-342,1,0,43,46,200,1,53298,1
2,30921,31965,34367,65619,21471,-4093,-338,-2028,-5,-2,36,142,640,-344,1,0,43,46,240,1,53298,1
2,30924,31712,34370,65620,21495,-4082,-335,-2017,-3,-11,25,152,642,-350,1,0,43,46,280,1,53298,1
2,30928,31328,34374,65621,21519,-4085,-329,-2009,6,-5,27,156,640,-352,1,0,43,46,320,1,53298,1
2,30902,31348,34364,65622,21544,-4084,-341,-2019,13,3,30,143,643,-357,1,0,43,46,360,1,53298,1
2,30933,31160,34377,65623,21569,-4096,-350,-2030,24,-6,31,146,648,-350,1,0,43,46,400,1,53298,1
2,30932,31149,34370,65624,21593,-4109,-356,-2030,135,-31,22,144,634,-346,1,0,43,46,440,1,53298,1
2,30928,31139,34355,65625,21617,-4105,-351,-2020,594,-30,84,152,638,-352,1,0,43,46,480,1,53298,1
2,30929,31294,34187,65626,21641,-4158,-151,-1889,591,-206,-41,145,639,-355,1,0,43,46,520,1,53298,1
2,30790,31052,33716,65627,21666,-4237,7,-2168,528,-718,-596,155,643,-357,1,0,43,46,560,1,53298,1
2,31023,33647,32930,65628,21689,-4359,402,-2295,-313,-2101,-1873,147,635,-337,1,0,43,46,600,1,53298,1
2,31134,30531,32165,65629,21711,-4397,-115,-2230,-15515,-3022,1625,133,629,-325,1,0,43,46,640,1,53298,1
2,30908,33105,31872,65630,21733,-4038,906,-1450,-16542,-2595,3262,124,616,-314,1,0,43,46,680,1,53298,1
2,30915,33770,31730,65631,21755,-4176,907,-1239,-2145,-2882,5775,104,608,-304,1,0,43,46,720,1,53298,1
2,31163,34049,31726,65632,21777,-4512,881,-611,24,-3593,7902,83,593,-287,1,0,43,46,760,1,53298,1
2,31710,34528,32270,65633,21799,-4810,-72,-924,-3325,-4657,7824,73,577,-259,1,0,43,46,800,1,53298,1
2,31725,34939,32298,65634,21819,-4974,-974,-275,-8809,-5222,4722,75,555,-241,1,0,43,46,840,1,53298,1
2,31405,34935,32046,65635,21840,-4647,-598,-321,-6363,-7538,1922,70,536,-210,1,0,43,46,880,1,53298,1
2,31281,34543,31842,65636,21862,-4281,-513,-505,-3562,-8958,-422,71,525,-185,1,0,43,46,920,1,53298,1
2,31716,35011,32344,65637,21883,-4142,-140,-576,106,-10322,-1752,91,517,-167,1,0,43,46,960,1,53298,1
1,31768,34772,32369,65638,0,-4111,353,-691,1649,-10495,-2626,100,506,-144,1,0,43,47,0,0,53298,1
2,31735,35017,32367,65639,20909,-4070,668,-928,1102,-9992,-3267,114,494,-130,1,0,43,47,40,0,53298,1
2,31752,35018,32360,65640,20931,-3956,553,-1008,490,-8566,-3541,130,486,-130,1,0,43,47,80,0,53298,1
2,31287,34620,31982,65641,20953,-4035,-165,-389,1244,-6931,-3661,134,472,-118,1,0,43,47,120,0,53298,1
2,31741,34693,32398,65642,20975,-3445,1354,-2732,-3005,-1367,-2909,137,477,-115,1,0,43,47,160,0,53298,1
2,31448,34782,32350,65643,20996,-7322,481,-658,1699,1511,-31,137,473,-119,1,0,43,47,200,0,53298,1
2,31485,35052,32362,65644,21019,-3805,638,678,2940,938,-1858,139,483,-121,1,0,43,47,240,0,53298,1
2,31475,35025,32310,65645,21040,-4046,100,116,3112,496,-258,136,484,-124,1,0,43,47,280,0,53298,1
2,31486,35034,32329,65646,21062,-4095,205,-216,989,578,783,134,480,-122,1,0,43,47,320,0,53298,1
2,31477,35032,32319,65647,21083,-5297,458,-283,-1228,855,975,132,474,-126,1,0,43,47,360,0,53298,1
2,31282,34831,32165,65648,21104,-4433,310,-142,315,790,629,147,469,-121,1,0,43,47,400,0,53298,1
2,31290,34820,32261,65649,21124,-4266,358,-178,1278,690,198,128,486,-118,1,0,43,47,440,0,53298,1
2,31384,34913,32274,65650,21145,-4583,407,-143,1133,615,-215,127,489,-123,1,0,43,47,480,0,53298,1
2,31487,35037,32340,65651,21167,-4548,372,-206,326,598,-578,134,468,-126,1,0,43,47,520,0,53298,1
2,31490,35028,32327,65652,21188,-4458,241,-280,-328,509,-725,133,479,-133,1,0,43,47,560,0,53298,1
2,31487,35042,32323,65653,21208,-4481,185,-303,-157,238,-387,143,477,-127,1,0,43,47,600,0,53298,1
2,31474,35014,32305,65654,21229,-4511,266,-272,315,-48,104,136,482,-130,1,0,43,47,640,0,53298,1
2,31489,35034,32321,65655,21250,-4499,309,-216,387,-138,339,132,484,-122,1,0,43,47,680,0,53298,1
2,31478,35038,32321,65656,21271,-4479,341,-194,181,-88,342,128,480,-118,1,0,43,47,720,0,53298,1
2,31480,35026,32316,65657,21292,-4502,323,-208,22,35,180,130,482,-122,1,0,43,47,760,0,53298,1
2,31460,35035,32327,65658,21313,-4496,311,-238,68,103,-17,137,479,-133,1,0,43,47,800,0,53298,1
2,31501,35043,32326,65659,21334,-4492,300,-239,111,143,-127,134,484,-124,1,0,43,47,840,0,53298,1
2,31493,35028,32318,65660,21355,-4500,290,-260,93,123,-125,131,475,-129,1,0,43,47,880,0,53298,1
2,31490,35036,32325,65661,21376,-4494,281,-241,-3,63,-53,133,473,-133,1,0,43,47,920,0,53298,1
2,31489,35045,32328,65662,21398,-4503,281,-251,-34,-12,30,131,479,-133,1,0,43,47,960,0,53298,1
1,31442,35000,32241,65663,0,-4489,309,-240,60,-75,74,133,469,-131,1,0,43,48,0,1,53298,1
2,31481,35038,32318,65664,20463,-4494,319,-218,73,-40,57,129,479,-125,1,0,43,48,40,1,53298,1
2,31487,35043,32325,65665,20485,-4484,305,-233,-3,42,12,131,481,-121,1,0,43,48,80,1,53298,1
2,31466,35023,32307,65666,20506,-4511,293,-246,-6,78,-14,138,476,-128,1,0,43,48,120,1,53298,1
2,31459,35033,32312,65667,20528,-4492,283,-253,50,47,-5,142,474,-128,1,0,43,48,160,1,53298,1
2,31446,35021,32307,65668,20550,-4487,302,-237,48,6,14,132,480,-118,1,0,43,48,200,1,53298,1
2,31438,35022,32297,65669,20572,-4500,293,-243,-11,-28,26,130,478,-128,1,0,43,48,240,1,53298,1
2,31417,35007,32278,65670,20594,-4499,305,-255,-31,-52,31,138,476,-124,1,0,43,48,280,1,53298,1
2,31404,35000,32291,65671,20615,-4494,297,-227,-2,-44,21,135,479,-133,1,0,43,48,320,1,53298,1
2,31410,35000,32286,65672,20636,-4504,299,-225,23,-6,21,135,481,-125,1,0,43,48,360,1,53298,1
2,31411,35007,32285,65673,20656,-4493,291,-216,16,29,15,143,477,-123,1,0,43,48,400,1,53298,1
2,31419,35000,32283,65674,20677,-4499,298,-249,34,37,25,134,484,-126,1,0,43,48,440,1,53298,1
2,31426,35011,32289,65675,20698,-4492,305,-248,50,8,36,136,484,-128,1,0,43,48,480,1,53298,1
2,31402,34988,32266,65676,20720,-4498,304,-248,34,-4,36,134,486,-110,1,0,43,48,520,1,53298,1
2,31387,34980,32250,65677,20740,-4488,307,-235,-29,-14,14,139,471,-139,1,0,43,48,560,1,53298,1
2,31393,34978,32256,65678,20762,-4499,294,-236,-6,-21,5,143,479,-125,1,0,43,48,600,1,53298,1
2,31384,34973,32247,65679,20784,-4493,297,-223,38,-11,-9,131,477,-129,1,0,43,48,640,1,53298,1
2,31389,34975,32255,65680,20805,-4494,285,-225,45,45,-2,137,485,-139,1,0,43,48,680,1,53298,1
2,31372,34963,32247,65681,20827,-4505,285,-231,49,82,7,134,482,-124,1,0,43,48,720,1,53298,1
2,31372,34973,32247,65682,20848,-4493,300,-256,65,71,20,139,477,-131,1,0,43,48,760,1,53298,1
2,31376,34960,32229,65683,20869,-4490,304,-237,65,53,21,140,480,-128,1,0,43,48,800,1,53298,1
2,31355,34950,32237,65684,20890,-4497,287,-250,15,22,19,139,477,-129,1,0,43,48,840,1,53298,1
2,31362,34966,32248,65685,20912,-4498,290,-251,-34,-36,0,136,472,-130,1,0,43,48,880,1,53298,1
2,31369,34970,32247,65686,20934,-4490,289,-236,-27,-79,5,136,480,-130,1,0,43,48,920,1,53298,1
2,31345,34963,32236,65687,20955,-4495,296,-243,-38,-74,25,137,479,-127,1,0,43,48,960,1,53298,1
1,31345,34961,32240,65688,0,-4490,302,-231,-16,-54,9,137,483,-133,1,0,43,49,0,0,53298,1
2,31347,34951,32232,65689,20019,-4487,286,-242,-26,-26,-8,133,475,-137,1,0,43,49,40,0,53298,1
2,31315,34946,32221,65690,20040,-4494,286,-238,1,-8,11,141,469,-127,1,0,43,49,80,0,53298,1
2,31307,34944,32215,65691,20061,-4491,280,-238,12,-7,39,128,486,-126,1,0,43,49,120,0,53298,1
2,31287,34940,32213,65692,20081,-4509,299,-228,5,-18,58,138,478,-128,1,0,43,49,160,0,53298,1
2,31287,34934,32206,65693,20101,-4493,296,-245,51,-15,66,129,477,-127,1,0,43,49,200,0,53298,1
2,31277,34934,32208,65694,20122,-4523,303,-266,219,8,66,133,481,-119,1,0,43,49,240,0,53298,1
2,31290,34947,32225,65695,20143,-4502,319,-267,295,12,42,140,478,-132,1,0,43,49,280,0,53298,1
2,31288,34936,32219,65696,20163,-4593,235,-321,44,-7,155,128,482,-120,1,0,43,49,320,0,53298,1
2,31287,34928,32217,65697,20184,-4670,267,-626,29,-64,350,127,479,-133,1,0,43,49,360,0,53298,1
2,31262,34912,32221,65698,20206,-4535,-72,-1498,-834,497,36,136,482,-132,1,0,43,49,400,0,53298,1
2,31348,34914,32246,65699,20228,-4503,-262,-1108,2798,1878,106,123,499,-139,1,0,43,49,440,0,53298,1
2,31408,34919,32279,65700,20250,-4593,-152,-752,5006,2917,-599,121,499,-143,1,0,43,49,480,0,53298,1
2,31435,34934,32284,65701,20272,-4673,-175,-1192,1426,4359,-2376,124,518,-150,1,0,43,49,520,0,53298,1
2,31327,34420,32104,65702,20295,-4559,-660,-1597,-3447,6598,-4495,139,535,-161,1,0,43,49,560,0,53298,1
2,31389,34880,32203,65703,20318,-4652,-706,-1293,-2049,8639,-6056,147,553,-165,1,0,43,49,600,0,53298,1
2,31395,34884,32190,65704,20340,-4581,-530,-968,-239,9416,-7046,162,568,-184,1,0,43,49,640,0,53298,1
2,31416,34895,32186,65705,20363,-4302,-98,-922,1768,9073,-7043,181,601,-235,1,0,43,49,680,0,53298,1
2,31443,34757,32174,65706,20386,-4021,525,-1180,2243,8354,-5860,209,613,-287,1,0,43,49,720,0,53298,1
2,31459,34972,32133,65707,20409,-3955,550,-2212,2962,8461,-3312,226,620,-318,1,0,43,49,760,0,53298,1
2,31389,34101,32077,65708,20431,-4071,4664,656,21489,5142,2127,230,628,-334,1,0,43,49,800,0,53298,1
2,31383,33574,32057,65709,20454,-4345,1500,-1603,-5192,5342,3793,207,629,-357,1,0,43,49,840,0,53298,1
2,31540,31713,32049,65710,20476,-4910,-61,-2581,-13870,6469,4949,179,623,-367,1,0,43,49,880,0,53298,1
2,31604,32355,32078,65711,20499,-5099,-684,-2056,-10254,5842,5695,161,619,-389,1,0,43,49,920,0,53298,1
2,31530,41739,32163,65712,20521,-4344,-368,-1515,-4798,4463,5539,137,601,-385,1,0,43,49,960,0,53298,1
1,32276,50211,32620,65713,0,-5087,-1146,674,-7801,4237,7860,106,590,-394,1,0,43,50,0,0,53298,1
2,31135,47964,32471,65714,19576,-3886,783,-1315,-15491,-244,4545,78,596,-372,1,0,43,50,40,0,53298,1
2,31494,46878,32248,65715,19598,-3646,-933,-928,-7492,-824,2028,66,606,-376,1,0,43,50,80,0,53298,1
2,31600,47911,32463,65716,19620,-3872,-350,-1885,-721,-1429,1859,63,605,-365,1,0,43,50,120,0,53298,1
2,31379,44513,32140,65717,19642,-4041,178,-2074,-531,-2279,477,53,619,-355,1,0,43,50,160,0,53298,1
2,30689,42249,31802,65718,19664,-4185,173,-2142,4105,-2981,-802,48,642,-348,1,0,43,50,200,0,53298,1
2,31498,46985,32137,65719,19685,-6051,2272,-3953,2276,192,-1064,51,643,-339,1,0,43,50,240,0,53298,1
2,32091,45162,32040,65720,19706,-3825,1313,-1213,6284,-1450,-2051,56,644,-336,1,0,43,50,280,0,53298,1
2,31896,43040,31952,65721,19729,-3229,465,-1746,4044,-207,-640,65,641,-341,1,0,43,50,320,0,53298,1
2,31931,40778,31868,65722,19751,-3873,32,-1953,2980,681,251,58,642,-344,1,0,43,50,360,0,53298,1
2,31835,35837,31778,65723,19774,-4190,366,-1958,1920,1104,433,51,637,-349,1,0,43,50,400,0,53298,1
2,31933,34032,31744,65724,19797,-4138,489,-1972,2288,402,375,66,634,-348,1,0,43,50,440,0,53298,1
2,32138,32836,31790,65725,19820,-3831,317,-1978,1263,55,121,68,638,-344,1,0,43,50,480,0,53298,1
2,32148,33008,31761,65726,19842,-3908,475,-1929,1185,-52,225,59,643,-353,1,0,43,50,520,0,53298,1
2,32231,32393,31793,65727,19865,-4074,487,-1906,1264,-119,166,60,644,-350,1,0,43,50,560,0,53298,1
2,32217,31597,31905,65728,19887,-3985,361,-1933,681,-143,-124,67,635,-347,1,0,43,50,600,0,53298,1
2,32172,31040,31856,65729,19909,-3912,309,-1995,197,-30,-201,60,642,-352,1,0,43,50,640,0,53298,1
2,31815,30652,31969,65730,19932,-3968,328,-2000,-40,219,-176,60,640,-346,1,0,43,50,680,0,53298,1
2,31699,30672,31939,65731,19954,-4013,354,-1941,-23,293,-175,60,640,-348,1,0,43,50,720,0,53298,1
2,31760,30895,31936,65732,19976,-4008,390,-1909,7,137,-98,60,648,-352,1,0,43,50,760,0,53298,1
2,31702,30747,31935,65733,19998,-3980,338,-1938,-46,-64,14,69,645,-355,1,0,43,50,800,0,53298,1
2,31719,30807,31916,65734,20021,-3976,336,-1931,270,-148,89,67,641,-355,1,0,43,50,840,0,53298,1
2,31743,31049,31946,65735,20044,-3974,382,-1926,411,-64,100,65,641,-351,1,0,43,50,880,0,53298,1
2,31810,30802,31930,65736,20067,-3960,364,-1941,207,46,58,66,640,-356,1,0,43,50,920,0,53298,1
2,31684,31059,31951,65737,20090,-3968,354,-1957,66,119,17,58,638,-350,1,0,43,50,960,0,53298,1
1,31704,31075,31969,65738,0,-3983,339,-1971,32,117,-17,66,644,-362,1,0,43,51,0,0,53298,1
2,31758,31076,31992,65739,19134,-3975,325,-1973,53,45,-48,62,642,-350,1,0,43,51,40,0,53298,1
2,31757,31071,31981,65740,19155,-3987,322,-1964,72,11,-26,63,641,-347,1,0,43,51,80,0,53298,1
2,31790,31072,31991,65741,19177,-3980,334,-1954,94,-20,-2,58,650,-348,1,0,43,51,120,0,53298,1
2,31696,30917,31976,65742,19199,-3970,342,-1945,95,-2,15,66,640,-356,1,0,43,51,160,0,53298,1
2,31534,30512,31891,65743,19221,-3979,330,-1967,5,27,18,64,646,-352,1,0,43,51,200,0,53298,1
2,31511,30579,31934,65744,19243,-3985,327,-1957,-25,28,15,62,644,-356,1,0,43,51,240,0,53298,1
2,31518,30570,31930,65745,19265,-3978,333,-1955,-2,13,14,62,640,-352,1,0,43,51,280,0,53298,1
2,31581,30485,31914,65746,19287,-3965,340,-1971,10,-19,11,49,643,-349,1,0,43,51,320,0,53298,1
2,31505,30532,31936,65747,19308,-3995,317,-1959,26,-19,19,66,648,-356,1,0,43,51,360,0,53298,1
2,31541,30664,31964,65748,19329,-3975,346,-1957,17,-4,3,59,635,-355,1,0,43,51,400,0,53298,1
2,31676,30791,31988,65749,19350,-3973,335,-1954,-3,0,2,72,640,-356,1,0,43,51,440,0,53298,1
2,31647,30835,31991,65750,19373,-3974,326,-1952,-11,15,9,63,641,-355,1,0,43,51,480,0,53298,1
2,31534,30952,32000,65751,19395,-3972,336,-1960,-7,-8,8,61,639,-353,1,0,43,51,520,0,53298,1
2,31527,31052,31974,65752,19417,-3983,333,-1969,12,-15,19,62,632,-354,1,0,43,51,560,0,53298,1
2,31421,31057,31976,65753,19440,-3974,359,-1957,36,-35,15,69,639,-353,1,0,43,51,600,0,53298,1
2,31396,31050,31932,65754,19461,-3974,344,-1967,-55,-31,22,61,637,-355,1,0,43,51,640,0,53298,1
2,31389,31051,31942,65755,19484,-3998,360,-1950,-216,-42,39,58,644,-348,1,0,43,51,680,0,53298,1
2,31371,31045,31925,65756,19507,-3986,363,-1944,-318,-101,122,60,638,-346,1,0,43,51,720,0,53298,1
2,31370,31042,31915,65757,19529,-4065,446,-1868,-132,-242,303,64,640,-350,1,0,43,51,760,0,53298,1
2,31389,31056,31920,65758,19551,-4076,693,-1994,104,-707,514,50,632,-338,1,0,43,51,800,0,53298,1
2,31240,30936,31901,65759,19573,-4150,732,-2289,-2385,-728,106,56,638,-338,1,0,43,51,840,0,53298,1
2,29813,30962,31864,65760,19595,-4341,414,-1722,-6418,-967,-307,50,630,-334,1,0,43,51,880,0,53298,1
2,30151,30963,31761,65761,19618,-4724,-110,-1611,-8449,-1299,-394,56,624,-312,1,0,43,51,920,0,53298,1
2,30440,30177,31755,65762,19641,-4862,-52,-970,-5547,-2402,-1543,65,617,-307,1,0,43,51,960,0,53298,1
1,30620,30512,31709,65763,0,-4879,384,-426,-3858,-4078,-2847,92,602,-290,1,0,43,52,0,0,53298,1
2,30404,30502,31755,65764,18691,-4562,785,-425,-4540,-6252,-3615,94,596,-266,1,0,43,52,40,0,53298,1
2,30493,32093,31691,65765,18714,-4308,289,-678,-4800,-7845,-3403,108,582,-228,1,0,43,52,80,0,53298,1
2,30983,31006,31770,65766,18737,-3914,609,-752,-1726,-8376,-2519,128,562,-214,1,0,43,52,120,0,53298,1
2,31066,30299,31913,65767,18761,-3639,1429,-833,3393,-8844,348,127,555,-199,1,0,43,52,160,0,53298,1
2,31050,30209,32094,65768,18785,-3663,978,-624,4087,-9090,3153,113,531,-181,1,0,43,52,200,0,53298,1
2,30894,34270,32028,65769,18808,-3918,404,-749,2838,-8973,4134,122,512,-160,1,0,43,52,240,0,53298,1
2,30889,32259,32069,65770,18831,-4211,166,-887,979,-8118,3787,114,502,-148,1,0,43,52,280,0,53298,1
2,30748,31809,31883,65771,18854,-4464,94,-953,-725,-6808,2313,116,492,-140,1,0,43,52,320,0,53298,1
2,30785,33118,31899,65772,18876,-4484,-24,-1182,-1361,-5080,564,114,494,-138,1,0,43,52,360,0,53298,1
2,30738,33709,31881,65773,18899,-4227,195,-1183,634,-3097,-641,124,476,-134,1,0,43,52,400,0,53298,1
2,30673,34267,31918,65774,18922,-4117,328,-962,3410,-1170,-975,122,474,-138,1,0,43,52,440,0,53298,1
2,30947,33608,31907,65775,18945,-4142,596,-836,5417,285,-1017,118,478,-132,1,0,43,52,480,0,53298,1
2,30947,33530,31854,65776,18967,-3979,548,-626,6270,1503,-821,116,476,-138,1,0,43,52,520,0,53298,1
2,30718,33365,31883,65777,18990,-4523,1496,-551,6767,3077,-1330,99,479,-131,1,0,43,52,560,0,53298,1
2,30765,32665,31870,65778,19012,-7145,1793,718,6315,134,561,105,477,-139,1,0,43,52,600,0,53298,1
2,30640,33670,31836,65779,19035,-4229,98,-313,1513,532,-379,99,487,-143,1,0,43,52,640,0,53298,1
2,30584,33658,31840,65780,19057,-3762,478,-783,-229,1083,-721,104,490,-146,1,0,43,52,680,0,53298,1
2,30643,33504,31857,65781,19079,-4486,403,-483,1078,1311,-140,100,486,-136,1,0,43,52,720,0,53298,1
2,30653,33296,31857,65782,19101,-4630,487,-337,1310,1605,141,107,495,-149,1,0,43,52,760,0,53298,1
2,30702,34070,31887,65783,19122,-4421,564,-610,1618,1479,195,97,485,-149,1,0,43,52,800,0,53298,1
2,30719,33755,31875,65784,19143,-4350,490,-720,1564,1142,-11,102,484,-152,1,0,43,52,840,0,53298,1
2,30732,33810,31875,65785,19165,-4416,562,-600,914,863,-249,104,490,-146,1,0,43,52,880,0,53298,1
2,30673,33810,31862,65786,19187,-4453,481,-660,83,521,-390,103,491,-151,1,0,43,52,920,0,53298,1
2,30686,33759,31861,65787,19210,-4397,404,-730,-261,132,-328,100,482,-160,1,0,43,52,960,0,53298,1
1,30707,33641,31867,65788,0,-4391,425,-645,21,-237,-91,102,486,-142,1,0,43,53,0,0,53298,1
2,30698,33688,31862,65789,18247,-4416,482,-561,256,-338,112,105,481,-157,1,0,43,53,40,0,53298,1
2,30611,33662,31865,65790,18269,-4415,517,-537,127,-230,209,101,489,-153,1,0,43,53,80,0,53298,1
2,30476,33781,31857,65791,18291,-4391,498,-589,-138,-45,178,107,483,-149,1,0,43,53,120,0,53298,1
2,30511,33683,31857,65792,18313,-4409,494,-603,-44,99,90,97,489,-153,1,0,43,53,160,0,53298,1
2,30535,33434,31848,65793,18334,-4407,478,-599,175,157,-26,104,490,-154,1,0,43,53,200,0,53298,1
2,30534,33667,31855,65794,18356,-4406,472,-617,192,168,-71,105,481,-153,1,0,43,53,240,0,53298,1
2,30573,33770,31860,65795,18379,-4400,481,-622,58,134,-45,105,483,-155,1,0,43,53,280,0,53298,1
2,30725,33631,31856,65796,18401,-4393,468,-631,-37,64,-1,105,487,-153,1,0,43,53,320,0,53298,1
2,30743,33681,31862,65797,18423,-4410,464,-628,15,-30,30,97,485,-143,1,0,43,53,360,0,53298,1
2,30746,33652,31863,65798,18446,-4399,499,-611,80,-72,30,99,485,-159,1,0,43,53,400,0,53298,1
2,30724,33779,31871,65799,18468,-4409,480,-597,20,-26,11,99,483,-163,1,0,43,53,440,0,53298,1
2,30700,33789,31869,65800,18491,-4393,475,-606,1,30,-2,102,484,-142,1,0,43,53,480,0,53298,1
2,30727,33744,31871,65801,18513,-4405,470,-622,7,61,1,115,485,-155,1,0,43,53,520,0,53298,1
2,30717,33734,31870,65802,18535,-4407,476,-616,45,35,30,101,483,-149,1,0,43,53,560,0,53298,1
2,30705,33821,31869,65803,18557,-4405,474,-616,42,9,32,99,483,-143,1,0,43,53,600,0,53298,1
2,30690,33828,31870,65804,18579,-4397,486,-623,1,-16,41,100,492,-154,1,0,43,53,640,0,53298,1
2,30432,33760,31848,65805,18601,-4408,471,-613,-2,-21,21,105,491,-147,1,0,43,53,680,0,53298,1
2,30563,33769,31862,65806,18623,-4399,484,-613,27,-17,10,103,485,-155,1,0,43,53,720,0,53298,1
2,30556,33833,31869,65807,18645,-4396,476,-610,26,4,3,98,482,-152,1,0,43,53,760,0,53298,1
2,30526,33781,31850,65808,18667,-4397,488,-641,12,19,15,107,481,-155,1,0,43,53,800,0,53298,1
2,30518,33790,31856,65809,18688,-4405,470,-621,14,17,23,109,487,-155,1,0,43,53,840,0,53298,1
2,30470,33812,31850,65810,18710,-4415,474,-624,30,7,26,102,482,-152,1,0,43,53,880,0,53298,1
2,30476,33812,31849,65811,18732,-4396,484,-627,23,-6,23,102,484,-156,1,0,43,53,920,0,53298,1
2,30410,33865,31846,65812,18753,-4401,473,-616,2,-6,13,103,477,-159,1,0,43,53,960,0,53298,1
1,30403,33810,31849,65813,0,-4409,465,-621,12,-5,14,111,483,-159,1,0,43,54,0,1,53298,1
2,30399,33801,31844,65814,17804,-4406,469,-619,13,-8,22,99,481,-153,1,0,43,54,40,1,53298,1
2,30433,33736,31848,65815,17825,-4403,473,-620,10,-11,33,109,489,-155,1,0,43,54,80,1,53298,1
2,30307,33680,31836,65816,17847,-4398,472,-599,13,-6,23,108,478,-158,1,0,43,54,120,1,53298,1
2,30277,33661,31836,65817,17868,-4404,474,-618,-3,-2,29,104,492,-160,1,0,43,54,160,1,53298,1
2,30283,33682,31837,65818,17890,-4405,471,-615,22,2,25,98,490,-150,1,0,43,54,200,1,53298,1
2,30301,33705,31836,65819,17913,-4390,486,-615,18,-6,23,91,487,-153,1,0,43,54,240,1,53298,1
2,30275,33709,31831,65820,17936,-4400,465,-616,15,4,8,100,488,-156,1,0,43,54,280,1,53298,1
2,30250,33609,31829,65821,17959,-4405,478,-620,12,4,-1,106,490,-152,1,0,43,54,320,1,53298,1
2,30275,33658,31832,65822,17981,-4409,466,-618,24,0,25,106,492,-156,1,0,43,54,360,1,53298,1
2,30253,33650,31834,65823,18003,-4402,474,-624,25,0,22,100,492,-150,1,0,43,54,400,1,53298,1
2,30298,33650,31834,65824,18024,-4404,472,-618,8,-6,18,108,480,-158,1,0,43,54,440,1,53298,1
2,30291,33646,31836,65825,18046,-4409,477,-630,-3,-14,13,101,483,-151,1,0,43,54,480,1,53298,1
2,30293,33669,31841,65826,18068,-4404,468,-629,-4,-21,27,106,488,-144,1,0,43,54,520,1,53298,1
2,30258,33692,31839,65827,18090,-4403,474,-619,-5,-25,-1,102,488,-154,1,0,43,54,560,1,53298,1
2,30291,33717,31839,65828,18112,-4395,488,-635,-25,-39,9,101,477,-153,1,0,43,54,600,1,53298,1
2,30319,33681,31830,65829,18135,-4407,521,-638,-26,-4,36,102,488,-154,1,0,43,54,640,1,53298,1
2,30265,33642,31827,65830,18157,-4378,483,-578,246,61,13,105,493,-167,1,0,43,54,680,1,53298,1
2,30234,33692,31837,65831,18179,-4421,469,-580,160,212,-129,101,483,-161,1,0,43,54,720,1,53298,1
2,30261,33655,31835,65832,18201,-4403,453,-646,-122,267,-174,109,489,-159,1,0,43,54,760,1,53298,1
2,30285,33819,31843,65833,18222,-4396,460,-626,-11,248,-132,103,481,-157,1,0,43,54,800,1,53298,1
2,30354,33677,31839,65834,18244,-4415,465,-647,162,197,-34,100,488,-164,1,0,43,54,840,1,53298,1
2,30356,33633,31831,65835,18266,-4456,502,-630,277,50,143,105,489,-155,1,0,43,54,880,1,53298,1
2,30331,33551,31819,65836,18289,-4496,607,-663,93,-89,484,104,476,-152,1,0,43,54,920,1,53298,1
2,30172,30140,31817,65837,18310,-4523,930,-663,-178,-442,1176,103,487,-149,1,0,43,54,960,1,53298,1
1,30135,30772,31777,65838,0,-3974,1855,-1006,-351,-410,2483,100,490,-158,1,0,43,55,0,0,53298,1
2,30075,34327,31900,65839,17363,-3673,2559,-1288,-1820,457,5068,86,472,-174,1,0,43,55,40,0,53298,1
2,30651,30533,31866,65840,17386,-4132,1913,-1723,-6835,1885,7740,64,462,-164,1,0,43,55,80,0,53298,1
2,30901,30358,31959,65841,17409,-4626,1371,-1918,-6449,3203,10021,53,463,-177,1,0,43,55,120,0,53298,1
2,30850,30662,31897,65842,17433,-4547,1029,-2023,-4228,4606,11044,22,454,-188,1,0,43,55,160,0,53298,1
2,31210,30702,31961,65843,17457,-4447,375,-2140,-2309,6805,10459,-1,443,-205,1,0,43,55,200,0,53298,1
2,31140,30705,31969,65844,17482,-4170,-290,-2001,-345,9622,8101,-11,449,-219,1,0,43,55,240,0,53298,1
2,31145,30644,31941,65845,17506,-4195,-693,-1556,3563,11858,4791,-24,460,-244,1,0,43,55,280,0,53298,1
2,31080,30306,31911,65846,17530,-4018,-564,-1071,9156,12493,974,-37,473,-281,1,0,43,55,320,0,53298,1
2,30873,30648,31900,65847,17552,-4117,-145,-574,14933,11008,-3031,-20,482,-332,1,0,43,55,360,0,53298,1
2,30931,30406,31910,65848,17574,-4331,743,-336,17577,7548,-6701,-1,507,-365,1,0,43,55,400,0,53298,1
2,30837,30550,31948,65849,17596,-4010,1791,-622,14470,3454,-9246,16,518,-398,1,0,43,55,440,0,53298,1
2,30897,30288,31981,65850,17618,-3849,2835,-989,7050,415,-10353,50,544,-414,1,0,43,55,480,0,53298,1
2,30824,30395,32010,65851,17639,-4151,2787,-1049,-107,-1795,-9500,58,548,-400,1,0,43,55,520,0,53298,1
2,31345,30635,32391,65852,17662,-3581,27,-1722,-7258,-5428,-5730,54,562,-370,1,0,43,55,560,0,53298,1
2,31413,30665,32650,65853,17686,-4131,-1098,-1921,-8313,-3040,-3285,58,582,-360,1,0,43,55,600,0,53298,1
2,31211,31004,34188,65854,17711,-2732,-327,-3289,15875,-6476,-10650,95,611,-369,1,0,43,55,640,0,53298,1
2,31176,30868,34145,65855,17741,-3917,2901,-3975,32767,-5623,-7889,107,619,-363,1,0,43,55,680,0,53298,1
2,30513,30218,34181,65856,17770,-4372,-838,-2745,-12278,651,1909,93,621,-365,1,0,43,55,720,0,53298,1
2,31160,30819,35345,65857,17801,-4211,-328,-2680,7980,171,1514,97,623,-365,1,0,43,55,760,0,53298,1
2,31145,30800,35109,65858,17833,-3865,-366,-2005,9311,1595,3427,82,620,-376,1,0,43,55,800,0,53298,1
2,31074,30787,35124,65859,17862,-3975,-233,-1530,3580,1543,2169,90,610,-382,1,0,43,55,840,0,53298,1
2,31105,30790,35250,65860,17890,-4250,-220,-2006,-1224,275,2302,86,624,-382,1,0,43,55,880,0,53298,1
2,31061,30758,35207,65861,17916,-4010,-165,-2359,-1609,337,1770,68,616,-368,1,0,43,55,920,0,53298,1
2,31204,30781,35208,65862,17943,-3857,-414,-2472,-3643,1289,382,82,604,-378,1,0,43,55,960,0,53298,1
1,31165,30767,35177,65863,0,-3826,-492,-2380,-3022,935,-5,77,619,-375,1,0,43,56,0,0,53298,1
2,31337,30789,35278,65864,16922,-3834,-380,-2338,-1217,88,396,73,617,-375,1,0,43,56,40,0,53298,1
2,31273,30777,35239,65865,16948,-3916,-171,-2310,-1127,-338,352,70,616,-376,1,0,43,56,80,0,53298,1
2,31250,30774,35240,65866,16975,-3987,-61,-2215,-1162,-430,76,60,624,-366,1,0,43,56,120,0,53298,1
2,31236,30748,35224,65867,17001,-4036,-35,-2114,-873,-505,-14,69,615,-371,1,0,43,56,160,0,53298,1
2,31226,30766,35211,65868,17027,-3973,-91,-2121,-428,-411,165,68,622,-366,1,0,43,56,200,0,53298,1
2,31209,30765,35211,65869,17053,-3917,-143,-2168,-340,-269,243,69,625,-365,1,0,43,56,240,0,53298,1
2,31205,30763,35231,65870,17079,-3916,-136,-2198,-455,-130,241,65,625,-375,1,0,43,56,280,0,53298,1
2,31093,30751,35205,65871,17104,-3939,-92,-2188,-430,-112,187,62,630,-362,1,0,43,56,320,0,53298,1
2,30988,30721,35131,65872,17130,-3954,-67,-2166,-348,-154,124,67,631,-361,1,0,43,56,360,0,53298,1
2,31090,30742,35206,65873,17156,-3967,-65,-2134,-300,-215,64,62,618,-362,1,0,43,56,400,0,53298,1
2,31054,30739,35206,65874,17182,-3971,-68,-2142,-337,-240,-7,63,621,-369,1,0,43,56,440,0,53298,1
2,31045,30741,35205,65875,17208,-3991,-84,-2119,-440,-216,-42,63,615,-377,1,0,43,56,480,0,53298,1
2,31041,30740,35204,65876,17233,-3982,-49,-2112,-519,-196,-47,68,622,-378,1,0,43,56,520,0,53298,1
2,31060,30740,35205,65877,17259,-3994,-37,-2112,-472,-185,-30,60,636,-370,1,0,43,56,560,0,53298,1
2,31046,30738,35201,65878,17285,-3986,-34,-2097,-334,-149,-4,65,633,-369,1,0,43,56,600,0,53298,1
2,31039,30740,35210,65879,17312,-3998,-38,-2108,-190,-100,5,59,623,-369,1,0,43,56,640,0,53298,1
2,31018,30737,35202,65880,17338,-3997,-46,-2094,-72,-48,15,67,619,-375,1,0,43,56,680,0,53298,1
2,31025,30739,35208,65881,17364,-3989,-30,-2087,-38,-4,37,71,625,-379,1,0,43,56,720,0,53298,1
2,31014,30740,35200,65882,17390,-3998,-36,-2118,-38,16,46,60,628,-366,1,0,43,56,760,0,53298,1
2,31001,30735,35201,65883,17416,-3987,-30,-2113,28,28,34,65,635,-383,1,0,43,56,800,0,53298,1
2,30986,30736,35208,65884,17441,-3983,-41,-2108,59,43,36,61,633,-371,1,0,43,56,840,0,53298,1
2,30986,30735,35204,65885,17467,-3980,-51,-2122,67,54,30,64,622,-378,1,0,43,56,880,0,53298,1
2,31017,30735,35207,65886,17492,-3973,-61,-2144,64,39,7,65,625,-373,1,0,43,56,920,0,53298,1
2,31028,30732,35208,65887,17516,-3973,-69,-2119,61,8,12,69,629,-377,1,0,43,56,960,0,53298,1
1,31021,30724,35200,65888,0,-3979,-49,-2131,26,-30,13,65,631,-377,1,0,43,57,0,1,53298,1
2,30977,30713,35153,65889,16479,-4002,43,-2212,191,-90,62,76,624,-388,1,0,43,57,40,1,53298,1
2,30934,30702,34778,65890,16504,-4024,253,-2282,805,-169,198,62,618,-366,1,0,43,57,80,1,53298,1
2,31009,30709,34373,65891,16527,-3997,497,-2275,-1992,-140,625,58,634,-352,1,0,43,57,120,1,53298,1
2,30743,30410,32891,65892,16549,-3511,1846,-2265,-7410,-288,1853,46,606,-356,1,0,43,57,160,1,53298,1
2,30747,30266,32397,65893,16571,-3894,799,-2144,-19047,271,4437,23,595,-329,1,0,43,57,200,1,53298,1
2,31142,30496,32175,65894,16592,-4093,1151,-2135,-12072,486,7099,2,574,-318,1,0,43,57,240,1,53298,1
2,30501,30626,31980,65895,16613,-4506,-107,-2861,-12169,970,7787,-14,548,-300,1,0,43,57,280,1,53298,1
2,30911,30558,31902,65896,16635,-4628,1776,-1096,-2334,187,8147,-29,529,-289,1,0,43,57,320,1,53298,1
2,30464,30550,31803,65897,16656,-4556,1589,-896,-6649,-1342,7379,-29,511,-267,1,0,43,57,360,1,53298,1
2,30940,30366,31908,65898,16676,-4313,628,-661,-10341,-3011,6016,-26,484,-248,1,0,43,57,400,1,53298,1
2,30767,30168,31859,65899,16697,-4367,337,-288,-10271,-5276,4313,-20,472,-236,1,0,43,57,440,1,53298,1
2,30735,33205,31845,65900,16719,-4281,34,-218,-9696,-7389,1480,-14,466,-212,1,0,43,57,480,1,53298,1
2,30574,30255,31965,65901,16741,-3818,146,-550,-5350,-9290,-1328,-4,450,-200,1,0,43,57,520,1,53298,1
2,30379,30358,32048,65902,16762,-3510,319,-840,-2482,-9342,-3658,15,459,-175,1,0,43,57,560,1,53298,1
2,30384,30759,31950,65903,16784,-3592,694,-945,397,-8858,-5354,24,456,-170,1,0,43,57,600,1,53298,1
2,30305,34440,32085,65904,16807,-3669,1125,-670,2282,-8515,-6273,41,451,-167,1,0,43,57,640,1,53298,1
2,30394,34570,32090,65905,16830,-3949,1150,-846,1638,-8197,-6598,64,456,-158,1,0,43,57,680,1,53298,1
2,30190,34556,31995,65906,16852,-3895,1401,-798,1510,-7465,-6549,77,461,-135,1,0,43,57,720,1,53298,1
2,30018,34493,32083,65907,16875,-4105,1143,-685,2097,-5893,-5826,91,457,-143,1,0,43,57,760,1,53298,1
2,29979,34180,32054,65908,16897,-4341,1085,-1009,1418,-4294,-5443,102,452,-124,1,0,43,57,800,1,53298,1
2,30268,33823,31888,65909,16918,-4244,1088,-1009,1467,-2199,-5384,105,451,-125,1,0,43,57,840,1,53298,1
2,30471,30530,32009,65910,16939,-4360,1183,-1573,3436,-409,-4986,109,463,-121,1,0,43,57,880,1,53298,1
2,30496,30680,32028,65911,16961,-4079,1918,-388,6706,2922,-2621,102,466,-132,1,0,43,57,920,1,53298,1
2,30415,30667,32073,65912,16984,-4733,1620,247,5104,2673,-1042,96,464,-122,1,0,43,57,960,1,53298,1
1,30419,30667,32069,65913,0,-5130,924,940,1632,619,89,98,468,-132,1,0,43,58,0,0,53298,1
2,30461,30659,32000,65914,16035,-4457,624,-202,-263,-240,333,97,467,-129,1,0,43,58,40,0,53298,1
2,30249,30618,31883,65915,16057,-4327,499,-613,-596,335,108,103,463,-129,1,0,43,58,80,0,53298,1
2,30480,30696,32078,65916,16079,-4449,509,-105,294,752,-111,102,462,-128,1,0,43,58,120,0,53298,1
2,30486,30692,32073,65917,16101,-4420,664,-85,1088,879,126,105,459,-133,1,0,43,58,160,0,53298,1
2,30326,30678,31964,65918,16122,-4386,615,-372,1535,852,323,96,466,-140,1,0,43,58,200,0,53298,1
2,30471,30700,32081,65919,16143,-4420,672,-303,1433,875,42,96,472,-138,1,0,43,58,240,0,53298,1
2,30387,30676,32024,65920,16164,-4416,692,-225,763,930,-307,98,466,-140,1,0,43,58,280,0,53298,1
2,30494,30703,32042,65921,16184,-4416,574,-381,336,818,-376,89,459,-137,1,0,43,58,320,0,53298,1
2,30468,30712,32076,65922,16205,-4399,546,-430,319,595,-336,101,455,-141,1,0,43,58,360,0,53298,1
2,30492,30718,32071,65923,16227,-4401,561,-384,469,332,-215,104,462,-144,1,0,43,58,400,0,53298,1
2,30508,30719,32060,65924,16249,-4390,610,-342,524,202,-49,101,469,-137,1,0,43,58,440,0,53298,1
2,30204,30658,31867,65925,16271,-4386,593,-383,259,195,67,98,472,-140,1,0,43,58,480,0,53298,1
2,30186,30656,31856,65926,16293,-4391,600,-375,77,209,74,99,473,-145,1,0,43,58,520,0,53298,1
2,30155,30674,31856,65927,16315,-4400,594,-371,171,202,18,93,475,-151,1,0,43,58,560,0,53298,1
2,30193,30681,31871,65928,16336,-4389,607,-386,294,217,-55,94,468,-142,1,0,43,58,600,0,53298,1
2,30189,30687,31881,65929,16357,-4379,603,-388,254,233,-96,106,468,-140,1,0,43,58,640,0,53298,1
2,30169,30687,31864,65930,16378,-4401,582,-407,112,230,-68,91,473,-143,1,0,43,58,680,0,53298,1
2,30201,30700,31901,65931,16398,-4383,579,-427,46,156,-20,100,468,-152,1,0,43,58,720,0,53298,1
2,30278,30730,31974,65932,16419,-4408,570,-430,64,59,29,81,471,-131,1,0,43,58,760,0,53298,1
2,30409,30760,32080,65933,16440,-4396,583,-411,43,-34,49,103,473,-137,1,0,43,58,800,0,53298,1
2,30453,30757,32077,65934,16461,-4389,591,-402,-24,-65,51,100,476,-148,1,0,43,58,840,0,53298,1
2,30452,30761,32085,65935,16482,-4406,577,-396,-49,-56,44,97,473,-149,1,0,43,58,880,0,53298,1
2,30481,30759,32080,65936,16503,-4386,584,-397,-23,-26,15,101,469,-149,1,0,43,58,920,0,53298,1
2,30471,30751,32083,65937,16524,-4404,581,-394,17,16,21,89,469,-141,1,0,43,58,960,0,53298,1
1,30415,30750,32077,65938,0,-4398,584,-400,25,30,22,91,469,-139,1,0,43,59,0,0,53298,1
2,30355,30751,32080,65939,15592,-4395,588,-395,27,41,13,93,463,-153,1,0,43,59,40,0,53298,1
2,30373,30751,32084,65940,15614,-4397,583,-398,37,25,7,98,464,-142,1,0,43,59,80,0,53298,1
