sensorStatus,cap1,cap2,cap3,counter,microseconds_since_last_tick,accX,accY,accZ,gyroX,gyroY,gyroZ,magnetX,magnetY,magnetZ,day,hour,min,sec,msec,sync,battery_fuel,crc_good
2,30493,29711,31172,86839,9468,-4578,-607,-612,-4,5,7,194,514,-188,1,0,57,55,40,0,53298,1
2,30496,29711,31171,86840,9480,-4577,-607,-630,14,35,27,182,504,-176,1,0,57,55,80,0,53298,1
2,30497,29709,31171,86841,9492,-4570,-598,-614,6,15,37,192,510,-180,1,0,57,55,120,0,53298,1
2,30495,29712,31175,86842,9504,-4585,-595,-615,-5,-19,29,185,507,-175,1,0,57,55,160,0,53298,1
2,30501,29715,31174,86843,9516,-4586,-605,-634,-22,-54,17,194,510,-174,1,0,57,55,200,0,53298,1
2,30499,29723,31173,86844,9528,-4569,-603,-618,-27,-80,8,192,508,-184,1,0,57,55,240,0,53298,1
2,30498,29721,31175,86845,9540,-4575,-606,-612,-1,-60,-3,187,503,-181,1,0,57,55,280,0,53298,1
2,30496,29715,31173,86846,9553,-4582,-603,-611,-9,1,10,185,507,-181,1,0,57,55,320,0,53298,1
2,30498,29709,31174,86847,9566,-4568,-591,-620,5,53,12,188,500,-180,1,0,57,55,360,0,53298,1
2,30501,29708,31175,86848,9578,-4584,-595,-626,23,63,-5,192,512,-176,1,0,57,55,400,0,53298,1
2,30498,29710,31171,86849,9590,-4591,-599,-605,40,62,-8,197,501,-193,1,0,57,55,440,0,53298,1
2,30502,29707,31174,86850,9602,-4579,-608,-633,14,48,-10,189,503,-183,1,0,57,55,480,0,53298,1
2,30501,29709,31173,86851,9614,-4582,-610,-626,-27,-16,10,184,502,-176,1,0,57,55,520,0,53298,1
2,30496,29705,31169,86852,9627,-4579,-606,-626,-5,-62,33,187,513,-175,1,0,57,55,560,0,53298,1
2,30497,29708,31175,86853,9638,-4582,-603,-599,-7,-70,47,185,507,-173,1,0,57,55,600,0,53298,1
2,30500,29709,31175,86854,9651,-4576,-604,-604,-1,-20,42,197,501,-191,1,0,57,55,640,0,53298,1
2,30498,29708,31173,86855,9663,-4574,-598,-617,-2,23,39,192,508,-186,1,0,57,55,680,0,53298,1
2,30501,29707,31175,86856,9676,-4580,-601,-638,8,20,36,180,504,-180,1,0,57,55,720,0,53298,1
2,30499,29710,31173,86857,9689,-4575,-600,-620,2,-29,29,190,510,-174,1,0,57,55,760,0,53298,1
2,30499,29702,31174,86858,9702,-4577,-592,-632,-31,-51,13,186,508,-184,1,0,57,55,800,0,53298,1
2,30498,29704,31177,86859,9716,-4579,-611,-613,-15,-48,9,186,512,-180,1,0,57,55,840,0,53298,1
2,30498,29703,31177,86860,9730,-4577,-593,-626,-15,-13,16,191,503,-185,1,0,57,55,880,0,53298,1
2,30496,29711,31174,86861,9743,-4573,-611,-610,11,24,23,188,510,-180,1,0,57,55,920,0,53298,1
2,30500,29711,31173,86862,9756,-4566,-597,-615,6,28,24,184,510,-180,1,0,57,55,960,0,53298,1
1,30501,29704,31177,86863,0,-4588,-594,-613,4,10,26,184,506,-174,1,0,57,56,0,0,53298,1
2,30500,29709,31174,86864,9016,-4569,-594,-615,-2,-13,20,190,502,-182,1,0,57,56,40,0,53298,1
2,30498,29715,31176,86865,9029,-4582,-609,-629,-4,-23,32,185,513,-189,1,0,57,56,80,0,53298,1
2,30502,29709,31175,86866,9041,-4590,-604,-609,-2,-3,21,180,508,-182,1,0,57,56,120,0,53298,1
2,30502,29712,31180,86867,9054,-4579,-597,-619,1,10,15,189,499,-183,1,0,57,56,160,0,53298,1
2,30500,29716,31174,86868,9066,-4591,-604,-636,2,21,4,189,503,-189,1,0,57,56,200,0,53298,1
2,30501,29711,31176,86869,9078,-4584,-607,-616,11,8,6,193,509,-187,1,0,57,56,240,0,53298,1
2,30498,29719,31176,86870,9091,-4586,-599,-631,2,-1,13,190,506,-184,1,0,57,56,280,0,53298,1
2,30498,29707,31178,86871,9103,-4574,-611,-634,3,-1,19,190,500,-174,1,0,57,56,320,0,53298,1
2,30496,29714,31175,86872,9115,-4590,-617,-621,-14,-8,28,190,508,-178,1,0,57,56,360,0,53298,1
2,30499,29716,31177,86873,9128,-4566,-596,-623,0,-20,29,189,503,-177,1,0,57,56,400,0,53298,1
2,30498,29722,31176,86874,9141,-4580,-605,-605,-10,-11,35,191,503,-181,1,0,57,56,440,0,53298,1
2,30501,29714,31176,86875,9155,-4570,-595,-625,-11,-18,33,182,508,-182,1,0,57,56,480,0,53298,1
2,30499,29733,31176,86876,9169,-4592,-618,-621,-5,-18,29,184,524,-180,1,0,57,56,520,0,53298,1
2,30497,29720,31176,86877,9183,-4578,-594,-625,-2,-11,24,191,513,-173,1,0,57,56,560,0,53298,1
2,30501,29713,31178,86878,9196,-4577,-592,-627,-1,-2,18,186,514,-176,1,0,57,56,600,0,53298,1
2,30501,29733,31174,86879,9208,-4571,-594,-621,-3,-3,17,194,512,-178,1,0,57,56,640,0,53298,1
2,30502,29738,31174,86880,9220,-4585,-615,-623,-6,3,26,191,509,-183,1,0,57,56,680,0,53298,1
2,30497,29729,31176,86881,9233,-4571,-602,-620,2,0,29,187,511,-177,1,0,57,56,720,0,53298,1
2,30496,29728,31177,86882,9246,-4588,-599,-609,9,6,18,183,507,-181,1,0,57,56,760,0,53298,1
2,30498,29727,31176,86883,9259,-4582,-603,-613,-3,13,8,188,504,-180,1,0,57,56,800,0,53298,1
2,30498,29731,31173,86884,9271,-4594,-622,-600,1,0,11,191,507,-177,1,0,57,56,840,0,53298,1
2,30500,29739,31176,86885,9284,-4579,-604,-627,6,1,19,188,514,-184,1,0,57,56,880,0,53298,1
2,30495,29735,31176,86886,9297,-4591,-614,-610,4,-8,28,192,506,-186,1,0,57,56,920,0,53298,1
2,30501,29737,31175,86887,9309,-4586,-614,-625,6,-7,36,188,506,-186,1,0,57,56,960,0,53298,1
1,30499,29740,31180,86888,0,-4582,-603,-616,-3,-6,35,178,510,-182,1,0,57,57,0,1,53298,1
2,30501,29747,31178,86889,8565,-4588,-604,-615,-2,-10,29,190,504,-168,1,0,57,57,40,1,53298,1
2,30503,29739,31175,86890,8577,-4586,-606,-625,-12,-18,27,187,511,-171,1,0,57,57,80,1,53298,1
2,30503,29733,31177,86891,8590,-4572,-607,-617,-4,-6,33,192,508,-192,1,0,57,57,120,1,53298,1
2,30497,29738,31175,86892,8603,-4582,-598,-622,7,-16,22,192,502,-178,1,0,57,57,160,1,53298,1
2,30495,29738,31177,86893,8615,-4575,-602,-637,0,-6,11,184,504,-176,1,0,57,57,200,1,53298,1
2,30495,29737,31173,86894,8628,-4581,-596,-625,-14,-5,13,185,505,-179,1,0,57,57,240,1,53298,1
2,30500,29729,31178,86895,8641,-4582,-603,-620,0,-14,33,194,506,-180,1,0,57,57,280,1,53298,1
2,30498,29719,31175,86896,8653,-4577,-603,-617,2,-15,34,190,500,-184,1,0,57,57,320,1,53298,1
2,30496,29725,31174,86897,8665,-4578,-602,-623,-2,-4,37,189,507,-183,1,0,57,57,360,1,53298,1
2,30499,29730,31177,86898,8677,-4582,-598,-621,-5,0,18,195,509,-183,1,0,57,57,400,1,53298,1
2,30501,29720,31176,86899,8688,-4572,-595,-639,-10,0,10,192,506,-180,1,0,57,57,440,1,53298,1
2,30500,29720,31176,86900,8700,-4572,-600,-621,-6,-12,13,184,510,-174,1,0,57,57,480,1,53298,1
2,30500,29737,31177,86901,8712,-4579,-603,-625,-12,-21,17,191,505,-173,1,0,57,57,520,1,53298,1
2,30500,29747,31176,86902,8724,-4582,-603,-610,-10,-19,27,184,500,-176,1,0,57,57,560,1,53298,1
2,30497,29747,31178,86903,8736,-4576,-612,-625,-13,-15,25,187,511,-183,1,0,57,57,600,1,53298,1
2,30501,29752,31173,86904,8748,-4568,-604,-625,-4,-14,22,191,501,-177,1,0,57,57,640,1,53298,1
2,30502,29749,31178,86905,8761,-4564,-590,-616,-9,-10,11,192,506,-184,1,0,57,57,680,1,53298,1
2,30498,29759,31177,86906,8774,-4574,-588,-628,-5,-11,16,193,505,-179,1,0,57,57,720,1,53298,1
2,30497,29762,31175,86907,8787,-4584,-597,-613,4,-4,32,190,508,-184,1,0,57,57,760,1,53298,1
2,30498,29764,31180,86908,8800,-4574,-597,-625,-2,-12,26,187,513,-181,1,0,57,57,800,1,53298,1
2,30499,29760,31180,86909,8813,-4573,-601,-652,-2,-4,23,190,502,-182,1,0,57,57,840,1,53298,1
2,30499,29762,31179,86910,8825,-4592,-605,-625,-16,-15,29,189,509,-193,1,0,57,57,880,1,53298,1
2,30500,29761,31179,86911,8837,-4576,-596,-625,-9,-22,30,194,510,-186,1,0,57,57,920,1,53298,1
2,30499,29764,31180,86912,8849,-4577,-596,-610,-2,-19,32,187,509,-185,1,0,57,57,960,1,53298,1
1,30502,29759,31179,86913,0,-4576,-608,-623,-7,-4,29,195,509,-187,1,0,57,58,0,1,53298,1
2,30500,29763,31181,86914,8113,-4575,-595,-626,3,6,19,188,510,-182,1,0,57,58,40,1,53298,1
2,30499,29765,31181,86915,8125,-4590,-604,-613,1,-2,9,183,507,-181,1,0,57,58,80,1,53298,1
2,30498,29758,31180,86916,8138,-4588,-612,-627,-6,-23,18,192,506,-184,1,0,57,58,120,1,53298,1
2,30500,29759,31178,86917,8151,-4577,-596,-611,-8,-30,27,186,510,-182,1,0,57,58,160,1,53298,1
2,30502,29763,31181,86918,8164,-4574,-590,-619,-7,-26,24,188,506,-188,1,0,57,58,200,1,53298,1
2,30498,29763,31178,86919,8177,-4581,-604,-620,-20,-11,22,191,509,-187,1,0,57,58,240,1,53298,1
2,30499,29762,31180,86920,8189,-4582,-593,-617,0,-16,14,190,508,-188,1,0,57,58,280,1,53298,1
2,30499,29762,31174,86921,8202,-4568,-596,-623,12,4,14,188,504,-176,1,0,57,58,320,1,53298,1
2,30499,29750,31176,86922,8214,-4586,-613,-618,1,5,20,185,505,-175,1,0,57,58,360,1,53298,1
2,30497,29759,31178,86923,8226,-4572,-600,-626,0,-2,24,184,512,-180,1,0,57,58,400,1,53298,1
2,30497,29751,31175,86924,8239,-4586,-591,-631,5,-21,28,189,503,-187,1,0,57,58,440,1,53298,1
2,30500,29755,31177,86925,8251,-4578,-595,-618,-6,-41,33,181,503,-177,1,0,57,58,480,1,53298,1
2,30501,29759,31180,86926,8264,-4589,-614,-625,-11,-51,23,191,499,-171,1,0,57,58,520,1,53298,1
2,30500,29760,31179,86927,8277,-4573,-607,-600,-10,-53,21,190,504,-176,1,0,57,58,560,1,53298,1
2,30499,29757,31179,86928,8289,-4578,-604,-606,7,-30,24,194,514,-180,1,0,57,58,600,1,53298,1
2,30501,29752,31177,86929,8301,-4582,-605,-615,5,-14,19,189,503,-179,1,0,57,58,640,1,53298,1
2,30497,29753,31179,86930,8313,-4577,-586,-628,4,-14,-5,198,508,-190,1,0,57,58,680,1,53298,1
2,30493,29752,31178,86931,8325,-4590,-602,-628,27,-39,-84,190,496,-184,1,0,57,58,720,1,53298,1
2,30500,29749,31177,86932,8337,-4619,-622,-629,60,-68,-86,192,512,-180,1,0,57,58,760,1,53298,1
2,30493,29759,31177,86933,8348,-4648,-607,-668,112,-110,-40,187,513,-177,1,0,57,58,800,1,53298,1
2,30484,29751,31173,86934,8360,-4605,-562,-643,437,-145,154,197,511,-189,1,0,57,58,840,1,53298,1
2,30478,29768,31172,86935,8371,-4693,-691,-876,456,-79,499,189,501,-183,1,0,57,58,880,1,53298,1
2,30457,29727,31150,86936,8383,-4893,-751,-1186,993,560,709,194,508,-194,1,0,57,58,920,1,53298,1
2,30433,29890,31144,86937,8395,-5218,-1023,-1712,5312,2706,-980,196,506,-192,1,0,57,58,960,1,53298,1
1,30440,29943,31160,86938,7661,-5274,-474,-2078,7640,5777,-1545,203,513,-203,1,0,57,59,0,1,53298,1
2,30450,29926,31150,86939,7661,-5296,-301,-2344,2283,7277,-313,196,512,-210,1,0,57,59,40,1,53298,1
2,30462,29926,31145,86940,7673,-5201,-1256,-2451,40,9463,-454,209,509,-243,1,0,57,59,80,1,53298,1
2,30470,29911,31140,86941,7686,-5410,-1676,-2429,1461,11868,-1136,222,512,-260,1,0,57,59,120,1,53298,1
2,30466,29681,31131,86942,7700,-5342,-1621,-1989,4668,13345,-2117,238,496,-292,1,0,57,59,160,1,53298,1
2,30450,30176,31116,86943,7713,-5174,-1350,-1591,5251,13373,-3272,253,481,-305,1,0,57,59,200,1,53298,1
2,30442,30381,31099,86944,7726,-4874,-1172,-1480,881,11306,-3447,259,469,-313,1,0,57,59,240,1,53298,1
2,30452,30283,31077,86945,7739,-4499,-1415,-1566,-5259,8578,-3061,255,447,-341,1,0,57,59,280,1,53298,1
2,30449,30303,31051,86946,7751,-4227,-1398,-1844,-8176,6843,-3086,253,429,-341,1,0,57,59,320,1,53298,1
2,30449,30496,31035,86947,7764,-3900,-983,-1953,-8160,6047,-3191,259,425,-345,1,0,57,59,360,1,53298,1
2,30447,30332,31025,86948,7777,-3515,-823,-1985,-8392,5605,-2741,259,401,-351,1,0,57,59,400,1,53298,1
2,30449,30348,31006,86949,7789,-2897,-447,-1921,-8275,5416,-1905,262,388,-354,1,0,57,59,440,1,53298,1
2,30473,30434,31030,86950,7801,-2771,-2611,-1463,-8566,5888,-1996,262,374,-372,1,0,57,59,480,1,53298,1
2,30444,30358,31070,86951,7813,-3260,-3430,-2670,-6777,5734,-3775,268,362,-370,1,0,57,59,520,1,53298,1
2,30425,30433,31122,86952,7825,-3499,-2252,-2407,6235,7189,-10571,293,357,-367,1,0,57,59,560,1,53298,1
2,30491,30502,31147,86953,7838,-3239,-766,-1735,10519,6286,-15104,308,336,-362,1,0,57,59,600,1,53298,1
2,30486,30544,31166,86954,7851,-2669,-1063,-964,-2067,2138,-16068,318,316,-360,1,0,57,59,640,1,53298,1
2,30462,30631,31245,86955,7864,-3624,-467,-1659,-3749,1114,-16967,332,296,-352,1,0,57,59,680,1,53298,1
2,30412,30467,31724,86956,7877,-3299,1344,108,5599,-774,-16314,326,288,-348,1,0,57,59,720,1,53298,1
2,30318,30233,34181,86957,7890,-3014,3307,-3358,-3221,-8074,-11610,326,292,-366,1,0,57,59,760,1,53298,1
2,30326,29843,35444,86958,7908,-3780,-459,-10254,-16884,-30823,-7534,330,276,-348,1,0,57,59,800,1,53298,1
2,30354,30291,35092,86959,7929,-2527,-822,-3695,22649,2997,-7774,338,268,-338,1,0,57,59,840,1,53298,1
2,30338,30398,34760,86960,7946,-3438,-1682,-3369,10782,8637,-28,334,270,-338,1,0,57,59,880,1,53298,1
2,30328,29985,34521,86961,7959,-3416,-3282,-3329,4443,8607,1226,352,266,-330,1,0,57,59,920,1,53298,1
2,30340,29913,34117,86962,7971,-3332,-3315,-1961,10803,9193,-3265,347,269,-321,1,0,57,59,960,1,53298,1
1,30328,30132,33597,86963,7210,-2835,-3014,-1534,7044,5771,-5024,357,269,-325,1,0,58,0,0,0,53298,1
2,30332,29935,33095,86964,7223,-2686,-2914,-1919,842,728,-3946,363,265,-321,1,0,58,0,40,0,53298,1
2,30330,30465,32570,86965,7236,-2834,-3052,-2175,-1021,-1663,-3002,360,256,-328,1,0,58,0,80,0,53298,1
2,30340,33327,32362,86966,7250,-2913,-2979,-2250,-2405,-3292,-1705,360,266,-314,1,0,58,0,120,0,53298,1
2,30344,31910,32250,86967,7265,-2939,-3106,-2819,-3577,-4510,-604,355,263,-321,1,0,58,0,160,0,53298,1
2,30355,30490,32180,86968,7280,-2931,-2856,-3000,-2120,-3686,-749,357,249,-319,1,0,58,0,200,0,53298,1
2,30343,30590,32060,86969,7294,-2950,-2599,-3108,-958,-2053,-1047,360,248,-318,1,0,58,0,240,0,53298,1
2,30349,30968,31955,86970,7308,-2954,-2651,-3057,-51,-209,-1212,363,245,-323,1,0,58,0,280,0,53298,1
2,30337,30617,31867,86971,7322,-3060,-2657,-2777,1021,1300,-1437,361,251,-323,1,0,58,0,320,0,53298,1
2,30336,32346,31810,86972,7336,-3060,-2665,-2636,720,1458,-1213,363,249,-321,1,0,58,0,360,0,53298,1
2,30333,31999,31782,86973,7350,-2951,-2750,-2574,720,1052,-582,363,245,-315,1,0,58,0,400,0,53298,1
2,30341,32870,31762,86974,7364,-2844,-2843,-2514,445,530,384,372,240,-314,1,0,58,0,440,0,53298,1
2,30352,32471,31757,86975,7378,-2805,-3023,-2651,353,270,1039,362,242,-314,1,0,58,0,480,0,53298,1
2,30352,32171,31723,86976,7391,-2792,-3042,-2658,561,325,1012,357,249,-313,1,0,58,0,520,0,53298,1
2,30354,32569,31708,86977,7404,-2779,-3015,-2749,545,458,585,356,256,-310,1,0,58,0,560,0,53298,1
2,30357,31290,31686,86978,7418,-2773,-2913,-2723,688,673,68,368,244,-316,1,0,58,0,600,0,53298,1
2,30360,31315,31664,86979,7432,-2803,-2862,-2721,215,780,-39,357,247,-309,1,0,58,0,640,0,53298,1
2,30373,30673,31659,86980,7445,-2765,-2826,-2754,-170,782,195,365,253,-315,1,0,58,0,680,0,53298,1
2,30374,32992,31646,86981,7458,-2749,-2874,-2724,-8,835,499,380,244,-322,1,0,58,0,720,0,53298,1
2,30379,33015,31636,86982,7471,-2750,-2896,-2654,530,932,772,363,245,-321,1,0,58,0,760,0,53298,1
2,30383,33012,31628,86983,7485,-2711,-2957,-2675,630,841,939,365,255,-319,1,0,58,0,800,0,53298,1
2,30393,33271,31627,86984,7498,-2691,-3013,-2737,383,712,857,361,251,-317,1,0,58,0,840,0,53298,1
2,30386,32993,31619,86985,7511,-2674,-2997,-2705,497,643,583,369,251,-321,1,0,58,0,880,0,53298,1
2,30390,32185,31619,86986,7524,-2674,-2962,-2719,359,476,335,367,245,-317,1,0,58,0,920,0,53298,1
2,30398,31816,31609,86987,7524,-2657,-2946,-2771,107,354,213,365,267,-311,1,0,58,0,960,0,53298,1
1,30391,31811,31606,86988,6759,-2649,-2948,-2768,76,370,190,374,258,-312,1,0,58,1,0,1,53298,1
2,30395,32527,31606,86989,6773,-2646,-2932,-2727,252,421,189,372,254,-310,1,0,58,1,40,1,53298,1
2,30396,32795,31605,86990,6788,-2652,-2943,-2713,296,318,224,364,260,-316,1,0,58,1,80,1,53298,1
2,30401,33070,31601,86991,6802,-2656,-2962,-2719,210,164,229,366,248,-316,1,0,58,1,120,1,53298,1
2,30402,32975,31603,86992,6816,-2672,-2972,-2729,125,55,180,360,264,-322,1,0,58,1,160,1,53298,1
2,30400,32976,31600,86993,6830,-2663,-2947,-2741,-27,-44,92,361,255,-311,1,0,58,1,200,1,53298,1
2,30400,33050,31600,86994,6844,-2674,-2938,-2752,-27,-99,5,359,259,-313,1,0,58,1,240,1,53298,1
2,30400,33038,31598,86995,6857,-2695,-2897,-2746,-105,-90,-20,365,269,-313,1,0,58,1,280,1,53298,1
2,30404,33246,31600,86996,6871,-2706,-2902,-2755,-89,-70,-9,364,256,-310,1,0,58,1,320,1,53298,1
2,30399,32900,31588,86997,6885,-2727,-2908,-2742,84,17,25,358,260,-316,1,0,58,1,360,1,53298,1
2,30406,33027,31585,86998,6900,-2727,-2881,-2713,166,71,88,361,249,-317,1,0,58,1,400,1,53298,1
2,30405,32872,31583,86999,6914,-2704,-2902,-2727,20,5,150,375,261,-321,1,0,58,1,440,1,53298,1
2,30398,32916,31589,87000,6928,-2701,-2922,-2735,11,-5,171,363,255,-315,1,0,58,1,480,1,53298,1
2,30410,33043,31587,87001,6943,-2703,-2908,-2752,152,47,165,366,262,-324,1,0,58,1,520,1,53298,1
2,30404,32948,31584,87002,6957,-2713,-2901,-2726,130,65,188,368,258,-310,1,0,58,1,560,1,53298,1
2,30408,33008,31586,87003,6971,-2714,-2909,-2710,84,62,200,362,258,-312,1,0,58,1,600,1,53298,1
2,30407,32987,31580,87004,6985,-2705,-2894,-2732,101,58,218,372,262,-312,1,0,58,1,640,1,53298,1
2,30403,32830,31582,87005,6999,-2701,-2952,-2750,101,106,214,362,260,-318,1,0,58,1,680,1,53298,1
2,30403,32814,31584,87006,7013,-2700,-2889,-2720,250,168,147,368,256,-308,1,0,58,1,720,1,53298,1
2,30403,32665,31581,87007,7027,-2692,-2903,-2730,145,126,182,374,248,-318,1,0,58,1,760,1,53298,1
2,30405,32585,31582,87008,7042,-2685,-2923,-2732,102,100,198,353,249,-325,1,0,58,1,800,1,53298,1
2,30401,32516,31583,87009,7056,-2682,-2921,-2721,117,80,187,369,255,-311,1,0,58,1,840,1,53298,1
2,30401,32242,31580,87010,7071,-2692,-2942,-2740,8,33,190,369,257,-313,1,0,58,1,880,1,53298,1
2,30403,32407,31581,87011,7085,-2707,-2927,-2732,86,63,174,363,253,-321,1,0,58,1,920,1,53298,1
2,30405,32457,31585,87012,7085,-2719,-2900,-2712,131,46,162,363,261,-311,1,0,58,1,960,1,53298,1
1,30404,32574,31580,87013,6308,-2715,-2928,-2746,-16,-40,190,371,261,-315,1,0,58,2,0,1,53298,1
2,30409,32559,31586,87014,6323,-2705,-2914,-2754,95,4,171,367,263,-319,1,0,58,2,40,1,53298,1
2,30405,32713,31587,87015,6338,-2712,-2894,-2746,149,30,167,364,256,-314,1,0,58,2,80,1,53298,1
2,30404,32511,31585,87016,6352,-2708,-2936,-2743,33,35,189,364,262,-320,1,0,58,2,120,1,53298,1
2,30407,32609,31586,87017,6366,-2704,-2916,-2721,77,77,154,354,264,-316,1,0,58,2,160,1,53298,1
2,30402,32588,31585,87018,6379,-2705,-2912,-2725,129,37,126,369,265,-311,1,0,58,2,200,1,53298,1
2,30406,32744,31587,87019,6393,-2704,-2895,-2729,107,9,134,365,263,-317,1,0,58,2,240,1,53298,1
2,30405,32744,31597,87020,6406,-2713,-2901,-2738,87,-10,198,366,254,-324,1,0,58,2,280,1,53298,1
2,30407,32779,31593,87021,6419,-2715,-2919,-2737,119,10,236,367,251,-319,1,0,58,2,320,1,53298,1
2,30405,32808,31592,87022,6433,-2715,-2900,-2732,162,61,229,370,258,-318,1,0,58,2,360,1,53298,1
2,30408,32717,31591,87023,6446,-2720,-2924,-2726,102,64,202,369,263,-319,1,0,58,2,400,1,53298,1
2,30404,32670,31591,87024,6461,-2723,-2902,-2711,124,70,191,361,255,-321,1,0,58,2,440,1,53298,1
2,30407,32782,31593,87025,6475,-2710,-2930,-2733,110,51,202,371,265,-317,1,0,58,2,480,1,53298,1
2,30410,32915,31597,87026,6489,-2734,-2910,-2712,202,95,160,372,262,-314,1,0,58,2,520,1,53298,1
2,30405,32790,31587,87027,6503,-2711,-2919,-2745,64,68,139,370,266,-322,1,0,58,2,560,1,53298,1
2,30407,32841,31592,87028,6517,-2712,-2910,-2737,73,73,113,364,260,-304,1,0,58,2,600,1,53298,1
2,30405,32672,31589,87029,6532,-2716,-2914,-2748,83,59,116,362,276,-324,1,0,58,2,640,1,53298,1
2,30404,32773,31590,87030,6546,-2725,-2910,-2707,122,120,155,368,260,-310,1,0,58,2,680,1,53298,1
2,30406,32835,31590,87031,6561,-2719,-2946,-2720,-47,66,188,369,261,-309,1,0,58,2,720,1,53298,1
2,30406,32790,31590,87032,6575,-2724,-2952,-2720,24,38,98,366,264,-314,1,0,58,2,760,1,53298,1
2,30408,32877,31591,87033,6590,-2723,-2913,-2713,27,-46,42,366,258,-324,1,0,58,2,800,1,53298,1
2,30408,32764,31593,87034,6604,-2723,-2924,-2734,-16,-66,32,364,260,-314,1,0,58,2,840,1,53298,1
2,30407,32824,31595,87035,6618,-2707,-2903,-2723,31,-45,20,367,261,-317,1,0,58,2,880,1,53298,1
2,30404,32893,31593,87036,6633,-2730,-2904,-2741,-31,-45,-5,364,268,-318,1,0,58,2,920,1,53298,1
2,30404,32710,31588,87037,6633,-2728,-2900,-2741,-65,-19,-15,359,259,-315,1,0,58,2,960,1,53298,1
1,30403,32648,31591,87038,5859,-2726,-2893,-2718,18,21,-22,361,259,-311,1,0,58,3,0,0,53298,1
2,30405,32676,31584,87039,5874,-2727,-2911,-2709,35,17,11,370,262,-320,1,0,58,3,40,0,53298,1
2,30404,32720,31590,87040,5889,-2742,-2915,-2724,0,4,40,370,262,-316,1,0,58,3,80,0,53298,1
2,30410,32628,31589,87041,5903,-2728,-2901,-2713,86,-4,64,360,252,-320,1,0,58,3,120,0,53298,1
2,30404,32565,31587,87042,5918,-2717,-2927,-2734,75,-32,114,366,260,-322,1,0,58,3,160,0,53298,1
2,30406,32693,31595,87043,5932,-2733,-2935,-2716,36,-10,75,357,265,-315,1,0,58,3,200,0,53298,1
2,30405,32718,31593,87044,5947,-2729,-2905,-2719,-17,-13,28,371,265,-305,1,0,58,3,240,0,53298,1
2,30404,32725,31593,87045,5961,-2725,-2918,-2714,-36,-16,6,366,258,-322,1,0,58,3,280,0,53298,1
2,30404,32653,31593,87046,5975,-2732,-2891,-2708,23,-29,34,358,258,-316,1,0,58,3,320,0,53298,1
2,30402,32547,31592,87047,5989,-2718,-2915,-2734,-42,-56,75,368,266,-318,1,0,58,3,360,0,53298,1
2,30402,32325,31589,87048,6002,-2723,-2880,-2692,63,-38,89,375,251,-315,1,0,58,3,400,0,53298,1
2,30402,32281,31589,87049,6016,-2743,-2904,-2723,21,-79,151,369,259,-311,1,0,58,3,440,0,53298,1
2,30405,32228,31594,87050,6030,-2738,-2913,-2714,8,-89,139,364,262,-308,1,0,58,3,480,0,53298,1
2,30403,32035,31599,87051,6046,-2759,-2875,-2704,8,-104,159,364,260,-312,1,0,58,3,520,0,53298,1
2,30400,32162,31603,87052,6060,-2737,-2879,-2722,-70,-164,317,370,258,-314,1,0,58,3,560,0,53298,1
2,30402,32132,31605,87053,6075,-2739,-2915,-2712,47,-142,385,361,269,-317,1,0,58,3,600,0,53298,1
2,30403,32249,31610,87054,6088,-2751,-2891,-2720,135,-70,330,355,269,-305,1,0,58,3,640,0,53298,1
2,30394,32244,31613,87055,6101,-2755,-3008,-2692,-68,-94,235,359,265,-305,1,0,58,3,680,0,53298,1
2,30387,32306,31630,87056,6114,-2771,-2702,-2713,-998,-64,192,373,259,-317,1,0,58,3,720,0,53298,1
2,30390,30874,31669,87057,6127,-2837,-2636,-2763,-1052,183,820,382,272,-322,1,0,58,3,760,0,53298,1
2,30390,33415,31695,87058,6140,-2740,-2126,-2859,-741,1051,2536,358,266,-320,1,0,58,3,800,0,53298,1
2,30383,32630,31648,87059,6153,-3173,-896,-3355,748,2756,6142,349,273,-321,1,0,58,3,840,0,53298,1
2,30393,32495,31622,87060,6165,-2935,-1485,-3548,932,3314,9723,353,293,-335,1,0,58,3,880,0,53298,1
2,30373,32189,31546,87061,6178,-2872,313,-3325,-1131,3719,13297,343,307,-339,1,0,58,3,920,0,53298,1
2,30327,31860,31405,87062,6178,-3118,-561,-3435,-3955,3909,16493,326,334,-340,1,0,58,3,960,0,53298,1
1,30285,31645,31323,87063,5409,-3704,-438,-2055,-1944,3820,17523,313,345,-357,1,0,58,4,0,0,53298,1
2,30255,32512,31200,87064,5422,-3913,-155,-716,-5238,1431,17846,292,366,-372,1,0,58,4,40,0,53298,1
2,30255,33200,31083,87065,5434,-3575,-789,492,-10047,-1981,16759,263,387,-381,1,0,58,4,80,0,53298,1
2,30305,32420,31042,87066,5447,-4294,-2459,-186,-17234,-8022,13801,249,401,-369,1,0,58,4,120,0,53298,1
2,30352,33213,31110,87067,5460,-4118,-2439,-1184,-12837,-16853,10491,223,435,-355,1,0,58,4,160,0,53298,1
2,30338,33411,31116,87068,5472,-4238,-2880,-1932,-3544,-20932,6883,205,457,-319,1,0,58,4,200,0,53298,1
2,30278,31185,31078,87069,5485,-4582,-2437,-1782,5654,-20425,3675,198,472,-292,1,0,58,4,240,0,53298,1
2,30302,32674,31186,87070,5498,-4856,-1947,-1539,6665,-20055,1531,194,484,-244,1,0,58,4,280,0,53298,1
2,30309,32181,31124,87071,5511,-5245,-1422,-1780,73,-18496,-35,192,488,-224,1,0,58,4,320,0,53298,1
2,30320,31725,31123,87072,5525,-5970,-1279,-2072,-2948,-15699,-2965,193,489,-199,1,0,58,4,360,0,53298,1
2,30316,31900,31112,87073,5538,-5766,-798,-1442,-2685,-13654,-4804,198,486,-188,1,0,58,4,400,0,53298,1
2,30332,32116,31117,87074,5552,-6342,-535,-1599,-4309,-10869,-5168,205,487,-179,1,0,58,4,440,0,53298,1
2,30408,32460,31143,87075,5565,-5830,-473,-1477,-3740,-8209,-5480,224,492,-180,1,0,58,4,480,0,53298,1
2,30432,31733,31175,87076,5578,-5509,-357,-1125,-1406,-5104,-5485,230,494,-176,1,0,58,4,520,0,53298,1
2,30436,32590,31192,87077,5590,-5101,380,-3235,2959,-42,-3366,221,505,-181,1,0,58,4,560,0,53298,1
2,30443,32538,31193,87078,5603,-4440,505,-971,1907,2654,-1699,222,498,-182,1,0,58,4,600,0,53298,1
2,30476,32712,31210,87079,5616,-4674,-1098,294,-2568,1570,-380,231,501,-187,1,0,58,4,640,0,53298,1
2,30486,32864,31219,87080,5628,-4428,-1452,266,-949,898,-219,216,506,-206,1,0,58,4,680,0,53298,1
2,30498,32862,31219,87081,5640,-4967,-630,-692,-953,983,265,222,504,-196,1,0,58,4,720,0,53298,1
2,30502,33053,31217,87082,5652,-5043,-953,-788,407,1145,-436,229,507,-211,1,0,58,4,760,0,53298,1
2,30496,32933,31217,87083,5665,-4573,-913,-154,671,1384,-988,213,509,-211,1,0,58,4,800,0,53298,1
2,30498,32922,31215,87084,5677,-4553,-872,-137,369,1417,-803,223,509,-211,1,0,58,4,840,0,53298,1
2,30503,32893,31215,87085,5689,-4664,-897,-340,87,1459,-547,218,502,-214,1,0,58,4,880,0,53298,1
2,30507,32941,31216,87086,5701,-4662,-892,-442,134,1208,-471,225,507,-223,1,0,58,4,920,0,53298,1
2,30510,33007,31225,87087,5701,-4625,-916,-363,149,992,-612,223,513,-221,1,0,58,4,960,0,53298,1
1,30510,33015,31224,87088,4959,-4606,-936,-353,98,751,-566,220,514,-220,1,0,58,5,0,1,53298,1
2,30510,32969,31223,87089,4971,-4617,-952,-433,46,490,-402,214,510,-222,1,0,58,5,40,1,53298,1
2,30509,32953,31221,87090,4984,-4622,-958,-400,58,193,-296,217,507,-217,1,0,58,5,80,1,53298,1
2,30511,32933,31228,87091,4996,-4610,-970,-389,45,-2,-150,227,513,-217,1,0,58,5,120,1,53298,1
2,30507,32922,31225,87092,5008,-4613,-957,-367,-28,-131,-10,224,506,-206,1,0,58,5,160,1,53298,1
2,30505,32968,31223,87093,5020,-4622,-961,-387,-11,-225,66,230,510,-214,1,0,58,5,200,1,53298,1
2,30505,32988,31229,87094,5032,-4619,-945,-383,-20,-291,101,220,504,-214,1,0,58,5,240,1,53298,1
2,30505,32941,31227,87095,5043,-4614,-935,-353,-36,-332,109,218,506,-220,1,0,58,5,280,1,53298,1
2,30504,32974,31229,87096,5055,-4630,-946,-362,-36,-374,107,230,512,-212,1,0,58,5,320,1,53298,1
2,30510,32950,31229,87097,5067,-4608,-930,-351,-52,-414,92,218,502,-204,1,0,58,5,360,1,53298,1
2,30508,32967,31230,87098,5079,-4634,-948,-339,-54,-452,89,222,502,-204,1,0,58,5,400,1,53298,1
2,30511,32968,31232,87099,5091,-4625,-936,-314,-64,-452,107,224,512,-216,1,0,58,5,440,1,53298,1
2,30509,32950,31233,87100,5103,-4609,-943,-321,-57,-488,149,231,505,-217,1,0,58,5,480,1,53298,1
2,30505,32949,31233,87101,5114,-4622,-934,-296,-61,-535,176,219,509,-207,1,0,58,5,520,1,53298,1
2,30506,32895,31233,87102,5125,-4620,-928,-290,-44,-543,177,223,503,-213,1,0,58,5,560,1,53298,1
2,30510,32962,31235,87103,5137,-4612,-928,-275,-44,-515,190,223,505,-203,1,0,58,5,600,1,53298,1
2,30510,32927,31233,87104,5150,-4624,-919,-271,-48,-495,176,223,505,-201,1,0,58,5,640,1,53298,1
2,30505,32888,31234,87105,5161,-4624,-915,-263,-45,-430,143,225,501,-207,1,0,58,5,680,1,53298,1
2,30510,32980,31235,87106,5172,-4617,-914,-240,-27,-364,134,225,499,-211,1,0,58,5,720,1,53298,1
2,30511,32969,31237,87107,5184,-4629,-908,-251,-29,-306,121,223,511,-205,1,0,58,5,760,1,53298,1
2,30505,32875,31236,87108,5195,-4628,-910,-239,-10,-223,105,222,510,-204,1,0,58,5,800,1,53298,1
2,30506,32808,31233,87109,5208,-4625,-914,-225,-8,-159,66,221,509,-203,1,0,58,5,840,1,53298,1
2,30507,32777,31236,87110,5220,-4616,-898,-246,-20,-103,38,224,506,-206,1,0,58,5,880,1,53298,1
2,30512,32770,31236,87111,5232,-4620,-904,-243,-15,-41,19,227,501,-213,1,0,58,5,920,1,53298,1
2,30514,32720,31237,87112,5232,-4625,-914,-248,-20,1,-1,233,503,-197,1,0,58,5,960,1,53298,1
1,30516,32769,31235,87113,4510,-4613,-899,-227,-18,49,-17,230,494,-204,1,0,58,6,0,1,53298,1
2,30515,32691,31237,87114,4521,-4623,-910,-250,-12,85,-43,215,501,-199,1,0,58,6,40,1,53298,1
2,30521,32763,31242,87115,4533,-4623,-919,-243,-20,92,-47,212,506,-198,1,0,58,6,80,1,53298,1
2,30531,32777,31245,87116,4546,-4624,-911,-251,-11,84,-38,215,505,-207,1,0,58,6,120,1,53298,1
2,30551,32814,31263,87117,4558,-4630,-920,-247,-17,50,-19,224,506,-212,1,0,58,6,160,1,53298,1
2,30589,32888,31293,87118,4570,-4628,-928,-255,-16,20,-1,227,497,-211,1,0,58,6,200,1,53298,1
2,30611,32923,31314,87119,4584,-4615,-913,-253,-7,-12,17,223,505,-203,1,0,58,6,240,1,53298,1
2,30620,33044,31325,87120,4595,-4622,-911,-238,-8,-29,25,225,503,-201,1,0,58,6,280,1,53298,1
2,30621,33010,31314,87121,4608,-4625,-919,-264,-6,-34,33,226,506,-200,1,0,58,6,320,1,53298,1
2,30625,32973,31324,87122,4620,-4621,-915,-247,-9,-28,20,223,511,-205,1,0,58,6,360,1,53298,1
2,30614,33039,31320,87123,4631,-4618,-908,-229,-12,-17,17,227,505,-209,1,0,58,6,400,1,53298,1
2,30573,32959,31281,87124,4643,-4619,-911,-257,-13,-6,20,225,505,-205,1,0,58,6,440,1,53298,1
2,30567,33030,31279,87125,4656,-4612,-915,-249,-6,-1,17,221,497,-201,1,0,58,6,480,1,53298,1
2,30558,32995,31273,87126,4667,-4632,-924,-255,-7,-2,11,230,508,-200,1,0,58,6,520,1,53298,1
2,30545,32948,31265,87127,4679,-4634,-927,-245,-7,-4,11,219,497,-201,1,0,58,6,560,1,53298,1
2,30533,32919,31254,87128,4691,-4611,-909,-252,-5,-17,17,228,500,-196,1,0,58,6,600,1,53298,1
2,30520,32889,31245,87129,4703,-4634,-930,-257,-5,-16,6,222,510,-202,1,0,58,6,640,1,53298,1
2,30519,32936,31248,87130,4715,-4607,-900,-245,-5,-27,21,216,504,-200,1,0,58,6,680,1,53298,1
2,30516,32946,31244,87131,4727,-4622,-910,-255,3,-18,3,217,505,-201,1,0,58,6,720,1,53298,1
2,30516,33026,31243,87132,4739,-4630,-920,-255,9,-15,11,225,505,-201,1,0,58,6,760,1,53298,1
2,30509,33071,31238,87133,4752,-4658,-913,-258,85,-39,40,220,506,-206,1,0,58,6,800,1,53298,1
2,30493,33029,31228,87134,4765,-4628,-928,-271,376,-34,80,230,500,-204,1,0,58,6,840,1,53298,1
2,30474,32967,31211,87135,4778,-4748,-921,-409,443,-98,121,228,508,-200,1,0,58,6,880,1,53298,1
2,30476,32692,31180,87136,4790,-4786,-1100,-665,694,-266,416,225,499,-201,1,0,58,6,920,1,53298,1
2,30815,32901,31320,87137,4790,-4642,-1038,-937,1328,-307,616,229,503,-201,1,0,58,6,960,1,53298,1
1,30580,33420,31317,87138,4061,-4810,-445,-1274,3596,1507,1182,223,499,-201,1,0,58,7,0,1,53298,1
2,30401,32789,31208,87139,4074,-5446,-265,-1464,3785,4531,2043,223,491,-211,1,0,58,7,40,1,53298,1
2,30389,31950,31191,87140,4088,-5867,-609,-1635,1724,6815,2384,210,500,-204,1,0,58,7,80,1,53298,1
2,30391,31531,31183,87141,4102,-5836,-864,-1592,1801,8626,1770,226,492,-216,1,0,58,7,120,1,53298,1
2,30395,32952,31172,87142,4116,-5634,-970,-1672,636,10132,1644,227,499,-239,1,0,58,7,160,1,53298,1
2,30384,32961,31173,87143,4130,-5464,-1065,-1716,572,11362,1379,231,483,-251,1,0,58,7,200,1,53298,1
2,30456,32237,31198,87144,4143,-5397,-1096,-1831,29,12335,1130,230,482,-270,1,0,58,7,240,1,53298,1
2,30585,32784,31179,87145,4156,-5192,-1020,-1869,-1875,12773,1149,224,472,-300,1,0,58,7,280,1,53298,1
2,30401,32182,31126,87146,4170,-4960,-985,-1809,-3815,13012,1052,231,453,-319,1,0,58,7,320,1,53298,1
2,30725,32739,31308,87147,4182,-4701,-1019,-1768,-5168,12755,848,222,436,-330,1,0,58,7,360,1,53298,1
2,30542,33436,31404,87148,4195,-4251,-1886,-1922,-6107,12379,268,225,415,-353,1,0,58,7,400,1,53298,1
2,30288,31892,31070,87149,4207,-3600,-2059,-1671,-5519,12857,-898,234,396,-368,1,0,58,7,440,1,53298,1
2,30340,32566,31155,87150,4219,-3551,-2710,-1510,-5772,13787,-3884,244,386,-378,1,0,58,7,480,1,53298,1
2,30164,31374,31121,87151,4231,-3102,-3639,-2253,-196,11413,-6397,262,370,-376,1,0,58,7,520,1,53298,1
2,30177,30487,31160,87152,4243,-3117,-2172,-198,7429,10752,-11807,281,347,-365,1,0,58,7,560,1,53298,1
2,30199,30604,31166,87153,4255,-3387,-85,-580,7052,7221,-16566,302,326,-378,1,0,58,7,600,1,53298,1
2,30233,31309,31179,87154,4267,-3159,783,-398,-1530,937,-18289,309,303,-373,1,0,58,7,640,1,53298,1
2,30151,30851,31268,87155,4278,-3203,1243,-995,-3452,-2413,-16832,314,304,-362,1,0,58,7,680,1,53298,1
2,30029,30743,32135,87156,4290,-3134,1578,-1238,1022,-6752,-11894,324,308,-354,1,0,58,7,720,1,53298,1
2,30047,31229,33675,87157,4305,-2526,831,-5957,-1135,-14679,-6162,318,310,-348,1,0,58,7,760,1,53298,1
2,30073,31922,33951,87158,4319,-2924,-278,-5927,9907,-16572,-520,318,314,-330,1,0,58,7,800,1,53298,1
2,30097,29942,33253,87159,4332,-3398,-1370,-3769,19999,-92,2397,334,314,-330,1,0,58,7,840,1,53298,1
2,30123,30939,32486,87160,4344,-3659,-1535,-2795,6321,6268,1895,346,316,-334,1,0,58,7,880,1,53298,1
2,30159,29820,32008,87161,4357,-3792,-3811,-3020,-1086,7347,-1564,346,304,-332,1,0,58,7,920,1,53298,1
2,30253,31489,31782,87162,4357,-3488,-3818,-2222,4945,7721,-4481,350,298,-316,1,0,58,7,960,1,53298,1
1,30220,29735,31700,87163,3611,-3480,-3070,-1741,4773,6380,-5966,353,285,-325,1,0,58,8,0,0,53298,1
2,30210,30001,31591,87164,3624,-3095,-2652,-2067,2425,3313,-6168,363,283,-319,1,0,58,8,40,0,53298,1
2,30224,32119,31544,87165,3638,-3025,-2363,-2373,577,-100,-4964,357,279,-317,1,0,58,8,80,0,53298,1
2,30266,29820,31564,87166,3652,-3108,-2528,-2596,-955,-2512,-3088,356,282,-326,1,0,58,8,120,0,53298,1
2,30256,29759,31565,87167,3667,-2995,-2409,-2901,-1960,-3101,-1590,368,286,-322,1,0,58,8,160,0,53298,1
2,30215,30975,31535,87168,3681,-2912,-2217,-3093,-1642,-2215,-306,363,281,-325,1,0,58,8,200,0,53298,1
2,30228,30604,31511,87169,3694,-2976,-2414,-3054,-498,-790,719,359,283,-319,1,0,58,8,240,0,53298,1
2,30207,31109,31475,87170,3707,-3041,-2522,-2908,917,653,927,361,285,-317,1,0,58,8,280,0,53298,1
2,30220,33077,31454,87171,3721,-3057,-2535,-2771,1203,1311,507,362,284,-324,1,0,58,8,320,0,53298,1
2,30218,32647,31428,87172,3734,-3092,-2703,-2661,51,1157,103,355,281,-317,1,0,58,8,360,0,53298,1
2,30225,33062,31424,87173,3747,-3038,-2762,-2641,56,1106,-437,361,281,-325,1,0,58,8,400,0,53298,1
2,30203,30915,31412,87174,3760,-2949,-2642,-2645,393,900,-828,358,276,-332,1,0,58,8,440,0,53298,1
2,30198,30189,31399,87175,3773,-2927,-2630,-2690,66,605,-741,362,276,-330,1,0,58,8,480,0,53298,1
2,30187,31727,31387,87176,3786,-2893,-2558,-2719,17,464,-399,359,281,-327,1,0,58,8,520,0,53298,1
2,30195,30302,31389,87177,3798,-2887,-2570,-2778,-215,206,-20,364,280,-326,1,0,58,8,560,0,53298,1
2,30170,31845,31389,87178,3810,-2887,-2669,-2824,-35,167,386,364,280,-336,1,0,58,8,600,0,53298,1
2,30175,32507,31408,87179,3822,-2877,-2599,-2799,397,194,523,361,279,-329,1,0,58,8,640,0,53298,1
2,30180,31394,31392,87180,3835,-2846,-2704,-2838,223,106,596,367,279,-323,1,0,58,8,680,0,53298,1
2,30161,31940,31395,87181,3848,-2843,-2665,-2813,610,320,495,360,272,-324,1,0,58,8,720,0,53298,1
2,30155,31745,31397,87182,3860,-2853,-2640,-2800,356,250,420,371,281,-323,1,0,58,8,760,0,53298,1
2,30158,31581,31393,87183,3873,-2851,-2724,-2841,18,228,380,358,288,-324,1,0,58,8,800,0,53298,1
2,30204,31518,31396,87184,3886,-2863,-2677,-2771,261,305,307,360,284,-320,1,0,58,8,840,0,53298,1
2,30183,30694,31410,87185,3899,-2855,-2673,-2761,223,159,284,363,287,-321,1,0,58,8,880,0,53298,1
2,30201,30371,31408,87186,3912,-2834,-2644,-2798,182,61,236,363,289,-321,1,0,58,8,920,0,53298,1
2,30201,30374,31411,87187,3912,-2840,-2661,-2835,73,19,214,354,282,-328,1,0,58,8,960,0,53298,1
1,30207,29770,31421,87188,3164,-2837,-2639,-2846,81,59,167,355,275,-321,1,0,58,9,0,1,53298,1
2,30195,29737,31425,87189,3176,-2846,-2665,-2844,5,137,106,360,288,-324,1,0,58,9,40,1,53298,1
2,30200,29783,31425,87190,3189,-2852,-2665,-2787,119,166,69,369,283,-329,1,0,58,9,80,1,53298,1
2,30201,29815,31426,87191,3202,-2846,-2660,-2804,117,106,77,360,280,-332,1,0,58,9,120,1,53298,1
2,30185,30137,31415,87192,3216,-2849,-2639,-2794,49,67,101,362,288,-322,1,0,58,9,160,1,53298,1
2,30190,30065,31414,87193,3228,-2845,-2686,-2803,-21,29,40,358,292,-322,1,0,58,9,200,1,53298,1
2,30178,30655,31403,87194,3241,-2850,-2641,-2783,160,5,45,365,281,-325,1,0,58,9,240,1,53298,1
2,30172,30582,31406,87195,3253,-2854,-2642,-2806,52,-25,33,366,284,-328,1,0,58,9,280,1,53298,1
2,30174,31083,31404,87196,3267,-2868,-2671,-2821,-111,-52,33,364,286,-322,1,0,58,9,320,1,53298,1
2,30145,31306,31401,87197,3280,-2859,-2646,-2808,17,-3,-10,365,277,-331,1,0,58,9,360,1,53298,1
2,30157,31035,31399,87198,3293,-2869,-2625,-2826,47,10,-22,367,279,-323,1,0,58,9,400,1,53298,1
2,30161,30708,31393,87199,3306,-2847,-2636,-2826,94,54,8,364,280,-328,1,0,58,9,440,1,53298,1
2,30156,30606,31398,87200,3320,-2856,-2600,-2790,125,47,17,358,280,-328,1,0,58,9,480,1,53298,1
2,30160,30537,31401,87201,3333,-2856,-2685,-2829,-85,-9,57,365,279,-317,1,0,58,9,520,1,53298,1
2,30152,30738,31404,87202,3346,-2856,-2654,-2804,98,48,14,361,285,-329,1,0,58,9,560,1,53298,1
2,30130,30738,31399,87203,3359,-2849,-2638,-2808,132,63,11,360,280,-324,1,0,58,9,600,1,53298,1
2,30150,30573,31395,87204,3372,-2855,-2656,-2823,95,54,28,366,280,-320,1,0,58,9,640,1,53298,1
2,30152,30852,31397,87205,3385,-2872,-2667,-2788,-8,38,35,359,281,-325,1,0,58,9,680,1,53298,1
2,30110,31017,31393,87206,3397,-2847,-2663,-2806,6,14,21,355,283,-331,1,0,58,9,720,1,53298,1
2,30155,31633,31395,87207,3411,-2840,-2631,-2800,32,-23,15,358,284,-320,1,0,58,9,760,1,53298,1
2,30148,32428,31387,87208,3424,-2858,-2688,-2817,-85,-33,33,358,280,-328,1,0,58,9,800,1,53298,1
2,30134,32740,31390,87209,3438,-2845,-2630,-2813,153,26,-6,361,285,-327,1,0,58,9,840,1,53298,1
2,30134,32848,31389,87210,3452,-2842,-2668,-2802,24,38,38,364,284,-326,1,0,58,9,880,1,53298,1
2,30142,32317,31386,87211,3465,-2838,-2658,-2791,-13,40,15,358,282,-324,1,0,58,9,920,1,53298,1
2,30115,32378,31389,87212,3465,-2854,-2668,-2805,20,16,-7,363,287,-317,1,0,58,9,960,1,53298,1
1,30145,32223,31387,87213,2715,-2835,-2620,-2786,47,217,24,359,279,-319,1,0,58,10,0,1,53298,1
2,30127,32020,31386,87214,2729,-2868,-2698,-2823,-72,-229,4,350,284,-328,1,0,58,10,40,1,53298,1
2,30135,31869,31384,87215,2743,-2858,-2646,-2792,56,252,4,363,279,-321,1,0,58,10,80,1,53298,1
2,30132,31762,31384,87216,2756,-2847,-2639,-2807,63,-2,39,358,280,-322,1,0,58,10,120,1,53298,1
2,30120,31994,31384,87217,2769,-2858,-2662,-2803,70,-244,80,357,287,-325,1,0,58,10,160,1,53298,1
2,30120,32013,31389,87218,2782,-2864,-2653,-2774,109,208,116,358,280,-324,1,0,58,10,200,1,53298,1
2,30128,32117,31389,87219,2795,-2847,-2665,-2799,42,-48,151,363,279,-321,1,0,58,10,240,1,53298,1
2,30124,32030,31394,87220,2808,-2876,-2632,-2773,73,-97,372,359,281,-323,1,0,58,10,280,1,53298,1
2,30142,32302,31404,87221,2822,-2881,-2617,-2798,-52,-170,645,360,296,-328,1,0,58,10,320,1,53298,1
2,30135,32116,31412,87222,2834,-2878,-2572,-2758,281,-113,755,348,280,-314,1,0,58,10,360,1,53298,1
2,30105,32158,31437,87223,2847,-2852,-2832,-2805,151,-244,1005,363,291,-331,1,0,58,10,400,1,53298,1
2,30105,31754,31461,87224,2859,-2977,-2277,-3041,-1139,30,2790,357,291,-321,1,0,58,10,440,1,53298,1
2,30096,31684,31474,87225,2871,-2867,-1796,-3068,1204,1244,4797,351,293,-333,1,0,58,10,480,1,53298,1
2,30080,31070,31496,87226,2883,-2993,-2011,-2753,2454,1481,5923,354,304,-324,1,0,58,10,520,1,53298,1
2,30012,31265,31488,87227,2896,-3046,-1976,-2942,648,925,6127,347,301,-331,1,0,58,10,560,1,53298,1
2,29960,31637,31462,87228,2909,-3003,-1959,-3116,-1351,626,6325,339,317,-337,1,0,58,10,600,1,53298,1
2,29283,30275,31412,87229,2922,-3025,-1745,-3125,-1175,1473,6764,339,321,-333,1,0,58,10,640,1,53298,1
2,28781,32889,31354,87230,2935,-3176,-1474,-3113,-915,2253,7453,336,334,-340,1,0,58,10,680,1,53298,1
2,29551,32771,31284,87231,2948,-3261,-1059,-2833,-763,2484,8623,322,344,-348,1,0,58,10,720,1,53298,1
2,29316,32675,31241,87232,2961,-3353,-1300,-2629,-2289,1885,9597,327,351,-361,1,0,58,10,760,1,53298,1
2,28773,32529,31185,87233,2974,-3453,-882,-2184,-2601,1041,10644,316,364,-362,1,0,58,10,800,1,53298,1
2,28040,32526,31128,87234,2985,-3210,-786,-1343,-4398,-999,11930,289,373,-373,1,0,58,10,840,1,53298,1
2,28445,32589,31075,87235,2997,-3124,-808,-698,-9137,-3476,12202,260,384,-370,1,0,58,10,880,1,53298,1
2,29560,32317,31081,87236,3008,-3704,-1397,-918,-14434,-5506,8475,247,409,-373,1,0,58,10,920,1,53298,1
2,27856,32138,31049,87237,3008,-4490,-1789,-1698,-15400,-8913,4780,224,426,-350,1,0,58,10,960,1,53298,1
1,28106,32736,31047,87238,2267,-4047,-1780,-2469,-1995,-16702,3086,216,452,-328,1,0,58,11,0,0,53298,1
2,28422,32120,31088,87239,2279,-3973,-1712,-2042,5360,-15754,2337,213,463,-311,1,0,58,11,40,0,53298,1
2,28422,31865,31118,87240,2291,-4228,-1179,-1574,7545,-15521,2559,213,471,-283,1,0,58,11,80,0,53298,1
2,28221,31999,31127,87241,2303,-4771,-997,-1528,637,-15376,323,200,472,-256,1,0,58,11,120,0,53298,1
2,27942,31905,31111,87242,2315,-5132,-1167,-1930,-3811,-14556,-2398,207,475,-239,1,0,58,11,160,0,53298,1
2,28875,31852,31102,87243,2327,-4934,-846,-1396,-3299,-12998,-3534,202,480,-218,1,0,58,11,200,0,53298,1
2,28197,31909,31110,87244,2340,-5368,-657,-1657,-2551,-10801,-3697,200,474,-198,1,0,58,11,240,0,53298,1
2,28268,31885,31102,87245,2351,-4709,-607,-1185,-665,-7893,-3612,195,475,-185,1,0,58,11,280,0,53298,1
2,28024,31962,31111,87246,2364,-5443,-877,-1345,983,-5569,-3642,195,479,-175,1,0,58,11,320,0,53298,1
2,27727,32078,31102,87247,2376,-4994,-208,-1116,984,-3992,-2955,205,497,-179,1,0,58,11,360,0,53298,1
2,27710,32234,31112,87248,2388,-5049,-482,-691,129,-3409,-1934,194,490,-174,1,0,58,11,400,0,53298,1
2,27706,32090,31108,87249,2400,-5176,-599,-860,-4558,-835,-1702,195,491,-163,1,0,58,11,440,0,53298,1
2,27690,32112,31140,87250,2412,-4178,-1707,-2062,-3068,3077,-432,191,495,-191,1,0,58,11,480,0,53298,1
2,27752,32136,31172,87251,2423,-4912,-961,-65,1741,854,188,202,498,-192,1,0,58,11,520,0,53298,1
2,27659,32258,31180,87252,2434,-4695,-909,-341,-1568,554,435,194,502,-192,1,0,58,11,560,0,53298,1
2,27629,32342,31180,87253,2446,-5289,-235,-608,-151,780,-463,195,507,-203,1,0,58,11,600,0,53298,1
2,27528,32358,31169,87254,2457,-4847,-941,-537,1210,1109,-545,203,513,-199,1,0,58,11,640,0,53298,1
2,27579,32515,31177,87255,2470,-4512,-876,-63,557,954,-199,198,510,-200,1,0,58,11,680,0,53298,1
2,27591,32685,31179,87256,2482,-4594,-818,-98,98,821,128,195,511,-199,1,0,58,11,720,0,53298,1
2,27635,32780,31171,87257,2495,-4693,-859,-352,301,436,178,199,505,-207,1,0,58,11,760,0,53298,1
2,27553,32956,31175,87258,2507,-4663,-819,-336,382,-10,78,193,507,-211,1,0,58,11,800,0,53298,1
2,27419,33029,31177,87259,2520,-4651,-828,-229,156,-233,88,194,510,-212,1,0,58,11,840,0,53298,1
2,27515,32896,31180,87260,2532,-4631,-806,-241,-34,-392,68,192,506,-202,1,0,58,11,880,0,53298,1
2,27489,32929,31184,87261,2544,-4648,-837,-255,-23,-478,49,201,507,-199,1,0,58,11,920,0,53298,1
2,27417,33002,31183,87262,2544,-4630,-812,-195,20,-442,96,187,515,-205,1,0,58,11,960,0,53298,1
1,27626,33042,31182,87263,1819,-4629,-824,-183,-10,-403,169,194,518,-200,1,0,58,12,0,1,53298,1
2,27579,32954,31184,87264,1831,-4636,-828,-210,22,-391,227,193,515,-199,1,0,58,12,40,1,53298,1
2,27306,32809,31185,87265,1843,-4647,-829,-189,67,-411,217,190,506,-188,1,0,58,12,80,1,53298,1
2,27302,32751,31181,87266,1854,-4638,-806,-179,6,-498,204,197,513,-191,1,0,58,12,120,1,53298,1
2,27353,32797,31183,87267,1867,-4633,-816,-180,-28,-559,164,197,507,-205,1,0,58,12,160,1,53298,1
2,27330,32765,31183,87268,1879,-4632,-810,-161,34,-553,155,201,507,-195,1,0,58,12,200,1,53298,1
2,27268,32765,31190,87269,1891,-4635,-790,-139,102,-516,173,185,509,-193,1,0,58,12,240,1,53298,1
2,27228,32754,31186,87270,1903,-4630,-803,-135,6,-496,215,198,500,-198,1,0,58,12,280,1,53298,1
2,27243,32740,31184,87271,1915,-4640,-782,-105,48,-393,211,195,499,-199,1,0,58,12,320,1,53298,1
2,27289,32794,31186,87272,1928,-4644,-778,-112,24,-338,205,191,501,-193,1,0,58,12,360,1,53298,1
2,27316,32773,31190,87273,1940,-4633,-783,-95,-1,-284,163,188,502,-190,1,0,58,12,400,1,53298,1
2,27397,32805,31186,87274,1952,-4635,-774,-89,-30,-261,121,196,510,-194,1,0,58,12,440,1,53298,1
2,27515,32800,31183,87275,1964,-4639,-781,-79,-23,-221,80,190,508,-194,1,0,58,12,480,1,53298,1
2,27490,32810,31183,87276,1976,-4626,-772,-100,1,-157,56,197,509,-185,1,0,58,12,520,1,53298,1
2,27568,32774,31181,87277,1988,-4630,-772,-64,2,-101,49,193,511,-179,1,0,58,12,560,1,53298,1
2,27448,32854,31187,87278,2000,-4625,-772,-79,-12,-50,30,191,509,-191,1,0,58,12,600,1,53298,1
2,27484,32879,31184,87279,2012,-4643,-774,-70,-11,-11,11,193,501,-191,1,0,58,12,640,1,53298,1
2,28029,32842,31186,87280,2024,-4635,-769,-81,-14,20,-5,195,511,-191,1,0,58,12,680,1,53298,1
2,27774,32823,31183,87281,2036,-4628,-773,-78,-15,36,-10,194,516,-196,1,0,58,12,720,1,53298,1
2,28050,32789,31179,87282,2048,-4637,-783,-90,-10,35,-9,191,501,-199,1,0,58,12,760,1,53298,1
2,28065,32785,31180,87283,2060,-4632,-764,-74,-17,21,-12,195,507,-195,1,0,58,12,800,1,53298,1
2,28282,32674,31180,87284,2073,-4634,-773,-74,-18,3,2,186,506,-188,1,0,58,12,840,1,53298,1
2,28545,32681,31179,87285,2086,-4636,-774,-88,-14,-13,18,190,510,-194,1,0,58,12,880,1,53298,1
2,28847,32670,31183,87286,2099,-4644,-794,-83,-4,-27,24,191,507,-181,1,0,58,12,920,1,53298,1
2,28940,32669,31187,87287,2099,-4641,-779,-86,-8,-32,32,194,508,-194,1,0,58,12,960,1,53298,1
1,28780,32656,31184,87288,1371,-4642,-780,-83,0,-25,23,198,502,-190,1,0,58,13,0,1,53298,1
2,28966,32612,31184,87289,1383,-4637,-776,-75,-1,-16,22,196,506,-186,1,0,58,13,40,1,53298,1
2,28880,32621,31181,87290,1395,-4630,-763,-81,-8,-14,3,193,507,-191,1,0,58,13,80,1,53298,1
2,28760,32567,31180,87291,1407,-4644,-778,-78,-16,-3,-1,191,507,-195,1,0,58,13,120,1,53298,1
2,28898,32597,31185,87292,1419,-4647,-773,-90,-14,-1,6,183,515,-189,1,0,58,13,160,1,53298,1
2,28942,32587,31183,87293,1432,-4628,-779,-93,-13,-11,11,191,503,-191,1,0,58,13,200,1,53298,1
2,28770,32583,31184,87294,1444,-4653,-781,-92,-8,-19,23,187,501,-187,1,0,58,13,240,1,53298,1
2,28583,32569,31183,87295,1456,-4640,-781,-72,-5,-28,23,187,513,-191,1,0,58,13,280,1,53298,1
2,28643,32595,31181,87296,1468,-4642,-785,-69,-11,-22,30,196,502,-194,1,0,58,13,320,1,53298,1
2,28783,32549,31181,87297,1480,-4638,-778,-68,-11,-24,22,185,509,-187,1,0,58,13,360,1,53298,1
2,29114,32565,31184,87298,1492,-4634,-773,-75,-6,-12,32,186,508,-186,1,0,58,13,400,1,53298,1
2,29132,32557,31186,87299,1504,-4643,-782,-88,10,-21,50,190,506,-186,1,0,58,13,440,1,53298,1
2,28906,32525,31180,87300,1516,-4640,-769,-96,12,-18,43,188,510,-188,1,0,58,13,480,1,53298,1
2,29097,32509,31183,87301,1526,-4651,-782,-95,35,-23,26,188,506,-186,1,0,58,13,520,1,53298,1
2,28795,32529,31180,87302,1537,-4652,-785,-105,92,-8,4,197,497,-199,1,0,58,13,560,1,53298,1
2,28802,32508,31174,87303,1549,-4642,-782,-160,208,118,-47,196,498,-192,1,0,58,13,600,1,53298,1
2,28845,32606,31166,87304,1560,-4707,-767,-137,709,210,128,191,503,-185,1,0,58,13,640,1,53298,1
2,28633,32925,31136,87305,1573,-4893,-808,-307,1356,261,365,193,513,-189,1,0,58,13,680,1,53298,1
2,28658,31341,31100,87306,1586,-5491,-1096,-1453,4396,1139,563,196,498,-192,1,0,58,13,720,1,53298,1
2,30200,32421,31167,87307,1600,-5876,-946,-1959,5768,4581,1621,199,499,-185,1,0,58,13,760,1,53298,1
2,30224,31430,31218,87308,1613,-5926,-440,-1601,1761,8801,3369,207,487,-191,1,0,58,13,800,1,53298,1
2,30216,31230,31204,87309,1625,-5903,-381,-2803,734,12089,2250,215,481,-209,1,0,58,13,840,1,53298,1
2,30218,31625,31192,87310,1637,-5393,-586,-1895,-355,15895,1895,214,488,-232,1,0,58,13,880,1,53298,1
2,30217,31539,31180,87311,1649,-5421,-437,-1570,-2598,17500,2023,219,491,-251,1,0,58,13,920,1,53298,1
2,30172,31125,31156,87312,1649,-5405,-438,-1200,-5505,16996,2842,218,482,-278,1,0,58,13,960,1,53298,1
1,30211,30970,31148,87313,924,-5077,-1275,-1037,-6211,15739,3338,219,467,-301,1,0,58,14,0,0,53298,1
2,30207,32511,31130,87314,936,-4794,-1421,-1198,-3507,14290,2640,212,450,-330,1,0,58,14,40,0,53298,1
2,30183,31013,31129,87315,948,-4536,-1286,-1389,-2290,12653,975,208,436,-344,1,0,58,14,80,0,53298,1
2,30171,30641,31120,87316,960,-4219,-1332,-1674,-4146,11149,-1191,215,423,-357,1,0,58,14,120,0,53298,1
2,30172,32757,31102,87317,972,-3643,-2282,-1760,-2837,10487,-4049,220,392,-360,1,0,58,14,160,0,53298,1
2,30161,32192,31105,87318,984,-3155,-2227,-1750,1172,10097,-7169,234,384,-374,1,0,58,14,200,0,53298,1
2,30171,30975,31135,87319,997,-3113,-2309,-1294,3956,9019,-10950,253,363,-383,1,0,58,14,240,0,53298,1
2,30165,30668,31146,87320,1010,-2678,-1109,-1197,3644,6292,-13778,268,356,-388,1,0,58,14,280,0,53298,1
2,30162,30683,31160,87321,1023,-2695,-182,-1242,737,2844,-14693,273,337,-381,1,0,58,14,320,0,53298,1
2,30178,30786,31180,87322,1035,-2908,257,-1512,-365,-291,-13508,291,319,-377,1,0,58,14,360,0,53298,1
2,30188,30735,31225,87323,1047,-2798,792,-1735,1015,-3667,-10469,306,318,-376,1,0,58,14,400,0,53298,1
2,30186,30855,31401,87324,1059,-2755,842,-2985,2082,-6688,-6963,311,313,-369,1,0,58,14,440,0,53298,1
2,30206,32947,31923,87325,1073,-3099,680,-5384,5270,-11058,-2802,322,322,-368,1,0,58,14,480,0,53298,1
2,30184,32991,32089,87326,1087,-3116,-747,-4335,14586,-4114,-2069,330,316,-346,1,0,58,14,520,0,53298,1
2,30161,32965,31926,87327,1101,-3133,-1242,-3468,9225,3316,-916,336,326,-338,1,0,58,14,560,0,53298,1
2,30185,32930,31734,87328,1115,-3772,-1379,-3570,-1250,3367,-560,334,312,-336,1,0,58,14,600,0,53298,1
2,30207,32953,31593,87329,1129,-3853,-2832,-2879,290,4905,-2297,336,316,-344,1,0,58,14,640,0,53298,1
2,30239,32941,31480,87330,1143,-3445,-2891,-2428,1039,5203,-3812,341,313,-343,1,0,58,14,680,0,53298,1
2,30270,32948,31423,87331,1156,-3330,-2515,-2348,1472,4001,-4171,346,300,-330,1,0,58,14,720,0,53298,1
2,30292,32970,31384,87332,1170,-3189,-1992,-2327,875,1831,-3432,353,297,-349,1,0,58,14,760,0,53298,1
2,30312,32940,31361,87333,1185,-3147,-1992,-2617,-571,-458,-1943,346,292,-344,1,0,58,14,800,0,53298,1
2,30310,32921,31358,87334,1198,-3108,-2209,-2769,-889,-1833,-801,348,294,-342,1,0,58,14,840,0,53298,1
2,30317,32998,31370,87335,1212,-3093,-2084,-2927,-1595,-2683,-19,347,301,-349,1,0,58,14,880,0,53298,1
2,30340,33091,31378,87336,1226,-3093,-1982,-3107,-2127,-2848,398,355,299,-349,1,0,58,14,920,0,53298,1
2,30346,33145,31382,87337,1226,-3049,-2117,-3165,-1326,-1772,216,351,287,-339,1,0,58,14,960,0,53298,1
1,30354,33223,31379,87338,477,-3166,-2071,-3108,-532,-567,-126,348,296,-340,1,0,58,15,0,1,53298,1
2,30358,33286,31379,87339,491,-3153,-2041,-2995,-61,266,-433,346,298,-342,1,0,58,15,40,1,53298,1
2,30365,33313,31369,87340,506,-3153,-1999,-2858,138,604,-514,346,296,-344,1,0,58,15,80,1,53298,1
2,30370,33308,31367,87341,520,-3123,-2060,-2843,-144,374,-320,348,298,-348,1,0,58,15,120,1,53298,1
2,30359,33307,31364,87342,535,-3095,-2023,-2858,211,159,-116,348,302,-344,1,0,58,15,160,1,53298,1
2,30356,33322,31367,87343,549,-3315,-2041,-2918,105,-121,162,342,300,-338,1,0,58,15,200,1,53298,1
2,30353,33316,31365,87344,564,-3049,-2116,-3012,-13,-149,319,343,303,-351,1,0,58,15,240,1,53298,1
2,30346,33335,31370,87345,579,-3048,-2153,-2996,292,109,334,342,290,-344,1,0,58,15,280,1,53298,1
2,30341,33320,31369,87346,593,-3062,-2147,-2942,476,346,283,352,304,-348,1,0,58,15,320,1,53298,1
2,30343,33343,31375,87347,607,-3070,-2122,-2907,332,317,260,353,299,-341,1,0,58,15,360,1,53298,1
2,30347,33349,31373,87348,621,-3039,-2142,-2906,66,96,234,349,303,-341,1,0,58,15,400,1,53298,1
2,30329,33360,31379,87349,636,-3018,-2102,-2961,-25,-81,223,352,306,-344,1,0,58,15,440,1,53298,1
2,30333,33355,31381,87350,650,-3024,-2143,-2993,73,-101,251,351,297,-339,1,0,58,15,480,1,53298,1
2,30317,33349,31378,87351,664,-3054,-2133,-2976,211,37,251,353,299,-349,1,0,58,15,520,1,53298,1
2,30323,33348,31387,87352,679,-3026,-2121,-2953,145,63,212,338,298,-348,1,0,58,15,560,1,53298,1
2,30332,33340,31386,87353,693,-3019,-2138,-2950,30,62,145,345,295,-349,1,0,58,15,600,1,53298,1
2,30325,33345,31386,87354,707,-3019,-2155,-2936,11,65,100,349,297,-343,1,0,58,15,640,1,53298,1
2,30307,33333,31381,87355,721,-3025,-2140,-2941,75,54,44,344,294,-346,1,0,58,15,680,1,53298,1
2,30329,33331,31381,87356,735,-3028,-2127,-2937,46,-54,2,347,301,-341,1,0,58,15,720,1,53298,1
2,30334,33318,31386,87357,748,-3022,-2136,-2943,-130,-144,-9,342,306,-342,1,0,58,15,760,1,53298,1
2,30319,33270,31382,87358,761,-3052,-2107,-2951,-250,-172,-58,347,295,-347,1,0,58,15,800,1,53298,1
2,30310,33242,31379,87359,775,-3035,-2103,-2958,-126,-95,-72,351,305,-349,1,0,58,15,840,1,53298,1
2,30305,33243,31374,87360,789,-3054,-2080,-2957,-39,-3,-62,354,298,-340,1,0,58,15,880,1,53298,1
2,30292,33238,31378,87361,802,-3063,-2063,-2950,77,33,-29,353,301,-345,1,0,58,15,920,1,53298,1
2,30296,33278,31370,87362,802,-3050,-2070,-2966,37,53,68,355,301,-337,1,0,58,15,960,1,53298,1
1,30288,33252,31365,87363,29,-3078,-2077,-2937,206,144,126,353,305,-335,1,0,58,16,0,0,53298,1
1,30291,33246,31364,87364,43,-3088,-2101,-2919,14,108,264,339,297,-337,1,0,58,16,40,0,53298,1
1,30291,33235,31362,87365,56,-3054,-2141,-2926,-15,57,244,341,299,-335,1,0,58,16,80,0,53298,1
1,30298,33254,31362,87366,71,-3081,-2144,-2900,49,15,179,341,305,-349,1,0,58,16,120,0,53298,1
1,30292,33219,31363,87367,85,-3069,-2097,-2937,-135,-59,145,348,296,-342,1,0,58,16,160,0,53298,1
1,30293,33185,31366,87368,100,-3045,-2106,-2965,-66,-88,77,347,299,-341,1,0,58,16,200,0,53298,1
1,30288,33197,31369,87369,115,-3093,-2060,-2940,112,44,115,348,298,-346,1,0,58,16,240,0,53298,1
1,30290,33203,31370,87370,130,-3062,-2057,-3014,92,68,193,334,306,-348,1,0,58,16,280,0,53298,1
1,30281,33189,31374,87371,144,-3047,-2002,-3061,114,361,431,343,299,-349,1,0,58,16,320,0,53298,1
1,30280,33213,31379,87372,158,-3157,-1879,-3038,673,1045,1036,345,303,-341,1,0,58,16,360,0,53298,1
1,30269,33211,31380,87373,171,-3224,-1442,-3163,1071,1444,1742,348,302,-344,1,0,58,16,400,0,53298,1
1,30253,33201,31375,87374,183,-2998,-982,-3225,925,1939,3336,346,310,-354,1,0,58,16,440,0,53298,1
1,30239,33188,31357,87375,195,-3124,-1305,-3123,2401,2843,5884,341,311,-353,1,0,58,16,480,0,53298,1
1,30216,33180,31335,87376,207,-3372,-620,-2651,3020,2847,7027,340,318,-354,1,0,58,16,520,0,53298,1
1,30204,33274,31302,87377,220,-3334,-664,-2570,517,1107,8775,334,322,-352,1,0,58,16,560,0,53298,1
1,30196,33212,31235,87378,233,-3193,-927,-2355,-241,-273,10011,325,339,-347,1,0,58,16,600,0,53298,1
3,30185,33199,31197,87379,245,-3420,-671,-1765,-1612,-1763,10945,303,353,-359,1,0,58,16,640,0,53298,1
3,30175,33179,31157,87380,257,-3282,-649,-890,-4062,-3851,11903,299,367,-369,1,0,58,16,680,0,53298,1
3,30160,33188,31099,87381,269,-3295,-1192,-664,-8319,-5598,12724,270,384,-374,1,0,58,16,720,0,53298,1
3,30202,33250,31096,87382,281,-4246,-1592,-920,-14381,-7614,10416,249,397,-355,1,0,58,16,760,0,53298,1
0,30230,33299,31105,87383,293,-4246,-1592,-920,-14381,-7614,10416,235,415,-355,1,0,58,16,800,0,53298,1
2,30214,33257,31089,87384,306,-3906,-2379,-1669,-1141,-18242,3644,226,438,-338,1,0,58,16,840,0,53298,1
2,30200,33264,31110,87385,319,-4345,-1911,-1486,2844,-17679,1598,223,451,-309,1,0,58,16,880,0,53298,1
2,30216,33298,31147,87386,332,-4675,-1169,-1926,2383,-16946,76,223,471,-289,1,0,58,16,920,0,53298,1
2,30242,33299,31150,87387,332,-4846,-1330,-1650,638,-17231,-1829,221,479,-253,1,0,58,16,960,0,53298,1
1,30246,33252,31152,87388,0,-4979,-760,-1689,-862,-14554,-3519,220,478,-232,1,0,58,17,0,0,53298,1
2,30265,33391,31165,87389,39596,-5011,-668,-1322,-1051,-12424,-4279,214,490,-202,1,0,58,17,40,0,53298,1
2,30324,33436,31187,87390,39608,-5424,-536,-1417,-31,-9994,-4336,223,477,-197,1,0,58,17,80,0,53298,1
2,30312,33416,31181,87391,39621,-5030,-499,-1153,881,-7447,-4043,224,486,-186,1,0,58,17,120,0,53298,1
2,30302,33422,31186,87392,39635,-5603,-512,-1140,1164,-5042,-3887,225,489,-191,1,0,58,17,160,0,53298,1
2,30285,33384,31170,87393,39648,-5083,-493,-782,1632,-3593,-4183,223,493,-195,1,0,58,17,200,0,53298,1
2,30362,33375,31218,87394,39660,-4857,1708,-2908,49,-726,-1844,217,503,-205,1,0,58,17,240,0,53298,1
2,30376,33400,31238,87395,39672,-6525,-2182,-3225,-4939,2302,-1516,213,517,-207,1,0,58,17,280,0,53298,1
2,30350,33357,31231,87396,39685,-4555,-1046,-205,1542,1872,-2209,226,506,-206,1,0,58,17,320,0,53298,1
2,30325,33330,31212,87397,39697,-4123,-1147,346,2555,1314,-1685,231,511,-209,1,0,58,17,360,0,53298,1
2,30353,33335,31217,87398,39709,-4508,-1122,-245,-22,964,-435,233,509,-213,1,0,58,17,400,0,53298,1
2,30378,33364,31229,87399,39722,-4967,-1037,-516,-259,365,273,234,512,-216,1,0,58,17,440,0,53298,1
2,30371,33345,31221,87400,39735,-4611,-1047,-192,362,-423,694,224,516,-216,1,0,58,17,480,0,53298,1
2,30361,33344,31215,87401,39747,-4555,-1029,-193,412,-725,859,225,509,-213,1,0,58,17,520,0,53298,1
2,30361,33337,31216,87402,39759,-4643,-1002,-215,258,-746,830,233,505,-211,1,0,58,17,560,0,53298,1
2,30369,33347,31216,87403,39771,-4637,-908,-151,260,-781,591,226,510,-204,1,0,58,17,600,0,53298,1
2,30372,33343,31217,87404,39784,-4639,-935,-134,72,-595,171,238,512,-210,1,0,58,17,640,0,53298,1
2,30371,33337,31221,87405,39796,-4613,-980,-116,-167,-301,-188,224,508,-208,1,0,58,17,680,0,53298,1
2,30377,33336,31226,87406,39807,-4621,-988,-138,-242,-82,-351,221,509,-199,1,0,58,17,720,0,53298,1
2,30372,33336,31225,87407,39819,-4631,-1008,-149,-154,40,-370,219,503,-211,1,0,58,17,760,0,53298,1
2,30376,33340,31228,87408,39832,-4639,-1017,-145,-68,41,-300,231,501,-209,1,0,58,17,800,0,53298,1
2,30373,33332,31228,87409,39844,-4639,-1030,-148,-56,-26,-148,227,515,-213,1,0,58,17,840,0,53298,1
2,30365,33341,31228,87410,39856,-4630,-1025,-170,-25,-192,38,223,511,-205,1,0,58,17,880,0,53298,1
2,30370,33340,31229,87411,39867,-4624,-1005,-159,23,-429,203,231,497,-215,1,0,58,17,920,0,53298,1
2,30358,33334,31228,87412,39879,-4613,-996,-134,72,-628,325,229,505,-209,1,0,58,17,960,0,53298,1
1,30372,33341,31225,87413,0,-4616,-984,-111,81,-723,380,232,506,-198,1,0,58,18,0,1,53298,1
2,30374,33345,31223,87414,39148,-4629,-1005,-102,70,-687,356,224,508,-202,1,0,58,18,40,1,53298,1
2,30365,33349,31228,87415,39160,-4622,-992,-74,142,-531,246,234,514,-208,1,0,58,18,80,1,53298,1
2,30367,33344,31224,87416,39172,-4631,-988,-55,43,-416,182,230,506,-212,1,0,58,18,120,1,53298,1
2,30365,33315,31223,87417,39183,-4636,-975,-65,38,-277,106,222,512,-202,1,0,58,18,160,1,53298,1
2,30363,33330,31226,87418,39195,-4632,-974,-33,30,-181,46,228,506,-196,1,0,58,18,200,1,53298,1
2,30360,33328,31225,87419,39208,-4629,-971,-55,32,-146,39,233,509,-209,1,0,58,18,240,1,53298,1
2,30351,33318,31224,87420,39221,-4648,-987,-59,11,-156,60,220,504,-202,1,0,58,18,280,1,53298,1
2,30350,33313,31225,87421,39233,-4632,-970,-44,34,-173,71,218,502,-200,1,0,58,18,320,1,53298,1
2,30355,33312,31221,87422,39246,-4634,-969,-38,32,-161,76,229,505,-209,1,0,58,18,360,1,53298,1
2,30352,33313,31225,87423,39257,-4642,-969,-50,25,-121,58,224,506,-208,1,0,58,18,400,1,53298,1
2,30362,33322,31226,87424,39269,-4637,-971,-41,18,-75,29,224,502,-202,1,0,58,18,440,1,53298,1
2,30360,33316,31224,87425,39281,-4667,-976,-82,43,9,7,218,508,-196,1,0,58,18,480,1,53298,1
2,30357,33311,31221,87426,39294,-4684,-954,-61,174,181,-51,217,497,-205,1,0,58,18,520,1,53298,1
2,30352,33303,31217,87427,39306,-4708,-969,-142,289,291,-97,226,500,-202,1,0,58,18,560,1,53298,1
2,30330,33300,31204,87428,39318,-4733,-1048,-278,477,93,121,226,510,-206,1,0,58,18,600,1,53298,1
2,30317,33274,31186,87429,39330,-4643,-1125,-345,910,-114,243,236,512,-198,1,0,58,18,640,1,53298,1
2,30284,33317,31177,87430,39341,-4590,-1217,-322,2308,111,123,226,510,-200,1,0,58,18,680,1,53298,1
2,30262,33364,31176,87431,39353,-4451,-1008,-97,4033,904,-141,237,499,-203,1,0,58,18,720,1,53298,1
2,30260,33347,31182,87432,39365,-4518,-763,370,3877,1277,-421,237,503,-197,1,0,58,18,760,1,53298,1
2,30270,33353,31196,87433,39378,-4548,-687,670,1068,599,-384,243,501,-201,1,0,58,18,800,1,53298,1
2,30267,33368,31210,87434,39390,-4780,-698,34,-1188,60,105,237,501,-199,1,0,58,18,840,1,53298,1
2,30277,33356,31204,87435,39401,-4711,-984,-200,-1321,356,-101,231,501,-205,1,0,58,18,880,1,53298,1
2,30293,33344,31201,87436,39412,-4562,-1194,-304,-866,383,-197,230,502,-204,1,0,58,18,920,1,53298,1
2,30285,33339,31201,87437,39424,-4503,-1240,-358,-244,611,-191,236,508,-208,1,0,58,18,960,1,53298,1
1,30299,33353,31211,87438,0,-4711,-970,-190,263,600,-57,233,503,-201,1,0,58,19,0,0,53298,1
2,30304,33309,31216,87439,38703,-4735,-901,-113,430,168,45,226,510,-198,1,0,58,19,40,0,53298,1
2,30301,33320,31214,87440,38714,-4642,-1025,-218,333,-105,90,232,496,-220,1,0,58,19,80,0,53298,1
2,30298,33281,31215,87441,38726,-4621,-1013,-163,148,-295,140,224,510,-200,1,0,58,19,120,0,53298,1
2,30314,33300,31220,87442,38737,-4621,-984,-134,105,-402,203,229,507,-193,1,0,58,19,160,0,53298,1
2,30311,33310,31220,87443,38750,-4637,-979,-127,175,-369,241,230,512,-198,1,0,58,19,200,0,53298,1
2,30321,33316,31220,87444,38762,-4621,-974,-91,159,-244,198,241,505,-207,1,0,58,19,240,0,53298,1
2,30314,33310,31218,87445,38773,-4651,-938,-93,45,-45,95,225,495,-215,1,0,58,19,280,0,53298,1
2,30321,33315,31220,87446,38784,-4628,-966,-126,68,135,10,231,513,-197,1,0,58,19,320,0,53298,1
2,30314,33322,31219,87447,38796,-4640,-977,-143,39,194,-45,228,510,-202,1,0,58,19,360,0,53298,1
2,30306,33308,31217,87448,38809,-4616,-985,-128,92,157,-34,230,514,-200,1,0,58,19,400,0,53298,1
2,30307,33296,31212,87449,38821,-4629,-980,-152,41,88,-5,241,501,-203,1,0,58,19,440,0,53298,1
2,30315,33305,31216,87450,38833,-4618,-966,-140,59,26,9,233,505,-207,1,0,58,19,480,0,53298,1
2,30311,33313,31217,87451,38846,-4628,-977,-146,60,-40,62,232,500,-190,1,0,58,19,520,0,53298,1
2,30314,33330,31213,87452,38858,-4633,-972,-136,49,-119,109,222,508,-208,1,0,58,19,560,0,53298,1
2,30310,33321,31213,87453,38871,-4645,-1004,-130,62,-177,141,236,506,-206,1,0,58,19,600,0,53298,1
2,30314,33309,31208,87454,38884,-4655,-953,-125,102,-181,173,223,507,-201,1,0,58,19,640,0,53298,1
2,30306,33318,31209,87455,38897,-4680,-949,-145,122,-210,253,226,508,-206,1,0,58,19,680,0,53298,1
2,30288,33308,31192,87456,38909,-5479,-447,-480,-1291,-650,272,222,518,-196,1,0,58,19,720,0,53298,1
2,30260,33282,31146,87457,38923,-6231,-586,-950,-1094,-1708,630,221,505,-201,1,0,58,19,760,0,53298,1
2,30283,33280,31119,87458,38936,-5849,-553,-1607,560,-2073,2510,220,496,-190,1,0,58,19,800,0,53298,1
2,30259,33409,31162,87459,38950,-4796,-975,-888,1932,1381,3843,206,490,-186,1,0,58,19,840,0,53298,1
2,30175,32810,31145,87460,38963,-6665,-36,-3131,-93,8214,6723,205,479,-187,1,0,58,19,880,0,53298,1
2,30185,33234,31152,87461,38977,-5781,-410,-1886,3218,11337,6424,199,483,-195,1,0,58,19,920,0,53298,1
2,30184,32869,31155,87462,38991,-6095,-631,-2148,-1906,15532,7941,199,481,-213,1,0,58,19,960,0,53298,1
1,30194,32835,31148,87463,0,-5600,-1231,-1547,-2248,18228,7418,193,475,-245,1,0,58,20,0,1,53298,1
2,30203,32835,31143,87464,38258,-4954,-1527,-930,-2492,19137,5841,188,468,-272,1,0,58,20,40,1,53298,1
2,30195,32544,31132,87465,38270,-4313,-1937,-529,-4122,18792,3345,191,449,-299,1,0,58,20,80,1,53298,1
2,30177,32817,31109,87466,38283,-3996,-1390,-257,-4776,17119,300,187,437,-315,1,0,58,20,120,1,53298,1
2,30125,30985,31060,87467,38294,-3388,-1757,-762,-5651,14541,-2554,196,418,-338,1,0,58,20,160,1,53298,1
2,30097,32137,31074,87468,38306,-3357,-2921,-1530,-5762,13013,-5230,202,398,-354,1,0,58,20,200,1,53298,1
2,30076,32413,31100,87469,38318,-3469,-2748,-1043,3216,12301,-10396,219,387,-367,1,0,58,20,240,1,53298,1
2,30050,31382,31147,87470,38330,-3829,-1465,-688,7563,10437,-15464,254,368,-374,1,0,58,20,280,1,53298,1
2,29976,31569,31195,87471,38343,-4012,-335,-896,5039,6103,-19368,275,349,-371,1,0,58,20,320,1,53298,1
2,29909,31519,31232,87472,38357,-3647,902,-591,2990,2647,-21224,299,331,-369,1,0,58,20,360,1,53298,1
2,30033,31753,31369,87473,38370,-3360,1888,-675,1017,-1394,-17924,325,313,-361,1,0,58,20,400,1,53298,1
2,30016,31343,31933,87474,38383,-2698,3472,-3355,-396,-7828,-12833,308,308,-358,1,0,58,20,440,1,53298,1
2,29938,32915,33608,87475,38398,-2714,453,-6168,-4415,-18615,-5346,322,308,-360,1,0,58,20,480,1,53298,1
2,27839,32590,33805,87476,38413,-3550,-666,-4014,14687,-3212,-615,316,292,-352,1,0,58,20,520,1,53298,1
2,27547,32290,33539,87477,38427,-3398,-1998,-3369,10141,2375,1983,329,303,-343,1,0,58,20,560,1,53298,1
2,27542,33140,33070,87478,38440,-3835,-3176,-3192,7526,5987,-776,338,300,-336,1,0,58,20,600,1,53298,1
2,27501,31625,32574,87479,38453,-3290,-2902,-2465,6526,6580,-5088,345,307,-325,1,0,58,20,640,1,53298,1
2,27511,30314,32130,87480,38465,-3309,-2724,-2038,3215,5553,-6634,347,287,-323,1,0,58,20,680,1,53298,1
2,27567,31098,31878,87481,38478,-3278,-3009,-2340,505,3128,-5787,345,289,-325,1,0,58,20,720,1,53298,1
2,27520,31405,31762,87482,38492,-3104,-2498,-2457,1227,1475,-5589,361,277,-319,1,0,58,20,760,1,53298,1
2,27532,30530,31635,87483,38505,-2909,-2513,-2623,-282,-299,-4551,364,280,-328,1,0,58,20,800,1,53298,1
2,27576,30771,31565,87484,38519,-3034,-2451,-2726,278,-437,-3035,358,268,-332,1,0,58,20,840,1,53298,1
2,27562,30995,31509,87485,38533,-3056,-2320,-2745,-54,-616,-1829,361,265,-321,1,0,58,20,880,1,53298,1
2,27576,32548,31478,87486,38546,-3031,-2586,-2867,-2163,-1113,-793,354,270,-314,1,0,58,20,920,1,53298,1
2,27563,31795,31455,87487,38560,-3074,-2523,-2814,-1006,-443,-467,359,275,-321,1,0,58,20,960,1,53298,1
1,27579,32868,31432,87488,0,-3109,-2485,-2777,-168,-100,-544,355,275,-333,1,0,58,21,0,1,53298,1
2,27525,31298,31415,87489,37811,-3073,-2678,-2845,-180,136,-623,363,267,-329,1,0,58,21,40,1,53298,1
2,27685,32311,31401,87490,37825,-2975,-2522,-2807,541,616,-953,357,269,-327,1,0,58,21,80,1,53298,1
2,27700,32734,31381,87491,37838,-2962,-2585,-2780,222,751,-979,363,269,-327,1,0,58,21,120,1,53298,1
2,27650,32943,31372,87492,37852,-2940,-2639,-2749,208,965,-748,365,271,-329,1,0,58,21,160,1,53298,1
2,27929,32750,31360,87493,37866,-2936,-2535,-2680,411,950,-482,357,259,-333,1,0,58,21,200,1,53298,1
2,27901,31867,31361,87494,37880,-2863,-2591,-2697,-83,508,-49,361,261,-337,1,0,58,21,240,1,53298,1
2,27876,31623,31357,87495,37894,-2819,-2657,-2808,-392,181,307,365,259,-325,1,0,58,21,280,1,53298,1
2,27883,31903,31365,87496,37909,-2772,-2643,-2884,18,122,447,364,270,-324,1,0,58,21,320,1,53298,1
2,27841,32752,31367,87497,37923,-2804,-2660,-2850,349,228,533,360,264,-332,1,0,58,21,360,1,53298,1
2,28629,32014,31366,87498,37937,-2798,-2652,-2874,320,294,607,360,260,-322,1,0,58,21,400,1,53298,1
2,27636,32067,31366,87499,37951,-2782,-2653,-2871,484,343,627,366,258,-324,1,0,58,21,440,1,53298,1
2,27679,32145,31368,87500,37965,-2838,-2662,-2822,621,440,691,352,272,-332,1,0,58,21,480,1,53298,1
2,27701,32698,31371,87501,37979,-2834,-2660,-2815,436,359,760,366,272,-320,1,0,58,21,520,1,53298,1
2,27674,33052,31371,87502,37993,-2837,-2686,-2823,379,318,750,361,267,-323,1,0,58,21,560,1,53298,1
2,27675,33027,31374,87503,38007,-2836,-2645,-2810,644,358,684,363,271,-321,1,0,58,21,600,1,53298,1
2,27669,32951,31380,87504,38022,-2824,-2713,-2850,318,280,683,375,265,-331,1,0,58,21,640,1,53298,1
2,27695,32899,31373,87505,38036,-2782,-2714,-2834,392,320,527,362,274,-316,1,0,58,21,680,1,53298,1
2,27693,33437,31390,87506,38052,-2795,-2667,-2841,525,325,376,362,272,-322,1,0,58,21,720,1,53298,1
2,27764,33362,31388,87507,38067,-2800,-2724,-2863,243,260,358,361,275,-325,1,0,58,21,760,1,53298,1
2,27542,33368,31392,87508,38081,-2801,-2689,-2829,281,286,287,362,274,-328,1,0,58,21,800,1,53298,1
2,27603,33366,31394,87509,38096,-2775,-2678,-2821,245,191,292,360,274,-326,1,0,58,21,840,1,53298,1
2,27586,32740,31373,87510,38110,-2794,-2669,-2827,360,199,304,361,273,-325,1,0,58,21,880,1,53298,1
2,27575,32788,31374,87511,38125,-2788,-2677,-2837,312,155,290,362,278,-332,1,0,58,21,920,1,53298,1
2,27437,32878,31376,87512,38140,-2812,-2716,-2852,213,167,222,365,275,-327,1,0,58,21,960,1,53298,1
1,27461,32893,31380,87513,0,-2793,-2670,-2824,263,200,94,362,272,-330,1,0,58,22,0,0,53298,1
2,27477,32918,31379,87514,37367,-2798,-2703,-2840,162,156,75,354,268,-326,1,0,58,22,40,0,53298,1
2,27473,32931,31376,87515,37381,-2802,-2679,-2817,139,160,79,361,273,-327,1,0,58,22,80,0,53298,1
2,27517,32993,31384,87516,37394,-2805,-2700,-2824,78,113,123,363,271,-321,1,0,58,22,120,0,53298,1
2,27486,32978,31379,87517,37408,-2783,-2672,-2813,97,12,127,360,270,-334,1,0,58,22,160,0,53298,1
2,27424,32835,31377,87518,37422,-2796,-2693,-2856,-11,-71,147,361,273,-317,1,0,58,22,200,0,53298,1
2,27430,32683,31380,87519,37436,-2814,-2666,-2849,60,-43,119,358,276,-328,1,0,58,22,240,0,53298,1
2,27364,32591,31383,87520,37450,-2816,-2651,-2821,-24,-50,141,362,272,-330,1,0,58,22,280,0,53298,1
2,27368,32500,31384,87521,37463,-2815,-2690,-2836,-169,-52,177,362,274,-318,1,0,58,22,320,0,53298,1
2,27340,32474,31386,87522,37477,-2803,-2669,-2833,24,-33,95,354,272,-324,1,0,58,22,360,0,53298,1
2,27313,32463,31387,87523,37491,-2818,-2686,-2835,-4,-10,87,366,266,-328,1,0,58,22,400,0,53298,1
2,27324,32425,31392,87524,37506,-2805,-2677,-2849,90,18,58,362,280,-322,1,0,58,22,440,0,53298,1
2,27335,32399,31386,87525,37520,-2815,-2665,-2838,92,47,64,365,271,-329,1,0,58,22,480,0,53298,1
2,27312,32325,31391,87526,37534,-2826,-2671,-2819,1,28,84,356,278,-330,1,0,58,22,520,0,53298,1
2,27311,32192,31393,87527,37548,-2802,-2660,-2833,60,34,91,362,274,-326,1,0,58,22,560,0,53298,1
2,27309,32234,31389,87528,37562,-2817,-2682,-2833,164,48,78,361,283,-329,1,0,58,22,600,0,53298,1
2,27321,32222,31393,87529,37576,-2830,-2669,-2829,47,36,95,355,267,-327,1,0,58,22,640,0,53298,1
2,27318,32185,31393,87530,37589,-2806,-2694,-2831,-76,-7,106,358,274,-326,1,0,58,22,680,0,53298,1
2,27285,32191,31395,87531,37604,-2823,-2682,-2829,1,2,122,365,267,-331,1,0,58,22,720,0,53298,1
2,27269,32077,31396,87532,37617,-2816,-2591,-2854,-65,45,224,356,264,-314,1,0,58,22,760,0,53298,1
2,27287,32099,31402,87533,37631,-2817,-2666,-2801,44,34,399,354,272,-318,1,0,58,22,800,0,53298,1
2,27265,32042,31406,87534,37644,-2850,-2537,-2859,-92,83,550,358,274,-324,1,0,58,22,840,0,53298,1
2,27274,32068,31408,87535,37657,-2787,-2517,-2901,-135,267,901,358,278,-330,1,0,58,22,880,0,53298,1
2,27281,32045,31418,87536,37670,-2870,-2363,-2994,133,716,1423,352,278,-322,1,0,58,22,920,0,53298,1
2,27256,32098,31413,87537,37682,-2999,-1755,-2977,669,1124,2437,358,284,-330,1,0,58,22,960,0,53298,1
1,27269,32054,31404,87538,0,-2862,-1397,-3186,193,1423,4419,357,279,-329,1,0,58,23,0,0,53298,1
2,27253,32128,31374,87539,36918,-2972,-1116,-3171,-1718,1292,6649,361,293,-339,1,0,58,23,40,0,53298,1
2,27252,32177,31355,87540,36930,-3208,-1299,-2963,-1310,1646,9368,358,306,-344,1,0,58,23,80,0,53298,1
2,27249,32157,31307,87541,36941,-3528,-1521,-2803,233,1849,11051,349,317,-343,1,0,58,23,120,0,53298,1
2,27274,32067,31274,87542,36953,-3632,-1352,-2502,1447,1282,11216,341,329,-347,1,0,58,23,160,0,53298,1
2,27228,31969,31230,87543,36965,-3326,-1665,-1973,-102,99,11344,329,343,-347,1,0,58,23,200,0,53298,1
2,27206,31850,31182,87544,36978,-3375,-1609,-1266,-1724,-1042,11496,317,351,-351,1,0,58,23,240,0,53298,1
2,27213,31778,31129,87545,36991,-3266,-1391,-387,-4384,-3258,11379,304,366,-348,1,0,58,23,280,0,53298,1
2,27150,31869,31073,87546,37003,-3675,-1134,-815,-11352,-5685,10527,280,376,-362,1,0,58,23,320,0,53298,1
2,27139,31713,31060,87547,37016,-4170,-1432,-1565,-16618,-11143,7241,261,407,-357,1,0,58,23,360,0,53298,1
2,27057,31684,31047,87548,37028,-3858,-1284,-2144,-7413,-18221,5186,248,424,-346,1,0,58,23,400,0,53298,1
2,26846,31613,31030,87549,37041,-3912,-1489,-2107,-1725,-18429,3455,240,444,-320,1,0,58,23,440,0,53298,1
2,26857,31507,31054,87550,37054,-4158,-1324,-1930,2561,-16261,2831,234,462,-296,1,0,58,23,480,0,53298,1
2,26870,31578,31099,87551,37067,-4957,-1277,-1537,1306,-15541,3360,217,467,-271,1,0,58,23,520,0,53298,1
2,26839,31660,31119,87552,37079,-5099,-706,-1793,-734,-14447,1388,220,476,-244,1,0,58,23,560,0,53298,1
2,26858,32179,31113,87553,37092,-4969,-1263,-1135,-3273,-13197,-130,215,477,-221,1,0,58,23,600,0,53298,1
2,26796,31834,31122,87554,37105,-5534,-955,-1428,-4551,-11244,-777,208,480,-204,1,0,58,23,640,0,53298,1
2,26725,32217,31125,87555,37118,-5415,-791,-1038,-3034,-10220,-2581,202,478,-184,1,0,58,23,680,0,53298,1
2,26722,31971,31120,87556,37130,-4753,-744,-1030,-3444,-9130,-3247,201,485,-177,1,0,58,23,720,0,53298,1
2,26697,32942,31133,87557,37144,-5076,-454,-874,-2112,-6622,-3895,199,469,-175,1,0,58,23,760,0,53298,1
2,26721,30748,31139,87558,37157,-4904,-161,-360,-1144,-4765,-3601,196,482,-174,1,0,58,23,800,0,53298,1
2,26708,30575,31136,87559,37170,-4612,-732,768,-3293,-4160,-2586,188,486,-164,1,0,58,23,840,0,53298,1
2,26765,30932,31178,87560,37181,-5725,320,402,4025,3402,-370,196,498,-178,1,0,58,23,880,0,53298,1
2,26737,31121,31208,87561,37193,-5840,-1154,-356,-4896,-154,455,188,494,-164,1,0,58,23,920,0,53298,1
2,26722,31445,31200,87562,37206,-5065,-669,-481,1723,596,29,187,501,-171,1,0,58,23,960,0,53298,1
1,26721,31542,31179,87563,0,-4465,-954,41,1216,1249,-506,187,503,-179,1,0,58,24,0,0,53298,1
2,26752,31680,31184,87564,36473,-4567,-706,159,662,1087,-223,180,506,-170,1,0,58,24,40,0,53298,1
2,26751,31879,31184,87565,36486,-4758,-757,-109,538,1018,175,179,509,-185,1,0,58,24,80,0,53298,1
2,26727,31896,31178,87566,36498,-4717,-782,-272,597,853,329,177,505,-175,1,0,58,24,120,0,53298,1
2,26725,31868,31177,87567,36511,-4662,-711,-93,447,464,141,182,504,-184,1,0,58,24,160,0,53298,1
2,26745,31966,31178,87568,36524,-4622,-695,6,386,205,72,184,504,-174,1,0,58,24,200,0,53298,1
2,26748,31955,31175,87569,36537,-4669,-665,-36,360,258,64,177,505,-183,1,0,58,24,240,0,53298,1
2,26756,31987,31178,87570,36550,-4650,-692,-54,191,181,-70,188,498,-180,1,0,58,24,280,0,53298,1
2,26751,32119,31179,87571,36562,-4637,-720,-43,52,165,-179,181,509,-181,1,0,58,24,320,0,53298,1
2,26758,31982,31180,87572,36574,-4637,-725,-67,20,170,-167,181,511,-185,1,0,58,24,360,0,53298,1
2,26698,32046,31179,87573,36586,-4638,-724,-58,95,122,-68,174,498,-178,1,0,58,24,400,0,53298,1
2,26672,31942,31184,87574,36599,-4632,-724,-56,155,45,63,182,506,-180,1,0,58,24,440,0,53298,1
2,26686,31832,31178,87575,36611,-4641,-731,-55,259,-23,174,179,507,-187,1,0,58,24,480,0,53298,1
2,26662,32008,31179,87576,36623,-4614,-700,-67,344,-58,218,175,505,-193,1,0,58,24,520,0,53298,1
2,26660,31991,31178,87577,36635,-4633,-676,-42,248,-136,205,172,510,-184,1,0,58,24,560,0,53298,1
2,26667,32129,31180,87578,36646,-4638,-690,-61,146,-196,172,174,514,-188,1,0,58,24,600,0,53298,1
2,26640,32339,31176,87579,36658,-4645,-703,-46,91,-187,137,170,500,-178,1,0,58,24,640,0,53298,1
2,26653,32375,31179,87580,36670,-4627,-688,-25,58,-121,85,180,502,-190,1,0,58,24,680,0,53298,1
2,26658,32368,31181,87581,36683,-4637,-692,-42,52,-42,48,181,507,-181,1,0,58,24,720,0,53298,1
2,26649,32319,31181,87582,36695,-4633,-682,-42,29,35,4,177,507,-169,1,0,58,24,760,0,53298,1
2,26684,32489,31179,87583,36707,-4637,-708,-53,0,69,-21,184,506,-182,1,0,58,24,800,0,53298,1
2,26683,32280,31178,87584,36718,-4637,-702,-54,9,57,-12,180,500,-182,1,0,58,24,840,0,53298,1
2,26648,32207,31178,87585,36730,-4638,-712,-48,10,12,7,172,500,-184,1,0,58,24,880,0,53298,1
2,26678,32582,31178,87586,36742,-4632,-697,-54,2,-25,29,177,511,-177,1,0,58,24,920,0,53298,1
2,26633,32359,31179,87587,36754,-4633,-691,-46,6,-38,39,168,514,-182,1,0,58,24,960,0,53298,1
1,26651,32623,31178,87588,0,-4649,-703,-40,6,-47,35,171,509,-179,1,0,58,25,0,0,53298,1
2,26654,32399,31183,87589,36027,-4637,-698,-51,-2,-38,25,176,500,-190,1,0,58,25,40,0,53298,1
2,26655,32311,31176,87590,36038,-4630,-687,-40,-5,-24,32,181,501,-183,1,0,58,25,80,0,53298,1
2,26653,32560,31177,87591,36049,-4636,-705,-37,1,-22,27,176,506,-186,1,0,58,25,120,0,53298,1
2,26653,32494,31180,87592,36059,-4638,-697,-36,4,-18,23,178,504,-188,1,0,58,25,160,0,53298,1
2,26653,32445,31180,87593,36070,-4642,-701,-54,-6,-22,22,173,507,-183,1,0,58,25,200,0,53298,1
2,26665,32535,31180,87594,36082,-4647,-700,-36,-4,-20,32,181,507,-185,1,0,58,25,240,0,53298,1
2,26632,32337,31180,87595,36093,-4638,-692,-46,1,-27,30,178,510,-184,1,0,58,25,280,0,53298,1
2,26631,32277,31182,87596,36104,-4639,-683,-42,-8,-11,19,186,502,-184,1,0,58,25,320,0,53298,1
2,26623,32600,31181,87597,36116,-4643,-698,-47,-7,-12,9,181,507,-183,1,0,58,25,360,0,53298,1
2,26631,32700,31186,87598,36128,-4638,-698,-38,-7,-10,6,173,503,-181,1,0,58,25,400,0,53298,1
2,26607,32589,31184,87599,36140,-4640,-705,-54,1,-7,15,176,508,-178,1,0,58,25,440,0,53298,1
2,26605,32599,31187,87600,36152,-4652,-712,-46,0,-2,14,179,507,-183,1,0,58,25,480,0,53298,1
2,26605,32505,31180,87601,36163,-4637,-699,-44,-16,-7,23,172,500,-186,1,0,58,25,520,0,53298,1
2,26602,32487,31180,87602,36175,-4645,-706,-37,1,-18,24,179,507,-183,1,0,58,25,560,0,53298,1
2,26629,32766,31180,87603,36187,-4641,-703,-40,-4,-32,39,174,506,-184,1,0,58,25,600,0,53298,1
2,26640,32768,31188,87604,36199,-4642,-702,-44,-4,-44,43,181,505,-189,1,0,58,25,640,0,53298,1
2,26642,32866,31189,87605,36212,-4632,-695,-35,9,-54,52,170,500,-176,1,0,58,25,680,0,53298,1
2,26654,32888,31186,87606,36225,-4636,-693,-33,8,-41,39,179,505,-185,1,0,58,25,720,0,53298,1
2,26710,32767,31185,87607,36238,-4625,-683,-36,1,-27,30,177,503,-187,1,0,58,25,760,0,53298,1
2,26715,32768,31182,87608,36250,-4651,-702,-49,-9,-6,16,181,515,-185,1,0,58,25,800,0,53298,1
2,26624,32711,31192,87609,36262,-4656,-715,-45,-9,10,10,175,505,-187,1,0,58,25,840,0,53298,1
2,26655,32624,31183,87610,36274,-4633,-696,-42,-6,17,10,175,511,-189,1,0,58,25,880,0,53298,1
2,26598,32636,31185,87611,36287,-4637,-707,-50,-5,12,12,174,508,-186,1,0,58,25,920,0,53298,1
2,26605,32559,31187,87612,36299,-4633,-696,-46,-5,18,13,179,509,-175,1,0,58,25,960,0,53298,1
1,26629,32488,31186,87613,0,-4643,-692,-54,-9,2,6,183,507,-181,1,0,58,26,0,0,53298,1
2,26613,32583,31186,87614,35582,-4636,-691,-38,-17,-1,-2,185,509,-189,1,0,58,26,40,0,53298,1
2,26628,32688,31192,87615,35594,-4644,-699,-48,-17,-7,-5,173,501,-185,1,0,58,26,80,0,53298,1
2,26611,32711,31185,87616,35607,-4652,-706,-53,-31,-10,-6,182,508,-174,1,0,58,26,120,0,53298,1
2,26609,32557,31192,87617,35618,-4655,-698,-50,-87,-10,-10,177,509,-183,1,0,58,26,160,0,53298,1
2,26650,32762,31187,87618,35631,-4667,-675,-78,-342,-37,-22,168,496,-172,1,0,58,26,200,0,53298,1
2,26662,32629,31174,87619,35644,-4762,-693,-178,-792,-41,-166,171,509,-177,1,0,58,26,240,0,53298,1
2,26643,32697,31164,87620,35656,-5229,-442,-508,-1728,-15,-705,183,511,-181,1,0,58,26,280,0,53298,1
2,26657,32765,31128,87621,35669,-5812,-415,-1031,1168,-242,-753,183,499,-179,1,0,58,26,320,0,53298,1
2,26636,32926,31082,87622,35682,-5788,-1409,-1634,3265,-593,661,187,497,-179,1,0,58,26,360,0,53298,1
2,26770,32080,31105,87623,35696,-4729,-1403,-1077,8626,4014,1272,193,491,-169,1,0,58,26,400,0,53298,1
2,26953,33768,31155,87624,35709,-6354,-111,-2624,9375,11440,3363,199,489,-193,1,0,58,26,440,0,53298,1
2,26881,32973,31138,87625,35723,-5772,-359,-1708,9013,13183,2009,212,484,-204,1,0,58,26,480,0,53298,1
2,26910,32341,31146,87626,35736,-5632,-435,-1809,3305,15348,1645,210,490,-224,1,0,58,26,520,0,53298,1
2,26966,32287,31137,87627,35749,-5376,-897,-1767,-2216,16720,1735,213,483,-251,1,0,58,26,560,0,53298,1
2,27897,31546,31121,87628,35762,-5042,-1342,-1522,-3497,17141,1266,221,471,-273,1,0,58,26,600,0,53298,1
2,29013,30524,31115,87629,35774,-4721,-1262,-1137,-4106,16872,529,228,456,-316,1,0,58,26,640,0,53298,1
2,29562,30535,31095,87630,35787,-4227,-1227,-1017,-5723,15231,-85,226,442,-328,1,0,58,26,680,0,53298,1
2,29079,31028,31069,87631,35801,-3772,-1388,-1316,-7450,13227,-1137,230,418,-362,1,0,58,26,720,0,53298,1
2,29118,32121,31059,87632,35814,-3584,-1202,-1293,-9506,12547,-3554,230,400,-360,1,0,58,26,760,0,53298,1
2,28154,32988,31035,87633,35828,-3008,-2672,-2443,-6362,10217,-5490,230,380,-378,1,0,58,26,800,0,53298,1
2,27763,32571,31055,87634,35842,-2503,-3194,-1436,-15,9444,-7438,249,365,-383,1,0,58,26,840,0,53298,1
2,27834,32045,31095,87635,35854,-3543,-2177,-900,6823,9808,-12100,268,350,-378,1,0,58,26,880,0,53298,1
2,27696,32065,31130,87636,35866,-3705,-400,-850,5811,5284,-16594,279,331,-379,1,0,58,26,920,0,53298,1
2,27647,32256,31145,87637,35878,-3392,535,-141,2355,0,-18836,304,314,-376,1,0,58,26,960,0,53298,1
1,27670,32292,31258,87638,0,-4113,2032,-442,-1378,-3734,-16996,311,301,-371,1,0,58,27,0,1,53298,1
2,27384,33268,31885,87639,35138,-3607,1720,-3596,-5956,-11822,-12165,333,305,-377,1,0,58,27,40,1,53298,1
2,27727,29791,32857,87640,35154,-4050,261,-8116,-3787,-19003,-7109,320,306,-360,1,0,58,27,80,1,53298,1
2,27608,29977,32896,87641,35170,-2774,200,-3052,21308,2156,-4331,338,286,-354,1,0,58,27,120,1,53298,1
2,27565,30129,32774,87642,35185,-3242,-1387,-3451,9681,3785,3034,338,296,-332,1,0,58,27,160,1,53298,1
2,27353,30813,32144,87643,35199,-3463,-3108,-3408,357,6777,1150,344,306,-340,1,0,58,27,200,1,53298,1
2,27295,32814,31804,87644,35211,-3350,-3274,-2414,6778,8584,-2195,342,290,-344,1,0,58,27,240,1,53298,1
2,27321,32675,31657,87645,35224,-3351,-2905,-2006,5988,6566,-3172,348,298,-340,1,0,58,27,280,1,53298,1
2,27375,32623,31525,87646,35237,-3443,-2841,-2245,2706,3704,-3642,358,284,-342,1,0,58,27,320,1,53298,1
2,27408,32175,31472,87647,35251,-3220,-2639,-2255,841,1000,-3428,362,280,-332,1,0,58,27,360,1,53298,1
2,27379,32581,31455,87648,35265,-3098,-2394,-2580,-1312,-1386,-2297,353,285,-333,1,0,58,27,400,1,53298,1
2,27328,32891,31456,87649,35278,-3065,-2200,-2691,-1767,-2310,-1052,356,278,-338,1,0,58,27,440,1,53298,1
2,27365,33064,31468,87650,35292,-2994,-2151,-2964,-2326,-2663,295,363,287,-339,1,0,58,27,480,1,53298,1
2,27353,32896,31467,87651,35305,-3029,-2247,-3134,-1302,-1921,1025,359,279,-331,1,0,58,27,520,1,53298,1
2,27349,32141,31464,87652,35318,-3118,-2211,-3012,502,-605,994,360,290,-336,1,0,58,27,560,1,53298,1
2,27377,32620,31455,87653,35332,-3136,-2288,-2972,-85,-101,688,353,281,-329,1,0,58,27,600,1,53298,1
2,27334,32873,31437,87654,35346,-3106,-2418,-2933,-411,383,61,349,283,-323,1,0,58,27,640,1,53298,1
2,27421,33021,31422,87655,35359,-3063,-2385,-2818,86,875,-548,355,283,-343,1,0,58,27,680,1,53298,1
2,27475,32983,31407,87656,35372,-3042,-2420,-2809,-8,924,-716,350,282,-334,1,0,58,27,720,1,53298,1
2,27482,33050,31392,87657,35386,-3076,-2428,-2724,431,957,-693,358,282,-336,1,0,58,27,760,1,53298,1
2,27460,32908,31392,87658,35399,-3081,-2362,-2683,390,581,-472,358,282,-340,1,0,58,27,800,1,53298,1
2,27460,32783,31388,87659,35414,-2995,-2299,-2804,-6,-89,-164,353,285,-341,1,0,58,27,840,1,53298,1
2,27461,32792,31394,87660,35428,-2957,-2332,-2928,104,-371,133,350,282,-324,1,0,58,27,880,1,53298,1
2,27360,32914,31400,87661,35443,-2957,-2296,-2944,279,-218,398,357,281,-339,1,0,58,27,920,1,53298,1
2,27355,32949,31402,87662,35457,-2974,-2386,-2966,199,29,497,367,279,-335,1,0,58,27,960,1,53298,1
1,27331,33115,31402,87663,0,-3004,-2375,-2886,423,359,351,356,280,-338,1,0,58,28,0,0,53298,1
2,27340,33220,31400,87664,34693,-2990,-2386,-2832,258,390,267,361,279,-335,1,0,58,28,40,0,53298,1
2,27339,33167,31397,87665,34708,-2985,-2400,-2803,244,345,194,355,281,-335,1,0,58,28,80,0,53298,1
2,27353,33226,31399,87666,34722,-2990,-2396,-2831,322,230,194,354,276,-334,1,0,58,28,120,0,53298,1
2,27328,33195,31400,87667,34736,-2988,-2403,-2845,355,100,200,360,280,-344,1,0,58,28,160,0,53298,1
2,27313,33233,31401,87668,34750,-2981,-2389,-2870,221,58,239,355,285,-341,1,0,58,28,200,0,53298,1
2,27317,33177,31403,87669,34765,-2962,-2404,-2905,190,81,227,357,289,-333,1,0,58,28,240,0,53298,1
2,27313,33166,31403,87670,34779,-2956,-2378,-2884,285,177,236,361,281,-335,1,0,58,28,280,0,53298,1
2,27252,33206,31410,87671,34794,-2964,-2412,-2889,147,183,272,355,283,-331,1,0,58,28,320,0,53298,1
2,27248,33129,31402,87672,34809,-2967,-2410,-2841,358,222,222,351,281,-337,1,0,58,28,360,0,53298,1
2,27242,33178,31406,87673,34824,-2962,-2383,-2858,257,137,233,347,297,-325,1,0,58,28,400,0,53298,1
2,27213,33043,31402,87674,34839,-2967,-2438,-2872,73,62,198,355,283,-341,1,0,58,28,440,0,53298,1
2,27215,32861,31400,87675,34854,-2956,-2424,-2887,102,89,168,354,282,-318,1,0,58,28,480,0,53298,1
2,27265,32736,31402,87676,34868,-2955,-2409,-2860,218,122,104,347,285,-339,1,0,58,28,520,0,53298,1
2,27241,32545,31397,87677,34883,-2961,-2388,-2882,237,111,88,343,279,-337,1,0,58,28,560,0,53298,1
2,27204,32521,31402,87678,34899,-2948,-2428,-2893,12,32,113,352,278,-338,1,0,58,28,600,0,53298,1
2,27241,32432,31396,87679,34914,-2961,-2424,-2865,149,126,72,356,292,-332,1,0,58,28,640,0,53298,1
2,27183,32294,31399,87680,34929,-2967,-2390,-2832,180,86,60,362,276,-332,1,0,58,28,680,0,53298,1
2,27203,32215,31398,87681,34945,-2959,-2447,-2867,-126,-51,64,358,284,-342,1,0,58,28,720,0,53298,1
2,27229,32257,31400,87682,34959,-2949,-2420,-2866,14,-44,1,361,279,-335,1,0,58,28,760,0,53298,1
2,27204,32179,31402,87683,34974,-2941,-2386,-2890,12,-85,-12,359,277,-337,1,0,58,28,800,0,53298,1
2,27210,32083,31401,87684,34989,-2971,-2424,-2900,-53,-23,-5,357,279,-337,1,0,58,28,840,0,53298,1
2,27210,31996,31401,87685,35003,-2965,-2364,-2858,1,-22,-48,357,287,-337,1,0,58,28,880,0,53298,1
2,27235,31981,31398,87686,35018,-2985,-2427,-2865,-95,-53,-25,359,279,-337,1,0,58,28,920,0,53298,1
2,27209,32030,31400,87687,35032,-2983,-2394,-2840,9,-11,-7,357,281,-343,1,0,58,28,960,0,53298,1
1,27245,32014,31400,87688,0,-2984,-2421,-2886,23,-20,-3,352,280,-336,1,0,58,29,0,1,53298,1
2,27247,32024,31400,87689,34249,-2986,-2409,-2827,24,-4,-6,354,278,-328,1,0,58,29,40,1,53298,1
2,27232,32075,31400,87690,34265,-2960,-2387,-2884,-156,-91,17,361,287,-331,1,0,58,29,80,1,53298,1
2,27215,31996,31402,87691,34279,-2966,-2434,-2908,-126,-59,8,356,288,-340,1,0,58,29,120,1,53298,1
2,27218,32021,31400,87692,34293,-2972,-2384,-2876,125,66,-16,353,281,-333,1,0,58,29,160,1,53298,1
2,27203,31987,31398,87693,34306,-2958,-2397,-2867,96,23,-14,354,278,-322,1,0,58,29,200,1,53298,1
2,27229,31935,31401,87694,34320,-2966,-2411,-2885,-32,4,14,358,280,-332,1,0,58,29,240,1,53298,1
2,27187,31879,31401,87695,34334,-2968,-2420,-2874,8,31,14,363,285,-341,1,0,58,29,280,1,53298,1
2,27153,31876,31401,87696,34348,-2958,-2397,-2845,53,17,-3,354,280,-334,1,0,58,29,320,1,53298,1
2,27145,31885,31402,87697,34362,-2963,-2415,-2878,-102,-38,44,351,287,-335,1,0,58,29,360,1,53298,1
2,27094,31828,31404,87698,34375,-2983,-2433,-2858,-10,6,69,361,285,-333,1,0,58,29,400,1,53298,1
2,27071,31837,31408,87699,34389,-2988,-2389,-2822,-15,-6,147,354,290,-338,1,0,58,29,440,1,53298,1
2,27063,31854,31410,87700,34403,-2881,-2633,-2832,-308,-110,251,356,274,-328,1,0,58,29,480,1,53298,1
2,27081,31890,31418,87701,34417,-2981,-2374,-2991,-1477,472,657,357,289,-341,1,0,58,29,520,1,53298,1
2,27021,32460,31447,87702,34429,-3116,-1799,-3162,-2445,1703,1656,356,288,-338,1,0,58,29,560,1,53298,1
2,27041,33241,31462,87703,34442,-3050,-1197,-3569,460,3575,4431,356,290,-344,1,0,58,29,600,1,53298,1
2,27068,33371,31460,87704,34455,-3109,-1185,-3184,2364,3896,6152,347,301,-337,1,0,58,29,640,1,53298,1
2,27097,33377,31449,87705,34468,-3201,-929,-3039,828,3521,8070,340,304,-350,1,0,58,29,680,1,53298,1
2,27077,33301,31421,87706,34481,-3103,-550,-2956,-2539,2100,9927,336,306,-354,1,0,58,29,720,1,53298,1
2,27055,33215,31375,87707,34495,-3245,-576,-3020,-3170,1318,11317,329,317,-357,1,0,58,29,760,1,53298,1
2,27073,33491,31325,87708,34508,-3390,-386,-2301,-2658,835,12345,319,337,-367,1,0,58,29,800,1,53298,1
2,27098,31810,31244,87709,34521,-3604,-128,-1181,-4518,-744,13394,301,353,-373,1,0,58,29,840,1,53298,1
2,27097,32808,31153,87710,34533,-3841,-456,-84,-9608,-3634,14122,278,372,-392,1,0,58,29,880,1,53298,1
2,26941,33111,31113,87711,34546,-4163,-2028,-1100,-16409,-8554,12357,247,385,-391,1,0,58,29,920,1,53298,1
2,26939,33089,31094,87712,34559,-3888,-2387,-1907,-9518,-15153,8305,224,398,-360,1,0,58,29,960,1,53298,1
1,26887,33136,31081,87713,0,-3830,-1768,-1990,64,-17303,4959,225,429,-361,1,0,58,30,0,0,53298,1
2,26868,33151,31084,87714,33802,-3587,-1058,-1942,4966,-17283,2921,214,436,-314,1,0,58,30,40,0,53298,1
2,26849,32823,31073,87715,33815,-3651,-993,-2005,3719,-16923,1886,207,459,-297,1,0,58,30,80,0,53298,1
2,26859,32925,31083,87716,33828,-4039,-1493,-1777,1468,-15142,771,209,475,-279,1,0,58,30,120,0,53298,1
2,26830,32945,31105,87717,33842,-5001,-1277,-1585,1311,-12674,-815,203,473,-263,1,0,58,30,160,0,53298,1
2,26834,32967,31118,87718,33856,-5591,-877,-1208,1524,-11505,-2515,201,489,-237,1,0,58,30,200,0,53298,1
2,26760,32977,31117,87719,33869,-6051,-992,-957,76,-11357,-3875,206,486,-222,1,0,58,30,240,0,53298,1
2,26780,32994,31132,87720,33882,-6285,-674,-1255,-890,-10939,-4874,209,485,-199,1,0,58,30,280,0,53298,1
2,26789,32978,31129,87721,33896,-5630,-415,-1019,-284,-10038,-5439,221,487,-185,1,0,58,30,320,0,53298,1
2,26802,33067,31141,87722,33910,-5692,-270,-1263,-1010,-8241,-4946,219,491,-187,1,0,58,30,360,0,53298,1
2,26793,33284,31150,87723,33923,-4907,-137,-1128,-1549,-6117,-4614,219,487,-177,1,0,58,30,400,0,53298,1
2,26829,33303,31134,87724,33936,-4712,-436,-872,-1884,-4054,-3668,222,488,-182,1,0,58,30,440,0,53298,1
2,26831,33282,31122,87725,33948,-4419,-452,-866,-978,-2576,-3064,226,490,-182,1,0,58,30,480,0,53298,1
2,26806,33293,31141,87726,33960,-5748,750,-1705,3017,2471,-194,218,498,-188,1,0,58,30,520,0,53298,1
2,26841,33388,31194,87727,33972,-4800,-1876,382,-4101,684,-520,228,508,-194,1,0,58,30,560,0,53298,1
2,26833,33394,31220,87728,33984,-5932,201,-468,-573,1148,118,227,513,-207,1,0,58,30,600,0,53298,1
2,26844,33381,31204,87729,33996,-4992,-927,-505,764,1366,-280,223,507,-199,1,0,58,30,640,0,53298,1
2,26854,33365,31201,87730,34008,-4366,-1124,-34,986,1262,-887,215,505,-205,1,0,58,30,680,0,53298,1
2,26853,33394,31210,87731,34020,-4617,-883,37,-71,1118,-646,225,503,-207,1,0,58,30,720,0,53298,1
2,26828,33394,31212,87732,34032,-4711,-1023,-222,-39,980,-299,232,512,-210,1,0,58,30,760,0,53298,1
2,26835,33396,31207,87733,34045,-4669,-954,-292,163,690,-119,223,515,-211,1,0,58,30,800,0,53298,1
2,26788,33401,31210,87734,34057,-4633,-984,-139,107,336,-229,230,498,-222,1,0,58,30,840,0,53298,1
2,26799,33334,31211,87735,34069,-4642,-978,-162,-32,97,-158,227,513,-209,1,0,58,30,880,0,53298,1
2,26791,33327,31212,87736,34081,-4646,-973,-187,-65,-58,-149,220,512,-206,1,0,58,30,920,0,53298,1
2,26818,33366,31208,87737,34093,-4646,-997,-149,-32,-135,-219,232,510,-214,1,0,58,30,960,0,53298,1
1,26807,33326,31212,87738,0,-4629,-1014,-150,-27,-117,-203,219,507,-219,1,0,58,31,0,1,53298,1
2,26815,33321,31216,87739,33358,-4625,-1000,-150,-24,-86,-141,230,508,-210,1,0,58,31,40,1,53298,1
2,26805,33327,31218,87740,33371,-4648,-1000,-150,-33,-100,-68,227,511,-211,1,0,58,31,80,1,53298,1
2,26770,33337,31215,87741,33383,-4625,-1006,-163,-11,-212,21,230,514,-210,1,0,58,31,120,1,53298,1
2,26791,33298,31216,87742,33396,-4643,-993,-143,18,-379,115,228,508,-214,1,0,58,31,160,1,53298,1
2,26868,33293,31217,87743,33408,-4616,-992,-147,43,-548,200,219,511,-209,1,0,58,31,200,1,53298,1
2,26809,33275,31218,87744,33420,-4642,-982,-113,52,-695,287,221,517,-207,1,0,58,31,240,1,53298,1
2,26805,33284,31218,87745,33432,-4629,-990,-91,72,-759,332,227,503,-217,1,0,58,31,280,1,53298,1
2,26908,33297,31220,87746,33444,-4626,-975,-66,73,-734,342,225,505,-215,1,0,58,31,320,1,53298,1
2,26841,33319,31221,87747,33457,-4646,-963,-45,93,-610,298,220,506,-200,1,0,58,31,360,1,53298,1
2,26825,33329,31222,87748,33470,-4638,-957,-28,90,-475,217,230,502,-202,1,0,58,31,400,1,53298,1
2,26797,33329,31221,87749,33482,-4629,-946,-49,57,-364,155,223,505,-203,1,0,58,31,440,1,53298,1
2,26782,33364,31228,87750,33495,-4633,-951,-30,66,-269,84,225,503,-203,1,0,58,31,480,1,53298,1
2,26782,33359,31220,87751,33508,-4622,-947,-36,89,-200,68,228,510,-194,1,0,58,31,520,1,53298,1
2,26770,33343,31227,87752,33522,-4637,-956,-29,45,-185,76,229,507,-207,1,0,58,31,560,1,53298,1
2,26775,33360,31223,87753,33535,-4646,-967,-26,22,-148,81,226,502,-206,1,0,58,31,600,1,53298,1
2,26771,33346,31226,87754,33548,-4638,-957,-24,19,-115,77,218,504,-202,1,0,58,31,640,1,53298,1
2,26790,33344,31223,87755,33562,-4637,-952,-35,12,-46,57,221,509,-201,1,0,58,31,680,1,53298,1
2,26807,33330,31220,87756,33575,-4653,-950,-19,-3,7,13,225,509,-201,1,0,58,31,720,1,53298,1
2,26784,33345,31223,87757,33588,-4636,-960,-10,-22,58,-39,223,511,-199,1,0,58,31,760,1,53298,1
2,26748,33322,31228,87758,33600,-4639,-955,-18,-38,80,-53,223,505,-197,1,0,58,31,800,1,53298,1
2,26739,33324,31226,87759,33613,-4636,-954,-39,-25,70,-44,227,507,-205,1,0,58,31,840,1,53298,1
2,26744,33341,31221,87760,33626,-4634,-960,-33,-16,54,-29,225,505,-203,1,0,58,31,880,1,53298,1
2,26759,33334,31223,87761,33639,-4636,-969,-33,-16,26,-8,223,507,-199,1,0,58,31,920,1,53298,1
2,26750,33341,31222,87762,33652,-4645,-964,-34,-10,-2,7,221,505,-205,1,0,58,31,960,1,53298,1
1,26771,33336,31225,87763,0,-4640,-962,-47,-7,-19,13,224,506,-204,1,0,58,32,0,0,53298,1
2,26760,33338,31223,87764,32913,-4639,-955,-31,-9,-26,14,220,500,-194,1,0,58,32,40,0,53298,1
2,26760,33337,31227,87765,32926,-4635,-958,-36,-6,-9,14,222,508,-206,1,0,58,32,80,0,53298,1
2,26765,33340,31230,87766,32938,-4644,-959,-25,-11,11,10,224,500,-204,1,0,58,32,120,0,53298,1
2,26750,33342,31229,87767,32951,-4647,-969,-48,-8,18,1,219,511,-199,1,0,58,32,160,0,53298,1
2,26755,33344,31230,87768,32964,-4639,-953,-44,-5,14,11,224,516,-206,1,0,58,32,200,0,53298,1
2,26759,33343,31228,87769,32976,-4638,-956,-41,-17,-14,1,227,511,-199,1,0,58,32,240,0,53298,1
2,26780,33343,31228,87770,32989,-4637,-957,-50,-26,-41,-5,220,512,-206,1,0,58,32,280,0,53298,1
2,26796,33327,31227,87771,33002,-4647,-968,-25,-35,-59,-5,221,507,-203,1,0,58,32,320,0,53298,1
2,26802,33333,31227,87772,33014,-4632,-972,-48,-37,-89,-7,226,514,-200,1,0,58,32,360,0,53298,1
2,26807,33327,31228,87773,33027,-4640,-971,-28,-32,-99,3,226,506,-202,1,0,58,32,400,0,53298,1
2,26797,33313,31227,87774,33039,-4635,-963,-24,-1,-78,40,223,507,-205,1,0,58,32,440,0,53298,1
2,26812,33322,31227,87775,33051,-4631,-962,-22,19,-42,71,226,504,-196,1,0,58,32,480,0,53298,1
2,26808,33324,31226,87776,33063,-4639,-964,-18,25,-7,89,232,504,-204,1,0,58,32,520,0,53298,1
2,26812,33324,31225,87777,33076,-4637,-964,-30,24,32,91,220,506,-206,1,0,58,32,560,0,53298,1
2,26810,33334,31226,87778,33089,-4631,-960,-28,25,67,56,222,514,-196,1,0,58,32,600,0,53298,1
2,26781,33341,31224,87779,33102,-4633,-948,-43,6,109,4,227,507,-195,1,0,58,32,640,0,53298,1
2,26760,33325,31225,87780,33114,-4643,-963,-28,-26,135,-52,222,506,-202,1,0,58,32,680,0,53298,1
2,26761,33331,31225,87781,33127,-4636,-958,-34,-43,147,-93,228,504,-210,1,0,58,32,720,0,53298,1
2,26767,33332,31230,87782,33139,-4646,-977,-42,-31,130,-85,225,497,-199,1,0,58,32,760,0,53298,1
2,26763,33344,31230,87783,33153,-4648,-976,-52,-21,117,-57,229,511,-209,1,0,58,32,800,0,53298,1
2,26745,33332,31228,87784,33166,-4639,-966,-51,-20,80,-50,224,506,-192,1,0,58,32,840,0,53298,1
2,26743,33345,31230,87785,33180,-4630,-970,-49,-23,51,-21,224,504,-202,1,0,58,32,880,0,53298,1
2,26782,33348,31225,87786,33193,-4632,-972,-55,-8,29,-4,228,502,-206,1,0,58,32,920,0,53298,1
2,26786,33333,31228,87787,33206,-4631,-984,-49,-1,-5,14,224,508,-202,1,0,58,32,960,0,53298,1
1,26763,33316,31224,87788,0,-4647,-992,-41,6,-31,49,227,507,-193,1,0,58,33,0,1,53298,1
2,26748,33308,31226,87789,32470,-4639,-969,-49,2,-68,52,224,504,-198,1,0,58,33,40,1,53298,1
2,26763,33313,31228,87790,32483,-4634,-967,-45,-2,-90,41,225,505,-203,1,0,58,33,80,1,53298,1
2,26790,33316,31230,87791,32497,-4636,-967,-42,-16,-70,31,233,511,-205,1,0,58,33,120,1,53298,1
2,26779,33316,31226,87792,32509,-4632,-984,-37,-17,-19,22,230,514,-200,1,0,58,33,160,1,53298,1
2,26848,33257,31229,87793,32522,-4637,-969,-41,-14,35,14,224,504,-212,1,0,58,33,200,1,53298,1
2,26898,33317,31225,87794,32536,-4646,-987,-50,-12,51,-9,214,516,-204,1,0,58,33,240,1,53298,1
2,26883,33255,31224,87795,32549,-4642,-977,-53,-10,4,-11,235,503,-197,1,0,58,33,280,1,53298,1
2,26834,33307,31229,87796,32562,-4646,-975,-51,-9,-36,23,225,503,-199,1,0,58,33,320,1,53298,1
2,26751,33310,31232,87797,32575,-4639,-975,-50,-4,-68,60,220,512,-204,1,0,58,33,360,1,53298,1
2,26748,33308,31232,87798,32587,-4639,-970,-44,9,-50,63,219,511,-201,1,0,58,33,400,1,53298,1
2,26756,33302,31227,87799,32600,-4639,-975,-44,-4,18,31,224,502,-194,1,0,58,33,440,1,53298,1
2,26761,33246,31227,87800,32612,-4639,-964,-47,-19,86,-35,222,512,-212,1,0,58,33,480,1,53298,1
2,26757,33258,31230,87801,32624,-4669,-996,-76,-9,119,-111,234,514,-202,1,0,58,33,520,1,53298,1
2,26755,33234,31229,87802,32636,-4662,-941,-35,142,144,-146,224,504,-208,1,0,58,33,560,1,53298,1
2,26729,33226,31221,87803,32648,-4693,-1039,-143,379,148,-103,220,512,-206,1,0,58,33,600,1,53298,1
2,26717,33219,31215,87804,32661,-4820,-970,-239,793,116,92,230,500,-202,1,0,58,33,640,1,53298,1
2,26710,33249,31175,87805,32674,-5154,-1087,-757,1330,-51,282,228,504,-200,1,0,58,33,680,1,53298,1
2,26695,33186,31138,87806,32687,-5085,-892,-1402,3794,503,218,219,509,-201,1,0,58,33,720,1,53298,1
2,26650,30502,31142,87807,32701,-5381,-585,-1130,6742,3482,1457,220,502,-196,1,0,58,33,760,1,53298,1
2,26642,31952,31168,87808,32714,-5989,-97,-1852,5669,8003,3364,221,499,-201,1,0,58,33,800,1,53298,1
2,26640,30693,31164,87809,32728,-5791,-746,-1707,3319,10575,3394,225,493,-209,1,0,58,33,840,1,53298,1
2,26696,29832,31171,87810,32742,-5915,-1281,-1796,1973,12830,3164,223,491,-223,1,0,58,33,880,1,53298,1
2,26698,30840,31152,87811,32755,-5635,-1150,-1418,2538,14529,2216,221,493,-235,1,0,58,33,920,1,53298,1
2,26731,32595,31142,87812,32769,-5250,-1012,-1259,1412,14887,1302,221,483,-259,1,0,58,33,960,1,53298,1
1,26741,32717,31139,87813,0,-4955,-1011,-1393,-1241,14598,951,225,471,-279,1,0,58,34,0,1,53298,1
2,26735,32856,31132,87814,32027,-4729,-1022,-1477,-3273,14094,1136,222,462,-304,1,0,58,34,40,1,53298,1
2,26729,32824,31127,87815,32041,-4528,-860,-1638,-4375,13507,1497,225,445,-329,1,0,58,34,80,1,53298,1
2,26700,33686,31140,87816,32056,-4218,-1167,-1823,-5440,12545,1603,229,435,-347,1,0,58,34,120,1,53298,1
2,26670,32457,31118,87817,32070,-4108,-1661,-1992,-6078,11517,1123,221,417,-361,1,0,58,34,160,1,53298,1
2,26630,32430,31118,87818,32085,-3567,-2478,-2086,-8235,10784,-874,219,405,-365,1,0,58,34,200,1,53298,1
2,26642,32700,31129,87819,32100,-3177,-3626,-1913,-4929,9858,-4584,225,387,-375,1,0,58,34,240,1,53298,1
2,26663,32782,31167,87820,32115,-3308,-3137,-1331,1967,10269,-10505,247,363,-381,1,0,58,34,280,1,53298,1
2,26621,32721,31202,87821,32129,-3065,-803,-171,6089,7961,-16417,263,359,-379,1,0,58,34,320,1,53298,1
2,26630,32787,31210,87822,32144,-3260,206,-611,607,4002,-19513,288,334,-376,1,0,58,34,360,1,53298,1
2,26659,32719,31267,87823,32159,-3252,1087,-1067,-2875,50,-19089,300,316,-378,1,0,58,34,400,1,53298,1
2,26652,32767,31532,87824,32174,-3232,2014,-1441,295,-4199,-15519,315,307,-375,1,0,58,34,440,1,53298,1
2,26622,33488,32712,87825,32188,-3340,1041,-4807,-5673,-13049,-10490,308,298,-372,1,0,58,34,480,1,53298,1
2,26840,32135,33580,87826,32205,-2987,659,-5776,3288,-14812,-3683,320,308,-358,1,0,58,34,520,1,53298,1
2,26826,31998,33658,87827,32222,-3339,-792,-3066,11899,-1545,1285,321,307,-349,1,0,58,34,560,1,53298,1
2,26822,32572,33761,87828,32236,-3453,-2282,-3326,12276,1430,4120,334,308,-340,1,0,58,34,600,1,53298,1
2,26833,31387,33397,87829,32249,-3597,-2745,-2915,13184,5714,-782,339,303,-337,1,0,58,34,640,1,53298,1
2,26739,32420,32778,87830,32262,-3555,-3063,-2185,9524,6687,-5864,349,309,-333,1,0,58,34,680,1,53298,1
2,26765,31978,32140,87831,32276,-3445,-3162,-2358,6010,5460,-8133,344,294,-330,1,0,58,34,720,1,53298,1
2,26860,30302,31930,87832,32290,-3266,-3009,-2217,3146,3512,-7672,363,285,-331,1,0,58,34,760,1,53298,1
2,26879,30915,31730,87833,32304,-3196,-2712,-2139,963,1381,-5994,348,272,-312,1,0,58,34,800,1,53298,1
2,26814,29912,31642,87834,32319,-3101,-2516,-2418,-1541,-1032,-3608,350,282,-320,1,0,58,34,840,1,53298,1
2,26796,31040,31626,87835,32335,-2946,-2526,-2702,-3062,-2614,-1573,357,279,-333,1,0,58,34,880,1,53298,1
2,26809,30959,31639,87836,32350,-2855,-2545,-2935,-1958,-2661,-29,363,271,-317,1,0,58,34,920,1,53298,1
2,26853,31822,31642,87837,32366,-2952,-2522,-2907,-73,-1716,792,364,272,-324,1,0,58,34,960,1,53298,1
1,27286,32234,31803,87838,0,-3074,-2566,-2848,343,-807,958,358,280,-320,1,0,58,35,0,1,53298,1
2,27260,32898,32099,87839,31583,-3067,-2681,-2821,-99,-351,607,362,272,-330,1,0,58,35,40,1,53298,1
2,27345,32784,32298,87840,31598,-3046,-2705,-2734,-389,-2,-108,355,271,-309,1,0,58,35,80,1,53298,1
2,27405,32558,32380,87841,31613,-3041,-2638,-2652,-372,164,-781,359,271,-317,1,0,58,35,120,1,53298,1
2,27378,32533,32183,87842,31628,-3035,-2628,-2690,-121,234,-1029,361,273,-319,1,0,58,35,160,1,53298,1
2,27362,32769,32245,87843,31642,-2991,-2580,-2722,3,235,-829,364,274,-318,1,0,58,35,200,1,53298,1
2,27271,32655,32164,87844,31656,-2983,-2584,-2711,142,235,-395,362,274,-326,1,0,58,35,240,1,53298,1
2,27011,32323,31633,87845,31670,-2937,-2604,-2717,211,142,51,360,274,-316,1,0,58,35,280,1,53298,1
2,27355,33308,31699,87846,31685,-2941,-2663,-2730,247,34,313,358,276,-312,1,0,58,35,320,1,53298,1
2,27117,32620,31796,87847,31699,-2940,-2666,-2780,290,36,328,359,277,-323,1,0,58,35,360,1,53298,1
2,27358,33345,32238,87848,31715,-2918,-2691,-2774,265,119,231,348,270,-318,1,0,58,35,400,1,53298,1
2,27263,33504,32173,87849,31729,-2913,-2793,-2788,181,308,111,355,271,-313,1,0,58,35,440,1,53298,1
2,26840,32907,31569,87850,31744,-2884,-2718,-2719,421,586,-116,357,279,-321,1,0,58,35,480,1,53298,1
2,27261,33605,32174,87851,31758,-2867,-2706,-2698,176,573,-253,363,277,-323,1,0,58,35,520,1,53298,1
2,26910,33060,31572,87852,31773,-2873,-2673,-2710,113,402,-298,359,279,-323,1,0,58,35,560,1,53298,1
2,26786,33012,31562,87853,31788,-2875,-2655,-2787,158,180,-212,364,274,-324,1,0,58,35,600,1,53298,1
2,26788,33045,31562,87854,31802,-2892,-2624,-2805,432,186,-46,361,269,-321,1,0,58,35,640,1,53298,1
2,26789,33066,31557,87855,31816,-2877,-2667,-2794,326,221,231,369,261,-323,1,0,58,35,680,1,53298,1
2,26796,33060,31556,87856,31830,-2867,-2741,-2768,296,314,392,361,275,-323,1,0,58,35,720,1,53298,1
2,26804,33102,31558,87857,31845,-2863,-2754,-2719,444,352,311,359,269,-321,1,0,58,35,760,1,53298,1
2,26790,33089,31551,87858,31859,-2851,-2781,-2743,252,291,190,357,273,-315,1,0,58,35,800,1,53298,1
2,26774,33120,31552,87859,31872,-2881,-2752,-2723,339,257,54,358,274,-320,1,0,58,35,840,1,53298,1
2,26819,33066,31552,87860,31886,-2888,-2727,-2710,234,77,35,369,275,-319,1,0,58,35,880,1,53298,1
2,26774,33101,31561,87861,31900,-2854,-2692,-2777,58,-57,178,366,282,-316,1,0,58,35,920,1,53298,1
2,26773,33082,31563,87862,31914,-2846,-2700,-2774,150,-26,312,359,279,-321,1,0,58,35,960,1,53298,1
1,26760,33030,31564,87863,0,-2842,-2736,-2748,184,31,376,365,265,-325,1,0,58,36,0,1,53298,1
2,26766,33046,31567,87864,31138,-2868,-2729,-2729,154,29,308,357,279,-317,1,0,58,36,40,1,53298,1
2,26775,33092,31569,87865,31152,-2866,-2797,-2781,-45,-19,205,359,271,-321,1,0,58,36,80,1,53298,1
2,26774,33013,31568,87866,31166,-2861,-2710,-2738,146,14,65,367,275,-317,1,0,58,36,120,1,53298,1
2,26764,33018,31572,87867,31181,-2859,-2703,-2768,-41,-59,93,360,278,-330,1,0,58,36,160,1,53298,1
2,26788,32976,31575,87868,31195,-2884,-2748,-2755,38,-27,106,356,284,-316,1,0,58,36,200,1,53298,1
2,26819,32984,31570,87869,31208,-2868,-2688,-2749,103,-40,130,364,270,-330,1,0,58,36,240,1,53298,1
2,26807,32956,31571,87870,31222,-2863,-2738,-2770,-152,-90,138,361,275,-319,1,0,58,36,280,1,53298,1
2,26770,33021,31576,87871,31236,-2918,-2788,-2721,-102,-6,107,355,273,-319,1,0,58,36,320,1,53298,1
2,26761,32956,31579,87872,31249,-2904,-2647,-2711,3,-74,55,355,271,-321,1,0,58,36,360,1,53298,1
2,26761,33144,31588,87873,31262,-2851,-2802,-2805,-150,-194,133,362,278,-326,1,0,58,36,400,1,53298,1
2,26735,33043,31592,87874,31276,-2902,-2637,-2799,-171,57,103,358,268,-318,1,0,58,36,440,1,53298,1
2,26788,33010,31581,87875,31289,-2880,-2704,-2788,114,246,134,353,279,-319,1,0,58,36,480,1,53298,1
2,26744,32964,31583,87876,31302,-2893,-2748,-2718,462,385,48,365,279,-317,1,0,58,36,520,1,53298,1
2,26742,32975,31580,87877,31315,-2717,-2782,-2646,-704,534,-14,361,277,-315,1,0,58,36,560,1,53298,1
2,26745,33302,31601,87878,31328,-2875,-1928,-3542,-2911,1988,1870,348,268,-324,1,0,58,36,600,1,53298,1
2,26795,33278,31628,87879,31341,-2951,-1777,-2968,2550,3678,4463,360,284,-320,1,0,58,36,640,1,53298,1
2,26767,33389,31624,87880,31354,-3167,-1755,-2898,1040,3208,6267,353,293,-325,1,0,58,36,680,1,53298,1
2,26815,31630,31607,87881,31368,-3020,-955,-3033,-2120,2515,8623,351,291,-333,1,0,58,36,720,1,53298,1
2,26775,31282,31602,87882,31382,-2946,-1370,-3386,-3606,1861,10118,340,304,-336,1,0,58,36,760,1,53298,1
2,26790,32593,31559,87883,31395,-3048,-924,-3024,-413,2415,10813,335,323,-347,1,0,58,36,800,1,53298,1
2,26783,31041,31521,87884,31409,-3424,-1072,-2921,-924,2495,11392,322,332,-340,1,0,58,36,840,1,53298,1
2,26822,31176,31379,87885,31423,-3530,-860,-2486,-2665,2099,11489,313,339,-359,1,0,58,36,880,1,53298,1
2,26908,32315,31489,87886,31437,-3293,-1039,-1455,-6760,637,11881,297,355,-367,1,0,58,36,920,1,53298,1
2,26896,32891,31616,87887,31451,-3596,-561,-205,-8098,-561,12145,278,372,-380,1,0,58,36,960,1,53298,1
1,26685,32825,31362,87888,0,-3955,-1786,-1062,-17139,-5869,10602,257,375,-389,1,0,58,37,0,1,53298,1
2,26682,29790,31114,87889,30693,-3608,-2304,-2045,-16146,-14048,7088,244,398,-372,1,0,58,37,40,1,53298,1
2,26755,29832,31160,87890,30706,-4000,-1599,-1884,-7772,-16175,3441,214,418,-360,1,0,58,37,80,1,53298,1
2,26716,29928,31206,87891,30718,-3918,-1561,-1944,-9505,-17816,25,215,439,-331,1,0,58,37,120,1,53298,1
2,26731,30127,31255,87892,30731,-4210,-1589,-2427,-9981,-17572,-1804,214,456,-314,1,0,58,37,160,1,53298,1
2,26695,29931,31216,87893,30745,-4538,-1322,-1958,-3309,-15449,-4526,213,459,-289,1,0,58,37,200,1,53298,1
2,26690,31158,31165,87894,30759,-4596,-687,-1518,463,-14426,-5944,218,468,-270,1,0,58,37,240,1,53298,1
2,26682,29777,31182,87895,30772,-5111,-363,-1190,1781,-13618,-6156,233,479,-241,1,0,58,37,280,1,53298,1
2,26630,29801,31148,87896,30786,-5233,-225,-1340,1151,-12611,-5892,236,478,-218,1,0,58,37,320,1,53298,1
2,26674,30332,31166,87897,30799,-5132,-187,-1160,2860,-11171,-5098,234,486,-208,1,0,58,37,360,1,53298,1
2,26734,29888,31205,87898,30812,-5408,-98,-949,2294,-9254,-3498,239,485,-201,1,0,58,37,400,1,53298,1
2,26773,31982,31230,87899,30825,-5684,-104,-920,1254,-7437,-2689,226,480,-184,1,0,58,37,440,1,53298,1
2,26806,30873,31205,87900,30839,-5735,-264,-829,945,-5806,-2223,231,481,-183,1,0,58,37,480,1,53298,1
2,26842,31186,31173,87901,30854,-4259,-1143,507,178,-4690,-1707,214,486,-172,1,0,58,37,520,1,53298,1
2,26832,32420,31158,87902,30867,-6095,-248,73,4940,3197,-78,210,500,-176,1,0,58,37,560,1,53298,1
2,26742,32613,31232,87903,30880,-5936,-793,-1042,-3561,-406,-415,215,497,-185,1,0,58,37,600,1,53298,1
2,26736,32745,31211,87904,30893,-4601,-1117,-34,2260,755,-1090,218,496,-192,1,0,58,37,640,1,53298,1
2,26745,32473,31191,87905,30906,-4301,-971,346,941,701,-856,216,500,-184,1,0,58,37,680,1,53298,1
2,26758,32498,31205,87906,30919,-4634,-838,149,61,441,11,200,506,-178,1,0,58,37,720,1,53298,1
2,26750,32547,31191,87907,30932,-4814,-910,-232,685,440,530,211,503,-181,1,0,58,37,760,1,53298,1
2,26740,32626,31178,87908,30945,-4678,-842,-157,743,468,467,205,499,-189,1,0,58,37,800,1,53298,1
2,26739,32695,31181,87909,30958,-4575,-873,8,566,119,346,201,505,-189,1,0,58,37,840,1,53298,1
2,26734,32734,31171,87910,30971,-4657,-808,5,451,19,406,203,511,-189,1,0,58,37,880,1,53298,1
2,26739,32802,31170,87911,30984,-4684,-753,-12,599,-11,339,216,502,-200,1,0,58,37,920,1,53298,1
2,26745,32758,31170,87912,30997,-4654,-808,-16,272,-104,80,199,497,-191,1,0,58,37,960,1,53298,1
1,26745,32731,31178,87913,0,-4631,-811,18,32,-144,-86,215,501,-185,1,0,58,38,0,1,53298,1
2,26739,32735,31176,87914,30249,-4639,-822,5,5,-117,-91,206,504,-192,1,0,58,38,40,1,53298,1
2,26745,32725,31183,87915,30262,-4640,-828,-8,48,-51,-87,208,498,-180,1,0,58,38,80,1,53298,1
2,26780,32660,31174,87916,30275,-4631,-831,12,62,-9,-29,220,506,-188,1,0,58,38,120,1,53298,1
2,26773,32722,31174,87917,30287,-4643,-812,6,36,-5,41,212,508,-190,1,0,58,38,160,1,53298,1
2,26744,32688,31179,87918,30300,-4636,-815,-11,25,-43,66,206,508,-190,1,0,58,38,200,1,53298,1
2,26732,32633,31173,87919,30313,-4646,-824,-9,49,-122,73,209,505,-181,1,0,58,38,240,1,53298,1
2,26714,32576,31163,87920,30325,-4641,-825,14,52,-165,68,199,503,-199,1,0,58,38,280,1,53298,1
2,26702,32554,31174,87921,30337,-4654,-835,9,99,-142,56,202,496,-186,1,0,58,38,320,1,53298,1
2,26700,32514,31171,87922,30350,-4648,-827,9,97,-141,53,203,503,-183,1,0,58,38,360,1,53298,1
2,26709,32445,31171,87923,30363,-4644,-800,39,151,-98,45,210,506,-180,1,0,58,38,400,1,53298,1
2,26697,32347,31167,87924,30375,-4646,-815,33,65,-106,69,212,504,-184,1,0,58,38,440,1,53298,1
2,26692,32331,31164,87925,30388,-4635,-819,30,40,-87,57,215,507,-183,1,0,58,38,480,1,53298,1
2,26667,32176,31160,87926,30400,-4647,-825,24,34,-57,36,208,506,-188,1,0,58,38,520,1,53298,1
2,26666,32189,31161,87927,30412,-4644,-817,20,13,-49,29,210,510,-188,1,0,58,38,560,1,53298,1
2,26676,32255,31160,87928,30425,-4655,-829,16,17,-50,36,198,510,-182,1,0,58,38,600,1,53298,1
2,26750,32353,31161,87929,30437,-4640,-824,16,27,-49,33,199,505,-183,1,0,58,38,640,1,53298,1
2,26700,32394,31161,87930,30449,-4652,-816,17,30,-48,41,202,496,-186,1,0,58,38,680,1,53298,1
2,26711,32383,31162,87931,30462,-4637,-810,45,18,-53,43,211,505,-197,1,0,58,38,720,1,53298,1
2,26674,32431,31167,87932,30475,-4633,-810,21,3,-41,40,210,508,-192,1,0,58,38,760,1,53298,1
2,26672,32527,31166,87933,30488,-4634,-818,32,6,-43,33,204,510,-184,1,0,58,38,800,1,53298,1
2,26679,32581,31170,87934,30502,-4644,-817,30,4,-29,23,207,499,-181,1,0,58,38,840,1,53298,1
2,26692,32443,31166,87935,30514,-4641,-804,18,0,-27,17,210,504,-192,1,0,58,38,880,1,53298,1
2,26680,32403,31168,87936,30527,-4647,-816,21,-3,-19,24,209,505,-185,1,0,58,38,920,1,53298,1
2,26715,32570,31160,87937,30540,-4649,-822,47,-8,-21,23,214,510,-184,1,0,58,38,960,1,53298,1
1,26763,32510,31162,87938,0,-4646,-818,40,-8,-15,19,209,507,-183,1,0,58,39,0,0,53298,1
2,26778,32508,31170,87939,29806,-4645,-808,31,-11,-21,16,207,509,-185,1,0,58,39,40,0,53298,1
2,26769,32487,31164,87940,29819,-4655,-816,29,0,-15,18,207,509,-183,1,0,58,39,80,0,53298,1
2,26780,32507,31172,87941,29832,-4632,-805,22,-6,-20,24,199,505,-185,1,0,58,39,120,0,53298,1
2,26809,32525,31172,87942,29846,-4635,-814,34,-7,-13,23,203,497,-193,1,0,58,39,160,0,53298,1
2,26681,32533,31176,87943,29859,-4646,-815,33,-5,-13,21,204,508,-186,1,0,58,39,200,0,53298,1
2,26689,32534,31177,87944,29872,-4644,-807,29,-4,-18,22,206,504,-190,1,0,58,39,240,0,53298,1
2,26688,32500,31177,87945,29884,-4648,-816,35,-9,-6,29,212,498,-188,1,0,58,39,280,0,53298,1
2,26686,32434,31172,87946,29898,-4644,-813,12,-2,-15,14,209,493,-189,1,0,58,39,320,0,53298,1
2,26689,32450,31176,87947,29911,-4633,-819,36,-7,-10,9,214,504,-182,1,0,58,39,360,0,53298,1
2,26695,32285,31176,87948,29924,-4639,-818,34,-13,-6,14,202,504,-176,1,0,58,39,400,0,53298,1
2,26694,32332,31176,87949,29938,-4643,-821,15,1,-3,17,203,505,-191,1,0,58,39,440,0,53298,1
2,26686,32289,31173,87950,29950,-4649,-819,36,-7,-2,20,209,497,-179,1,0,58,39,480,0,53298,1
2,26682,32301,31176,87951,29962,-4638,-802,44,-1,-13,24,207,501,-195,1,0,58,39,520,0,53298,1
2,26688,32279,31171,87952,29975,-4649,-811,22,-7,-10,19,204,498,-188,1,0,58,39,560,0,53298,1
2,26692,32235,31170,87953,29987,-4642,-808,32,-11,-7,-2,206,506,-182,1,0,58,39,600,0,53298,1
2,26689,32198,31170,87954,30000,-4648,-818,25,-11,-9,-6,203,501,-187,1,0,58,39,640,0,53298,1
2,26694,32218,31174,87955,30012,-4637,-825,16,17,-9,-7,207,505,-185,1,0,58,39,680,0,53298,1
2,26695,32202,31171,87956,30025,-4658,-815,49,7,-14,25,216,496,-184,1,0,58,39,720,0,53298,1
2,26704,32240,31171,87957,30038,-4641,-820,11,2,-30,10,206,502,-184,1,0,58,39,760,0,53298,1
2,26692,32220,31171,87958,30050,-4646,-808,32,18,-55,-22,212,508,-184,1,0,58,39,800,0,53298,1
2,26701,32274,31171,87959,30063,-4690,-836,10,205,30,-32,203,503,-191,1,0,58,39,840,0,53298,1
2,26682,32161,31156,87960,30075,-4717,-804,-46,454,160,-46,210,500,-172,1,0,58,39,880,0,53298,1
2,26691,32335,31143,87961,30088,-4926,-798,-398,985,348,-64,208,504,-176,1,0,58,39,920,0,53298,1
2,26653,32605,31105,87962,30101,-5136,-1047,-1220,2713,803,-170,212,498,-186,1,0,58,39,960,0,53298,1
1,26685,33931,31109,87963,0,-4989,-594,-1978,7881,2869,653,207,501,-185,1,0,58,40,0,0,53298,1
2,26870,29939,31196,87964,29363,-5755,-297,-1732,11062,7709,2340,216,498,-190,1,0,58,40,40,0,53298,1
2,26838,30421,31152,87965,29376,-6050,71,-1941,8377,11278,3840,209,501,-203,1,0,58,40,80,0,53298,1
2,26945,32883,31231,87966,29389,-5669,-619,-1695,4268,12546,3238,210,496,-216,1,0,58,40,120,0,53298,1
2,26942,33408,31223,87967,29402,-5312,-1019,-1610,1756,14288,2908,207,497,-235,1,0,58,40,160,0,53298,1
2,26962,32863,31175,87968,29415,-4884,-1046,-1263,1235,15152,2186,213,491,-263,1,0,58,40,200,0,53298,1
2,27063,31646,31118,87969,29428,-4794,-901,-916,356,15053,1188,226,486,-282,1,0,58,40,240,0,53298,1
2,26947,32007,31130,87970,29441,-4777,-1072,-1074,-1756,14055,440,219,483,-305,1,0,58,40,280,0,53298,1
2,27072,32459,31184,87971,29454,-4641,-805,-1547,-2915,12750,-216,223,459,-333,1,0,58,40,320,0,53298,1
2,27059,33829,31330,87972,29467,-4529,-534,-1686,-3428,11636,-500,223,445,-349,1,0,58,40,360,0,53298,1
2,27084,33552,31319,87973,29480,-4416,-548,-1920,-4786,10372,-227,226,428,-356,1,0,58,40,400,0,53298,1
2,27110,33431,31198,87974,29493,-4078,-12,-1648,-5897,9390,-726,219,427,-365,1,0,58,40,440,0,53298,1
2,27202,32399,31171,87975,29507,-3812,-1110,-2190,-6651,7419,-1173,222,398,-370,1,0,58,40,480,0,53298,1
2,27394,32190,31091,87976,29520,-3153,-2128,-2361,-5188,5610,-1074,211,395,-377,1,0,58,40,520,0,53298,1
2,27428,31964,31246,87977,29532,-2867,-3290,-2647,-1047,5122,-1844,227,391,-375,1,0,58,40,560,0,53298,1
2,27493,31792,31285,87978,29545,-2701,-3322,-2581,5535,5967,-6414,247,375,-383,1,0,58,40,600,0,53298,1
2,27484,31807,31316,87979,29558,-3281,-1885,-1212,8782,5040,-12725,267,355,-379,1,0,58,40,640,0,53298,1
2,27259,32427,31313,87980,29571,-3570,-383,-968,3334,2199,-17592,280,340,-372,1,0,58,40,680,0,53298,1
2,27192,32359,31290,87981,29585,-3727,187,-816,-1898,-317,-20148,313,323,-373,1,0,58,40,720,0,53298,1
2,27219,32095,31370,87982,29599,-4087,2257,-646,-1219,-3964,-19388,311,311,-363,1,0,58,40,760,0,53298,1
2,26933,32018,31832,87983,29612,-3226,3473,-3076,-3980,-9876,-15005,327,305,-357,1,0,58,40,800,0,53298,1
2,27419,33956,32917,87984,29626,-3882,460,-7364,1480,-16743,-7757,335,305,-347,1,0,58,40,840,0,53298,1
2,27278,33958,32877,87985,29641,-2987,-891,-3390,20060,-1027,-3000,341,303,-335,1,0,58,40,880,0,53298,1
2,27540,33965,32369,87986,29655,-3180,-1411,-2759,15318,3808,1007,349,305,-325,1,0,58,40,920,0,53298,1
2,27540,33904,31923,87987,29668,-3663,-2907,-2990,100,5879,-2023,356,302,-326,1,0,58,40,960,0,53298,1
1,28117,33789,32100,87988,0,-3326,-3570,-2663,1347,5003,-2250,341,295,-317,1,0,58,41,0,1,53298,1
2,28265,33372,31676,87989,28919,-3276,-3281,-2005,3217,4470,-2746,359,295,-331,1,0,58,41,40,1,53298,1
2,27590,32867,31538,87990,28932,-3287,-3015,-2174,685,2556,-3008,353,285,-319,1,0,58,41,80,1,53298,1
2,28020,32667,31587,87991,28946,-3066,-2915,-2328,-51,624,-2894,358,288,-324,1,0,58,41,120,1,53298,1
2,27637,31938,31425,87992,28959,-3017,-2670,-2466,43,-363,-2399,363,281,-319,1,0,58,41,160,1,53298,1
2,27695,31552,31420,87993,28972,-3085,-2396,-2518,-875,-1102,-1588,357,281,-315,1,0,58,41,200,1,53298,1
2,27559,31683,31394,87994,28986,-3024,-2571,-2852,-2238,-1877,-663,366,276,-318,1,0,58,41,240,1,53298,1
2,27619,31851,31384,87995,28999,-3041,-2587,-2877,-790,-1526,-415,360,278,-322,1,0,58,41,280,1,53298,1
2,27643,31869,31396,87996,29012,-3086,-2340,-2769,-249,-1108,-403,364,282,-326,1,0,58,41,320,1,53298,1
2,27711,32206,31446,87997,29026,-3068,-2388,-2774,-1483,-1114,-234,363,275,-319,1,0,58,41,360,1,53298,1
2,27696,32284,31476,87998,29040,-3100,-2623,-2747,-1624,-814,-410,359,277,-319,1,0,58,41,400,1,53298,1
2,27663,32236,31449,87999,29054,-3139,-2541,-2699,-811,-414,-850,353,273,-319,1,0,58,41,440,1,53298,1
2,27750,32058,31377,88000,29068,-3127,-2523,-2711,-555,-268,-1204,361,271,-317,1,0,58,41,480,1,53298,1
2,27740,31924,31495,88001,29083,-3122,-2544,-2666,-677,-131,-1328,362,268,-330,1,0,58,41,520,1,53298,1
2,27820,31756,31579,88002,29097,-3138,-2528,-2665,-839,-64,-1306,353,271,-325,1,0,58,41,560,1,53298,1
2,27514,31834,31438,88003,29111,-3096,-2485,-2634,-384,-123,-1266,360,270,-326,1,0,58,41,600,1,53298,1
2,27492,31616,31319,88004,29124,-3080,-2456,-2703,-55,-202,-1012,365,271,-327,1,0,58,41,640,1,53298,1
2,27490,31614,31318,88005,29138,-3068,-2462,-2697,-78,-238,-639,356,262,-326,1,0,58,41,680,1,53298,1
2,27508,31619,31310,88006,29152,-3083,-2477,-2711,-31,-189,-338,362,268,-328,1,0,58,41,720,1,53298,1
2,27538,31735,31311,88007,29167,-3051,-2503,-2703,-291,-265,-95,361,265,-327,1,0,58,41,760,1,53298,1
2,27584,31704,31318,88008,29181,-3058,-2558,-2730,-153,-174,11,365,265,-327,1,0,58,41,800,1,53298,1
2,27514,31529,31317,88009,29196,-3069,-2507,-2739,259,-16,8,357,271,-307,1,0,58,41,840,1,53298,1
2,27505,31495,31315,88010,29210,-3040,-2499,-2734,209,63,115,371,265,-325,1,0,58,41,880,1,53298,1
2,27532,31537,31318,88011,29224,-3047,-2524,-2736,8,142,248,357,267,-329,1,0,58,41,920,1,53298,1
2,27508,31480,31310,88012,29238,-3040,-2595,-2754,75,281,261,369,265,-323,1,0,58,41,960,1,53298,1
1,27538,31272,31311,88013,0,-3067,-2556,-2686,554,420,232,367,265,-321,1,0,58,42,0,0,53298,1
2,27505,31399,31311,88014,28477,-3031,-2572,-2698,394,335,331,358,266,-328,1,0,58,42,40,0,53298,1
2,27502,31330,31310,88015,28491,-3009,-2547,-2717,371,267,391,366,258,-318,1,0,58,42,80,0,53298,1
2,27534,31165,31318,88016,28506,-3007,-2578,-2751,322,221,412,359,269,-317,1,0,58,42,120,0,53298,1
2,27512,31059,31319,88017,28520,-3008,-2615,-2762,377,298,416,371,269,-323,1,0,58,42,160,0,53298,1
2,27543,30843,31322,88018,28534,-3004,-2557,-2696,499,382,383,360,274,-320,1,0,58,42,200,0,53298,1
2,27555,30925,31322,88019,28547,-2984,-2590,-2704,297,308,420,360,272,-316,1,0,58,42,240,0,53298,1
2,27597,30932,31321,88020,28561,-2989,-2610,-2720,407,302,413,359,277,-331,1,0,58,42,280,0,53298,1
2,27592,30890,31325,88021,28575,-2985,-2593,-2739,430,226,388,365,275,-315,1,0,58,42,320,0,53298,1
2,27595,30796,31328,88022,28589,-2968,-2626,-2742,302,180,344,371,279,-321,1,0,58,42,360,0,53298,1
2,27550,30882,31330,88023,28603,-2985,-2594,-2746,432,218,255,365,277,-325,1,0,58,42,400,0,53298,1
2,27537,30880,31332,88024,28618,-2982,-2609,-2743,306,162,215,366,268,-326,1,0,58,42,440,0,53298,1
2,27510,30835,31330,88025,28632,-2969,-2642,-2778,199,190,179,360,270,-328,1,0,58,42,480,0,53298,1
2,27528,30820,31334,88026,28647,-2957,-2616,-2731,360,257,85,363,267,-323,1,0,58,42,520,0,53298,1
2,27520,30830,31335,88027,28661,-2944,-2667,-2766,262,222,11,364,274,-320,1,0,58,42,560,0,53298,1
2,27493,30954,31340,88028,28674,-2933,-2753,-2720,221,184,-126,365,277,-319,1,0,58,42,600,0,53298,1
2,27409,30970,31348,88029,28688,-2924,-2557,-2713,-535,253,-53,365,277,-323,1,0,58,42,640,0,53298,1
2,27370,31031,31354,88030,28701,-2990,-2470,-2780,-626,639,453,346,272,-318,1,0,58,42,680,0,53298,1
2,27377,33060,31371,88031,28715,-2660,-2746,-2857,-858,976,1299,363,275,-321,1,0,58,42,720,0,53298,1
2,27369,34030,31407,88032,28729,-3444,-1802,-3316,-1537,3065,3311,349,269,-327,1,0,58,42,760,0,53298,1
2,27390,34049,31423,88033,28743,-2944,-2116,-2799,1517,2866,3695,356,284,-328,1,0,58,42,800,0,53298,1
2,27232,34079,31439,88034,28757,-2980,-2269,-2924,-787,2851,4985,355,287,-325,1,0,58,42,840,0,53298,1
2,27453,34088,31441,88035,28771,-3176,-1821,-3203,-618,2799,5745,350,290,-340,1,0,58,42,880,0,53298,1
2,28329,34096,31450,88036,28786,-2940,-1784,-3020,397,2609,6078,349,301,-329,1,0,58,42,920,0,53298,1
2,28660,34091,31474,88037,28801,-3049,-1113,-3017,1019,2326,7262,350,306,-342,1,0,58,42,960,0,53298,1
1,27740,34090,31477,88038,0,-3093,-1101,-3353,1525,2286,8484,337,317,-341,1,0,58,43,0,0,53298,1
2,28341,34074,31470,88039,28035,-3186,-784,-3285,1735,2742,9763,333,321,-337,1,0,58,43,40,0,53298,1
2,28994,34240,31659,88040,28050,-3365,-895,-3260,1122,3424,10911,329,331,-357,1,0,58,43,80,0,53298,1
2,28555,34012,31417,88041,28065,-3493,-201,-2357,700,3570,10951,319,349,-355,1,0,58,43,120,0,53298,1
2,28316,33539,31361,88042,28078,-3450,-476,-1797,-5564,2188,10890,299,343,-365,1,0,58,43,160,0,53298,1
2,27914,33067,31175,88043,28091,-3352,-375,-325,-8298,-480,10683,286,360,-378,1,0,58,43,200,0,53298,1
2,27805,33526,31147,88044,28104,-3641,-1797,-406,-16007,-4763,10755,257,381,-383,1,0,58,43,240,0,53298,1
2,28274,33374,31065,88045,28117,-3469,-2561,-1606,-12596,-11358,7420,241,401,-375,1,0,58,43,280,0,53298,1
2,28850,33425,31199,88046,28131,-3618,-2514,-1865,-7053,-15955,4874,229,427,-367,1,0,58,43,320,0,53298,1
2,28283,33506,31159,88047,28144,-3791,-1979,-2207,4241,-16630,3158,220,446,-338,1,0,58,43,360,0,53298,1
2,28245,33445,31205,88048,28157,-4376,-887,-1785,8922,-16085,2276,206,454,-308,1,0,58,43,400,0,53298,1
2,28050,33328,31129,88049,28171,-4720,-826,-1773,3193,-17388,1627,215,473,-295,1,0,58,43,440,0,53298,1
2,28174,33646,31352,88050,28184,-4989,-1048,-2065,-1949,-16675,462,211,483,-261,1,0,58,43,480,0,53298,1
2,27948,33409,31138,88051,28197,-5195,-654,-1854,-3394,-15063,-992,208,482,-242,1,0,58,43,520,0,53298,1
2,27813,33172,31110,88052,28209,-5534,-478,-1717,-3821,-13794,-1932,197,485,-219,1,0,58,43,560,0,53298,1
2,27808,33172,31102,88053,28222,-5786,-278,-1347,-1673,-11809,-2356,206,482,-202,1,0,58,43,600,0,53298,1
2,27773,33252,31109,88054,28237,-5612,-600,-1171,-2477,-10042,-2226,189,483,-187,1,0,58,43,640,0,53298,1
2,27847,33306,31122,88055,28251,-5858,-133,-1138,-2685,-8111,-2353,189,479,-185,1,0,58,43,680,0,53298,1
2,27783,33268,31115,88056,28265,-5138,-406,-959,-3221,-6748,-2657,181,485,-165,1,0,58,43,720,0,53298,1
2,27884,33387,31124,88057,28279,-5073,-679,-519,-2688,-4678,-2225,188,476,-166,1,0,58,43,760,0,53298,1
2,27951,33213,31103,88058,28293,-4977,-700,-256,471,-3237,-2293,184,492,-160,1,0,58,43,800,0,53298,1
2,27904,33127,31079,88059,28307,-4992,-526,226,2168,-3010,-2231,181,497,-155,1,0,58,43,840,0,53298,1
2,27900,33056,31075,88060,28320,-4597,-680,105,2956,-2975,-1906,183,493,-157,1,0,58,43,880,0,53298,1
2,27725,33004,31086,88061,28334,-4508,-769,96,2792,-2781,-1646,181,497,-159,1,0,58,43,920,0,53298,1
2,27705,33118,31089,88062,28346,-5243,-90,-1272,4430,552,-217,179,505,-171,1,0,58,43,960,0,53298,1
1,27697,33165,31118,88063,0,-5021,-347,-553,-1597,1001,87,168,506,-172,1,0,58,44,0,0,53298,1
