,sensorStatus,cap1,cap2,cap3,counter,microseconds_since_last_tick,accX,accY,accZ,gyroX,gyroY,gyroZ,magnetX,magnetY,magnetZ,day,hour,min,sec,msec,sync,battery_fuel,crc_good
0,1,31863,30611,32719,35339,6749,-4378,-795,-1030,-1,-13,6,197,449,-215,1,0,23,35,40,0,53298,1
1,2,31867,30569,32718,35340,6746,-4375,-813,-1028,21,-2,5,189,451,-219,1,0,23,35,80,0,53298,1
2,2,31865,30659,32725,35341,6743,-4380,-808,-1034,4,-5,4,189,459,-211,1,0,23,35,120,0,53298,1
3,2,31877,30707,32726,35342,6741,-4387,-813,-1027,7,-4,9,192,456,-218,1,0,23,35,160,0,53298,1
4,2,31870,30729,32732,35343,6739,-4379,-813,-1024,2,-22,14,183,439,-221,1,0,23,35,200,0,53298,1
5,2,31865,30720,32726,35344,6737,-4387,-807,-1035,-21,-42,20,190,444,-218,1,0,23,35,240,0,53298,1
6,2,31867,30693,32718,35345,6734,-4374,-806,-1029,2,-38,36,190,450,-220,1,0,23,35,280,0,53298,1
7,2,31864,30726,32718,35346,6732,-4386,-812,-1025,7,-1,11,188,442,-204,1,0,23,35,320,0,53298,1
8,2,31864,30724,32725,35347,6729,-4377,-803,-1025,-7,18,-4,181,449,-219,1,0,23,35,360,0,53298,1
9,2,31864,30762,32730,35348,6727,-4380,-803,-1040,3,-7,-14,190,446,-212,1,0,23,35,400,0,53298,1
10,2,31862,30761,32719,35349,6724,-4372,-813,-1014,2,-25,2,189,459,-209,1,0,23,35,440,0,53298,1
11,2,31865,30776,32720,35350,6723,-4375,-812,-1019,-12,-28,19,193,449,-215,1,0,23,35,480,0,53298,1
12,2,31863,30792,32725,35351,6721,-4385,-804,-1024,-4,-15,21,197,449,-211,1,0,23,35,520,0,53298,1
13,2,31859,30781,32717,35352,6719,-4380,-808,-1025,-16,-6,24,187,451,-223,1,0,23,35,560,0,53298,1
14,2,31860,30779,32725,35353,6717,-4370,-800,-1016,-6,-13,24,184,454,-218,1,0,23,35,600,0,53298,1
15,2,31868,30787,32716,35354,6715,-4381,-811,-1021,-2,-22,19,198,442,-216,1,0,23,35,640,0,53298,1
16,2,31858,30782,32724,35355,6713,-4384,-807,-1022,-9,-25,13,193,455,-217,1,0,23,35,680,0,53298,1
17,2,31861,30790,32712,35356,6710,-4375,-806,-1018,-4,-16,13,189,445,-213,1,0,23,35,720,0,53298,1
18,2,31862,30799,32723,35357,6707,-4389,-814,-1033,-4,2,14,190,446,-220,1,0,23,35,760,0,53298,1
19,2,31858,30791,32728,35358,6705,-4381,-806,-1036,3,3,14,194,448,-214,1,0,23,35,800,0,53298,1
20,2,31865,30797,32729,35359,6703,-4399,-820,-1028,-22,-23,18,194,448,-216,1,0,23,35,840,0,53298,1
21,2,31868,30805,32729,35360,6700,-4377,-802,-1021,11,-26,15,189,453,-217,1,0,23,35,880,0,53298,1
22,2,31862,30805,32725,35361,6698,-4385,-808,-1029,-6,-21,14,191,449,-213,1,0,23,35,920,0,53298,1
23,2,31863,30799,32715,35362,6698,-4388,-804,-1016,-30,-7,20,199,441,-217,1,0,23,35,960,0,53298,1
24,1,31859,30772,32718,35363,6227,-4382,-810,-1016,8,-14,21,192,450,-222,1,0,23,36,0,1,53298,1
25,2,31862,30775,32723,35364,6225,-4374,-808,-1019,-3,3,9,190,442,-218,1,0,23,36,40,1,53298,1
26,2,31869,30771,32727,35365,6222,-4382,-806,-1034,-7,3,-5,192,448,-222,1,0,23,36,80,1,53298,1
27,2,31867,30794,32726,35366,6220,-4376,-798,-1027,-1,-19,-5,193,451,-219,1,0,23,36,120,1,53298,1
28,2,31867,30790,32729,35367,6218,-4384,-802,-1029,-1,-26,18,190,456,-218,1,0,23,36,160,1,53298,1
29,2,31865,30775,32725,35368,6215,-4370,-792,-1024,-9,-36,20,191,453,-209,1,0,23,36,200,1,53298,1
30,2,31860,30775,32716,35369,6212,-4391,-812,-1025,-8,-14,26,184,446,-216,1,0,23,36,240,1,53298,1
31,2,31861,30764,32721,35370,6211,-4376,-807,-1024,-3,-3,2,180,458,-206,1,0,23,36,280,1,53298,1
32,2,31860,30770,32726,35371,6208,-4382,-810,-1024,0,-6,6,190,454,-216,1,0,23,36,320,1,53298,1
33,2,31862,30785,32725,35372,6206,-4373,-798,-1032,14,-13,10,182,454,-208,1,0,23,36,360,1,53298,1
34,2,31857,30790,32720,35373,6203,-4372,-800,-1021,-2,-4,1,195,453,-213,1,0,23,36,400,1,53298,1
35,2,31861,30796,32719,35374,6200,-4368,-799,-1020,-17,-21,9,194,440,-212,1,0,23,36,440,1,53298,1
36,2,31861,30795,32716,35375,6199,-4381,-801,-1016,0,-28,28,193,445,-219,1,0,23,36,480,1,53298,1
37,2,31860,30792,32726,35376,6196,-4383,-812,-1020,3,-21,29,187,447,-205,1,0,23,36,520,1,53298,1
38,2,31871,30790,32722,35377,6194,-4379,-805,-1028,2,1,5,186,454,-212,1,0,23,36,560,1,53298,1
39,2,31871,30796,32739,35378,6191,-4400,-804,-1012,-4,1,7,193,455,-207,1,0,23,36,600,1,53298,1
40,2,31870,30793,32735,35379,6188,-4424,-790,-1052,6,-20,24,187,451,-203,1,0,23,36,640,1,53298,1
41,2,31868,30798,32724,35380,6185,-4419,-742,-1045,270,34,74,188,452,-210,1,0,23,36,680,1,53298,1
42,2,31857,30808,32713,35381,6183,-4401,-797,-1094,406,129,173,185,441,-211,1,0,23,36,720,1,53298,1
43,2,31801,30331,32683,35382,6181,-4502,-768,-1237,621,195,408,186,448,-216,1,0,23,36,760,1,53298,1
44,2,31814,30514,32655,35383,6179,-4117,-546,-1698,371,1027,615,191,457,-215,1,0,23,36,800,1,53298,1
45,2,31801,30253,32618,35384,6176,-3939,-159,-2876,559,3631,984,182,456,-230,1,0,23,36,840,1,53298,1
46,2,31804,30441,32598,35385,6174,-3872,149,-3278,1943,6640,2547,165,453,-241,1,0,23,36,880,1,53298,1
47,2,31800,30092,32584,35386,6171,-4096,-488,-3524,-1035,10380,3655,168,460,-270,1,0,23,36,920,1,53298,1
48,2,31789,30034,32563,35387,6171,-4224,-879,-3373,-2081,13789,3984,165,451,-289,1,0,23,36,960,1,53298,1
49,1,31785,30398,32544,35388,5703,-4447,-877,-3023,-418,16210,3709,170,450,-308,1,0,23,37,0,0,53298,1
50,2,31778,30346,32508,35389,5701,-4514,-1061,-2736,471,17517,3414,169,449,-337,1,0,23,37,40,0,53298,1
51,2,31763,30360,32486,35390,5699,-4632,-1559,-2640,1454,17642,2721,151,443,-361,1,0,23,37,80,0,53298,1
52,2,31751,30445,32483,35391,5696,-4524,-1871,-1923,1104,16918,1208,161,429,-383,1,0,23,37,120,0,53298,1
53,2,31630,30570,32338,35392,5693,-4190,-2368,-264,1664,14570,-1236,160,426,-386,1,0,23,37,160,0,53298,1
54,2,31600,30507,32322,35393,5690,-4122,-2242,-368,2797,8124,-5666,177,433,-387,1,0,23,37,200,0,53298,1
55,2,31608,30498,32359,35394,5686,-3682,-1965,-401,7693,1047,-10772,199,435,-395,1,0,23,37,240,0,53298,1
56,2,31619,30546,32396,35395,5683,-3712,-1258,-1030,9462,-4033,-13838,232,426,-388,1,0,23,37,280,0,53298,1
57,2,31678,30553,32433,35396,5681,-4014,-206,-1639,8227,-8388,-14787,251,443,-373,1,0,23,37,320,0,53298,1
58,2,31715,30547,32444,35397,5679,-4553,2143,-3857,1349,-13225,-14122,261,443,-347,1,0,23,37,360,0,53298,1
59,2,31763,30566,32459,35398,5677,-2722,-1491,-3147,1862,-14651,-8211,272,442,-326,1,0,23,37,400,0,53298,1
60,2,31733,30560,32465,35399,5675,-1900,-3477,-2480,1688,-8405,-3979,274,440,-324,1,0,23,37,440,0,53298,1
61,2,31737,30541,32563,35400,5672,-5072,-2199,-2057,-2050,-2477,-5274,281,447,-315,1,0,23,37,480,0,53298,1
62,2,31764,30369,32604,35401,5669,-4657,-1632,-2750,4076,-8263,-5092,277,441,-291,1,0,23,37,520,0,53298,1
63,2,31816,30082,32605,35402,5666,-3953,-693,-3180,7340,-11396,-5653,294,440,-276,1,0,23,37,560,0,53298,1
64,2,31846,30050,32611,35403,5664,-3627,-2040,-3388,2005,-9417,-3037,296,444,-274,1,0,23,37,600,0,53298,1
65,2,31889,30041,32627,35404,5664,-3939,-2362,-2500,-5137,-6007,-2335,307,435,-271,1,0,23,37,640,0,53298,1
66,2,31901,30004,32635,35405,5664,-3865,-969,-2214,-3442,-4917,-2837,308,438,-270,1,0,23,37,680,0,53298,1
67,2,31943,30029,32683,35406,5663,-3550,-1706,-2414,-1524,-4774,-155,305,445,-267,1,0,23,37,720,0,53298,1
68,2,31972,30083,32720,35407,5663,-3606,-2174,-1933,-787,-2667,1810,298,438,-264,1,0,23,37,760,0,53298,1
69,2,31999,30038,32711,35408,5663,-3807,-2348,-1814,6,-618,1184,307,445,-259,1,0,23,37,800,0,53298,1
70,2,32011,30027,32710,35409,5662,-3784,-2831,-1655,-1332,-228,533,299,439,-257,1,0,23,37,840,0,53298,1
71,2,31991,30015,32676,35410,5662,-3676,-3104,-1750,-1665,-73,-215,304,434,-260,1,0,23,37,880,0,53298,1
72,2,31978,30036,32657,35411,5661,-3616,-2599,-2102,1026,222,-83,305,445,-255,1,0,23,37,920,0,53298,1
73,2,31965,29994,32643,35412,5661,-3747,-2276,-2065,1628,681,-421,306,440,-262,1,0,23,37,960,0,53298,1
74,1,31959,29985,32633,35413,5179,-3873,-2420,-1620,-215,307,45,307,437,-249,1,0,23,38,0,1,53298,1
75,2,31930,29974,32620,35414,5178,-3820,-2260,-1613,-562,24,274,300,434,-260,1,0,23,38,40,1,53298,1
76,2,31929,29981,32616,35415,5177,-3810,-2234,-1748,15,116,349,302,454,-262,1,0,23,38,80,1,53298,1
77,2,31943,30001,32632,35416,5176,-3810,-2315,-1645,-53,221,132,299,443,-265,1,0,23,38,120,1,53298,1
78,2,31948,30021,32626,35417,5176,-3722,-2303,-1756,421,65,41,297,445,-263,1,0,23,38,160,1,53298,1
79,2,31928,30014,32613,35418,5175,-3689,-2374,-1793,709,142,-32,301,439,-257,1,0,23,38,200,1,53298,1
80,2,31926,30018,32601,35419,5174,-3761,-2311,-1661,19,69,-133,299,437,-273,1,0,23,38,240,1,53298,1
81,2,31919,30028,32595,35420,5173,-3757,-2350,-1744,-345,-187,73,307,437,-261,1,0,23,38,280,1,53298,1
82,2,31922,30023,32595,35421,5171,-3753,-2344,-1683,-53,-126,129,297,441,-259,1,0,23,38,320,1,53298,1
83,2,31916,30037,32594,35422,5171,-3706,-2359,-1736,2,-97,145,301,447,-255,1,0,23,38,360,1,53298,1
84,2,31917,30054,32592,35423,5170,-3744,-2289,-1685,51,-9,75,296,446,-258,1,0,23,38,400,1,53298,1
85,2,31917,30078,32590,35424,5169,-3747,-2320,-1771,28,-31,74,304,446,-258,1,0,23,38,440,1,53298,1
86,2,31914,30101,32589,35425,5168,-3747,-2316,-1699,6,-13,21,298,440,-262,1,0,23,38,480,1,53298,1
87,2,31924,30091,32603,35426,5166,-3727,-2343,-1698,254,6,37,299,439,-265,1,0,23,38,520,1,53298,1
88,2,31941,30103,32619,35427,5166,-3732,-2330,-1734,275,67,-12,294,442,-260,1,0,23,38,560,1,53298,1
89,2,31945,30101,32624,35428,5166,-3706,-2359,-1796,68,250,-151,304,442,-268,1,0,23,38,600,1,53298,1
90,2,31945,30119,32614,35429,5165,-3719,-2370,-1905,-94,539,-347,295,441,-271,1,0,23,38,640,1,53298,1
91,2,31912,30106,32596,35430,5164,-3760,-2464,-2139,-137,983,-612,304,446,-266,1,0,23,38,680,1,53298,1
92,2,31854,29975,32548,35431,5162,-3605,-2227,-2521,-1101,1912,-1174,305,437,-267,1,0,23,38,720,1,53298,1
93,2,31785,30266,32460,35432,5159,-3412,-1748,-2831,-1020,4160,-541,308,434,-268,1,0,23,38,760,1,53298,1
94,2,31775,30197,32466,35433,5156,-3472,-1546,-2672,428,5836,1088,303,445,-281,1,0,23,38,800,1,53298,1
95,2,31770,30646,32460,35434,5153,-3702,-1764,-2700,-963,6618,3375,278,444,-290,1,0,23,38,840,1,53298,1
96,2,31759,30667,32442,35435,5150,-3788,-1851,-3216,-56,7979,4705,281,445,-301,1,0,23,38,880,1,53298,1
97,2,31755,30463,32428,35436,5147,-3958,-1509,-3388,1244,9702,5229,275,449,-323,1,0,23,38,920,1,53298,1
98,2,31750,30422,32435,35437,5147,-3963,-1456,-3470,14,11843,5990,266,446,-336,1,0,23,38,960,1,53298,1
99,1,31737,30518,32425,35438,4656,-3886,-1487,-3537,-1050,13469,6892,257,437,-375,1,0,23,39,0,0,53298,1
100,2,31727,30508,32401,35439,4653,-3713,-1595,-3378,-1731,14431,7824,243,431,-385,1,0,23,39,40,0,53298,1
101,2,31711,30157,32363,35440,4652,-3517,-1550,-3056,-1250,14770,8495,235,415,-413,1,0,23,39,80,0,53298,1
102,2,31680,30048,32318,35441,4649,-3402,-1348,-2492,-326,14228,9033,225,419,-429,1,0,23,39,120,0,53298,1
103,2,31668,30397,32306,35442,4646,-3326,-948,-1994,-1425,11867,9658,209,411,-443,1,0,23,39,160,0,53298,1
104,2,31681,30622,32311,35443,4643,-3032,-1102,-1591,-4972,8156,10325,186,402,-432,1,0,23,39,200,0,53298,1
105,2,31685,30518,32321,35444,4641,-2728,-1333,-1718,-7613,4015,10158,170,412,-436,1,0,23,39,240,0,53298,1
106,2,31688,30575,32320,35445,4639,-2610,-909,-1386,-7842,8,8841,151,403,-433,1,0,23,39,280,0,53298,1
107,2,31664,30727,32311,35446,4636,-2606,-1173,-1841,-9209,-5281,8282,140,400,-416,1,0,23,39,320,0,53298,1
108,2,31648,30744,32301,35447,4633,-2724,-1080,-1796,-10315,-9396,5907,126,416,-400,1,0,23,39,360,0,53298,1
109,2,31641,30725,32317,35448,4631,-3197,-366,-2007,-8365,-12959,3841,114,418,-374,1,0,23,39,400,0,53298,1
110,2,31624,30696,32342,35449,4627,-3579,-1095,-2985,-9027,-16594,2827,115,423,-343,1,0,23,39,440,0,53298,1
111,2,31619,30669,32360,35450,4624,-4121,-948,-3130,-4897,-17085,-923,118,436,-330,1,0,23,39,480,0,53298,1
112,2,31610,30795,32370,35451,4622,-4596,232,-2478,-316,-17445,-1740,120,438,-298,1,0,23,39,520,0,53298,1
113,2,31619,30863,32397,35452,4619,-4986,-445,-2449,-5189,-17385,-150,129,437,-267,1,0,23,39,560,0,53298,1
114,2,31632,30884,32435,35453,4616,-4656,-414,-2320,-5513,-16045,-2596,130,434,-254,1,0,23,39,600,0,53298,1
115,2,31648,30900,32488,35454,4614,-4291,-299,-2235,-4674,-13712,-3618,144,446,-238,1,0,23,39,640,0,53298,1
116,2,31613,30860,32481,35455,4612,-4131,-272,-2147,-2839,-10088,-5482,140,438,-224,1,0,23,39,680,0,53298,1
117,2,31675,30871,32549,35456,4609,-4157,860,-2278,1718,-8440,-7280,153,447,-221,1,0,23,39,720,0,53298,1
118,2,31646,30868,32531,35457,4607,-5359,2950,-4885,-2079,-2048,-4253,160,442,-216,1,0,23,39,760,0,53298,1
119,2,31648,30873,32511,35458,4604,-3436,897,-1666,4705,-440,-1969,144,438,-222,1,0,23,39,800,0,53298,1
120,2,31658,30862,32518,35459,4601,-3754,-434,-1119,2095,783,-1136,157,443,-215,1,0,23,39,840,0,53298,1
121,2,31688,30847,32558,35460,4598,-4567,-571,-1143,2747,-348,-1255,158,448,-230,1,0,23,39,880,0,53298,1
122,2,31675,30832,32551,35461,4595,-4779,-424,-991,2652,-1334,-459,151,451,-221,1,0,23,39,920,0,53298,1
123,2,31678,30810,32545,35462,4595,-4536,-159,-797,1306,-488,554,155,441,-231,1,0,23,39,960,0,53298,1
124,1,31680,30826,32536,35463,4131,-4179,-133,-1203,939,932,435,153,443,-221,1,0,23,40,0,1,53298,1
125,2,31682,30835,32545,35464,4129,-4288,-238,-1284,424,813,-206,157,449,-231,1,0,23,40,40,1,53298,1
126,2,31683,30863,32545,35465,4126,-4374,-243,-1142,400,110,-227,154,444,-228,1,0,23,40,80,1,53298,1
127,2,31681,30866,32540,35466,4124,-4381,-253,-1139,750,303,-176,151,447,-223,1,0,23,40,120,1,53298,1
128,2,31689,30828,32545,35467,4120,-4278,-211,-1230,986,393,-176,164,458,-228,1,0,23,40,160,1,53298,1
129,2,31687,30757,32540,35468,4118,-4280,-221,-1245,821,152,-392,157,447,-223,1,0,23,40,200,1,53298,1
130,2,31679,30778,32534,35469,4115,-4353,-304,-1184,429,132,-588,154,440,-230,1,0,23,40,240,1,53298,1
131,2,31686,30764,32532,35470,4113,-4320,-312,-1200,234,273,-458,151,447,-241,1,0,23,40,280,1,53298,1
132,2,31673,30697,32532,35471,4111,-4288,-314,-1242,331,330,-264,155,453,-231,1,0,23,40,320,1,53298,1
133,2,31679,30678,32528,35472,4108,-4319,-299,-1239,394,214,-123,155,441,-233,1,0,23,40,360,1,53298,1
134,2,31686,30693,32536,35473,4106,-4308,-298,-1244,225,180,-111,161,445,-237,1,0,23,40,400,1,53298,1
135,2,31686,30677,32541,35474,4103,-4312,-320,-1256,73,140,-127,158,450,-228,1,0,23,40,440,1,53298,1
136,2,31694,30633,32542,35475,4101,-4327,-335,-1268,35,-25,-25,158,440,-218,1,0,23,40,480,1,53298,1
137,2,31690,30668,32554,35476,4099,-4353,-301,-1258,74,-137,38,161,439,-229,1,0,23,40,520,1,53298,1
138,2,31704,30710,32546,35477,4096,-4311,-283,-1323,341,-21,-35,158,444,-230,1,0,23,40,560,1,53298,1
139,2,31696,30731,32536,35478,4094,-4350,-189,-1399,664,154,-149,156,446,-230,1,0,23,40,600,1,53298,1
140,2,31682,30812,32514,35479,4092,-4152,-20,-1852,1108,737,-256,160,446,-230,1,0,23,40,640,1,53298,1
141,2,31669,30264,32481,35480,4089,-3832,475,-2531,1319,2816,149,149,451,-255,1,0,23,40,680,1,53298,1
142,2,31675,30255,32454,35481,4086,-3725,901,-3093,1344,5497,2693,144,448,-256,1,0,23,40,720,1,53298,1
143,2,31667,30416,32421,35482,4084,-4128,732,-3494,-105,8364,5249,138,450,-264,1,0,23,40,760,1,53298,1
144,2,31666,30402,32386,35483,4082,-4530,430,-3904,-1404,11649,6807,128,442,-292,1,0,23,40,800,1,53298,1
145,2,31670,30403,32379,35484,4079,-4940,309,-3492,-1374,15253,8255,117,435,-313,1,0,23,40,840,1,53298,1
146,2,31666,30462,32382,35485,4077,-5324,-756,-2998,-2578,18110,9864,97,425,-327,1,0,23,40,880,1,53298,1
147,2,31657,30475,32382,35486,4074,-4969,-1017,-2888,-2866,19213,8817,94,414,-352,1,0,23,40,920,1,53298,1
148,2,31642,30481,32363,35487,4074,-4086,-678,-2579,1207,17960,5314,99,405,-377,1,0,23,40,960,1,53298,1
149,1,31616,30465,32308,35488,3608,-3379,-970,-2161,3644,16904,1928,94,396,-390,1,0,23,41,0,0,53298,1
150,2,31620,30483,32312,35489,3606,-2910,-1232,-2008,4797,15264,-1610,95,391,-421,1,0,23,41,40,0,53298,1
151,2,31626,30517,32310,35490,3604,-2502,-1080,-1742,8033,12303,-5076,126,392,-438,1,0,23,41,80,0,53298,1
152,2,31619,30499,32322,35491,3602,-2426,-1165,-1378,10813,7938,-8094,146,378,-452,1,0,23,41,120,0,53298,1
153,2,31611,30499,32323,35492,3599,-2624,-1215,-750,12649,2495,-10875,180,398,-446,1,0,23,41,160,0,53298,1
154,2,31589,30466,32346,35493,3597,-3105,-708,-1044,12089,-4115,-13239,197,401,-437,1,0,23,41,200,0,53298,1
155,2,31598,30511,32363,35494,3595,-3420,-436,-1302,9183,-10591,-14242,220,410,-420,1,0,23,41,240,0,53298,1
156,2,31606,30524,32400,35495,3593,-3703,-720,-1593,4824,-15453,-13968,232,428,-386,1,0,23,41,280,0,53298,1
157,2,31647,30615,32444,35496,3591,-4249,-858,-2463,1191,-18764,-12956,253,441,-365,1,0,23,41,320,0,53298,1
158,2,31655,30669,32490,35497,3589,-4344,-1205,-2912,1240,-20949,-11964,258,440,-338,1,0,23,41,360,0,53298,1
159,2,31672,30659,32588,35498,3587,-4366,-1803,-2851,179,-21554,-10008,274,448,-302,1,0,23,41,400,0,53298,1
160,2,31730,30678,32903,35499,3585,-4478,-2070,-2678,-355,-20197,-9064,288,446,-278,1,0,23,41,440,0,53298,1
161,2,31626,30564,33268,35500,3583,-4909,-1880,-3231,1532,-18977,-8267,291,443,-253,1,0,23,41,480,0,53298,1
162,2,31476,30154,32747,35501,3581,-4881,-1180,-8013,-146,-22147,-2230,291,441,-251,1,0,23,41,520,0,53298,1
163,2,31881,30360,33029,35502,3581,-4710,-687,-3179,-1951,4227,-1905,305,445,-251,1,0,23,41,560,0,53298,1
164,2,32099,30506,33118,35503,3582,-4141,204,-2821,-2681,-3222,-5441,317,435,-245,1,0,23,41,600,0,53298,1
165,2,32084,30473,33088,35504,3582,-3744,-2150,-1749,264,-5344,-2181,308,436,-248,1,0,23,41,640,0,53298,1
166,2,32078,30466,33021,35505,3581,-3494,-2702,-997,746,79,3963,298,434,-244,1,0,23,41,680,0,53298,1
167,2,32085,30411,33005,35506,3581,-3532,-3120,-978,125,-12,2041,299,443,-235,1,0,23,41,720,0,53298,1
168,2,32075,30411,32985,35507,3582,-3813,-2446,-1682,-245,-382,488,294,446,-242,1,0,23,41,760,0,53298,1
169,2,32061,30373,32990,35508,3582,-4215,-1957,-1840,-535,1420,16,296,436,-242,1,0,23,41,800,0,53298,1
170,2,32049,30315,32998,35509,3582,-4148,-2229,-1380,661,838,301,299,445,-247,1,0,23,41,840,0,53298,1
171,2,32053,30318,33002,35510,3583,-3863,-2253,-1461,1002,-179,702,291,443,-249,1,0,23,41,880,0,53298,1
172,2,32062,30328,33005,35511,3582,-3839,-2147,-1501,65,-89,227,292,440,-228,1,0,23,41,920,0,53298,1
173,2,32063,30283,33002,35512,3582,-3931,-2184,-1469,-31,53,127,289,437,-231,1,0,23,41,960,0,53298,1
174,1,32065,30306,33005,35513,3085,-4005,-2202,-1464,149,125,-115,301,439,-229,1,0,23,42,0,0,53298,1
175,2,32070,30325,33010,35514,3085,-3964,-2164,-1429,182,216,-222,297,447,-247,1,0,23,42,40,0,53298,1
176,2,32070,30346,33009,35515,3084,-3891,-2227,-1507,364,29,93,297,445,-245,1,0,23,42,80,0,53298,1
177,2,32072,30340,33008,35516,3084,-3880,-2206,-1496,262,83,148,296,444,-244,1,0,23,42,120,0,53298,1
178,2,32068,30340,33004,35517,3083,-3936,-2216,-1512,-84,22,247,293,441,-245,1,0,23,42,160,0,53298,1
179,2,32070,30345,32988,35518,3082,-4004,-2167,-1523,-100,-8,161,286,438,-238,1,0,23,42,200,0,53298,1
180,2,32068,30343,32977,35519,3080,-3942,-2170,-1501,-331,151,14,288,452,-234,1,0,23,42,240,0,53298,1
181,2,32064,30375,32964,35520,3079,-3983,-2194,-1623,-735,391,237,289,443,-229,1,0,23,42,280,0,53298,1
182,2,32033,30295,32921,35521,3077,-3998,-2165,-1659,-991,728,-269,304,438,-248,1,0,23,42,320,0,53298,1
183,2,31980,30689,32895,35522,3076,-3850,-2059,-1899,-1687,1639,-1005,295,449,-251,1,0,23,42,360,0,53298,1
184,2,31910,30896,32842,35523,3075,-3866,-1603,-2534,-2153,3620,-25,298,448,-266,1,0,23,42,400,0,53298,1
185,2,31900,30775,32905,35524,3074,-3622,-952,-3062,136,5377,1240,286,446,-272,1,0,23,42,440,0,53298,1
186,2,31881,30947,33006,35525,3072,-3726,-955,-3664,375,6932,4059,279,455,-277,1,0,23,42,480,0,53298,1
187,2,31893,30960,33141,35526,3071,-3845,-1229,-3908,-526,9125,6633,266,444,-292,1,0,23,42,520,0,53298,1
188,2,31930,30717,33189,35527,3069,-4064,-1217,-3893,-1205,13668,8024,260,448,-330,1,0,23,42,560,0,53298,1
189,2,31857,30933,33071,35528,3067,-4349,-1156,-3663,-1239,19013,9433,244,448,-358,1,0,23,42,600,0,53298,1
190,2,31872,30866,32915,35529,3065,-4310,-1185,-3311,17,19303,10876,239,439,-383,1,0,23,42,640,0,53298,1
191,2,31878,30889,32656,35530,3063,-4599,-1353,-2840,1612,18525,10846,208,428,-408,1,0,23,42,680,0,53298,1
192,2,31794,30700,32402,35531,3061,-4591,-729,-2052,1674,16487,10726,207,413,-425,1,0,23,42,720,0,53298,1
193,2,31744,30457,32325,35532,3058,-4278,-748,-1070,-3561,11647,10763,179,407,-433,1,0,23,42,760,0,53298,1
194,2,31702,30697,32324,35533,3056,-3479,-1487,-907,-8922,5682,10928,167,403,-427,1,0,23,42,800,0,53298,1
195,2,31706,30869,32320,35534,3054,-3186,-559,-97,-9868,-693,8988,146,406,-414,1,0,23,42,840,0,53298,1
196,2,31703,30665,32346,35535,3052,-2704,-1519,-971,-11818,-7649,8816,134,414,-396,1,0,23,42,880,0,53298,1
197,2,31679,30676,32351,35536,3049,-2652,-1345,-1384,-9914,-11646,5811,129,421,-369,1,0,23,42,920,0,53298,1
198,2,31685,30822,32366,35537,3049,-3275,-329,-1099,-6601,-15849,4049,106,426,-348,1,0,23,42,960,0,53298,1
199,1,31706,30832,32402,35538,2562,-4038,-321,-1544,-6276,-24633,2784,108,430,-302,1,0,23,43,0,1,53298,1
200,2,31725,30896,32457,35539,2560,-5365,-1039,-1429,-7691,-24801,-645,105,431,-261,1,0,23,43,40,1,53298,1
201,2,31674,30892,32456,35540,2558,-5944,-1657,-3072,-9619,-24002,-6416,111,443,-235,1,0,23,43,80,1,53298,1
202,2,31687,30842,32501,35541,2556,-5326,-768,-2593,-1782,-21304,-9563,138,432,-214,1,0,23,43,120,1,53298,1
203,2,31710,30716,32578,35542,2555,-4728,-313,-2828,1453,-12914,-12358,153,429,-191,1,0,23,43,160,1,53298,1
204,2,31698,30625,32584,35543,2554,-4335,123,-2489,2967,-12925,-12910,160,436,-188,1,0,23,43,200,1,53298,1
205,2,31760,30654,32690,35544,2553,-3839,984,-1485,5842,-9935,-6648,170,438,-186,1,0,23,43,240,1,53298,1
206,2,31805,30668,32740,35545,2553,-5985,5106,-5857,-2682,-2496,-1490,171,435,-183,1,0,23,43,280,1,53298,1
207,2,31787,30743,32722,35546,2552,-4094,-374,-909,4818,598,-1103,178,440,-188,1,0,23,43,320,1,53298,1
208,2,31789,30495,32703,35547,2553,-4293,-1559,632,2194,858,-1408,175,441,-187,1,0,23,43,360,1,53298,1
209,2,31805,30670,32736,35548,2551,-4637,-885,-228,1177,277,-935,173,437,-181,1,0,23,43,400,1,53298,1
210,2,31818,30914,32737,35549,2550,-4689,-250,-675,762,614,-1185,171,437,-191,1,0,23,43,440,1,53298,1
211,2,31815,30904,32732,35550,2548,-4435,-399,-481,2117,1160,-1151,176,444,-188,1,0,23,43,480,1,53298,1
212,2,31822,30719,32729,35551,2545,-4434,-664,-637,620,932,-703,166,440,-190,1,0,23,43,520,1,53298,1
213,2,31821,30872,32744,35552,2543,-4533,-529,-651,771,832,-561,168,434,-174,1,0,23,43,560,1,53298,1
214,2,31821,30491,32735,35553,2540,-4513,-613,-688,513,428,-250,175,439,-181,1,0,23,43,600,1,53298,1
215,2,31834,30974,32742,35554,2538,-4466,-666,-725,321,-186,158,177,437,-183,1,0,23,43,640,1,53298,1
216,2,31841,30853,32751,35555,2535,-4490,-590,-699,197,-461,227,170,436,-190,1,0,23,43,680,1,53298,1
217,2,31835,30861,32733,35556,2533,-4478,-577,-650,189,-390,141,170,448,-190,1,0,23,43,720,1,53298,1
218,2,31835,30986,32739,35557,2531,-4448,-556,-634,152,-244,103,176,442,-186,1,0,23,43,760,1,53298,1
219,2,31832,30715,32728,35558,2528,-4470,-573,-606,13,-108,89,170,432,-188,1,0,23,43,800,1,53298,1
220,2,31826,30966,32731,35559,2525,-4467,-579,-636,68,98,0,176,436,-196,1,0,23,43,840,1,53298,1
221,2,31833,30975,32725,35560,2524,-4462,-552,-624,222,268,-128,174,434,-194,1,0,23,43,880,1,53298,1
222,2,31841,30935,32745,35561,2523,-4475,-573,-647,203,251,-150,179,435,-187,1,0,23,43,920,1,53298,1
223,2,31840,30750,32731,35562,2523,-4468,-604,-650,119,93,-77,168,442,-192,1,0,23,43,960,1,53298,1
224,1,31839,30940,32743,35563,2040,-4472,-603,-647,68,-51,11,172,442,-190,1,0,23,44,0,0,53298,1
225,2,31844,30932,32737,35564,2039,-4475,-592,-660,-36,-137,81,171,439,-199,1,0,23,44,40,0,53298,1
226,2,31844,30957,32736,35565,2037,-4472,-588,-644,-67,-148,98,172,444,-192,1,0,23,44,80,0,53298,1
227,2,31844,30961,32730,35566,2037,-4459,-591,-647,14,-99,97,174,438,-190,1,0,23,44,120,0,53298,1
228,2,31845,30915,32745,35567,2035,-4497,-558,-688,403,93,-16,173,443,-185,1,0,23,44,160,0,53298,1
229,2,31846,30828,32741,35568,2033,-4470,-548,-622,480,310,-107,176,444,-194,1,0,23,44,200,0,53298,1
230,2,31844,30791,32730,35569,2032,-4482,-555,-621,525,333,-20,175,441,-195,1,0,23,44,240,0,53298,1
231,2,31839,30758,32720,35570,2030,-4618,-547,-725,325,293,238,169,443,-191,1,0,23,44,280,0,53298,1
232,2,31820,30778,32707,35571,2028,-4482,-655,-796,-201,708,702,167,441,-193,1,0,23,44,320,0,53298,1
233,2,31798,30784,32671,35572,2026,-4356,-225,-1338,319,1985,1639,173,443,-193,1,0,23,44,360,0,53298,1
234,2,31764,30385,32634,35573,2024,-4097,272,-1817,-905,2823,4107,164,438,-194,1,0,23,44,400,0,53298,1
235,2,31729,30233,32584,35574,2022,-3830,996,-2125,-3594,3391,8124,169,443,-203,1,0,23,44,440,0,53298,1
236,2,31726,30162,32535,35575,2020,-4026,1347,-2175,-3250,4658,10801,148,436,-212,1,0,23,44,480,0,53298,1
237,2,31742,30131,32513,35576,2017,-4035,551,-2256,-1546,9794,11150,138,444,-220,1,0,23,44,520,0,53298,1
238,2,31740,30118,32501,35577,2015,-4553,-455,-2760,2061,15176,8205,116,432,-230,1,0,23,44,560,0,53298,1
239,2,31741,30080,32508,35578,2012,-5198,-406,-2972,4541,18354,5115,97,437,-255,1,0,23,44,600,0,53298,1
240,2,31730,30013,32474,35579,2010,-5822,670,-2751,1908,18648,4016,101,429,-291,1,0,23,44,640,0,53298,1
241,2,31743,30331,32453,35580,2008,-5679,802,-2872,-1588,18379,4463,101,431,-317,1,0,23,44,680,0,53298,1
242,2,31750,30400,32434,35581,2005,-4841,-50,-2950,-2877,18067,5156,84,416,-346,1,0,23,44,720,0,53298,1
243,2,31740,30578,32418,35582,2003,-4213,-1061,-2672,-1256,19026,3617,89,405,-361,1,0,23,44,760,0,53298,1
244,2,31765,30714,32430,35583,2001,-3824,-1293,-1861,4723,18236,-365,88,388,-384,1,0,23,44,800,0,53298,1
245,2,31740,30748,32393,35584,1999,-3458,-1410,-901,10089,13062,-4498,92,400,-416,1,0,23,44,840,0,53298,1
246,2,31723,30725,32376,35585,1997,-3002,-1382,-537,14355,7163,-9562,118,396,-424,1,0,23,44,880,0,53298,1
247,2,31710,30706,32380,35586,1995,-2747,-1479,-674,16380,958,-13500,144,400,-432,1,0,23,44,920,0,53298,1
248,2,31696,30700,32392,35587,1995,-2772,-896,-684,14212,-5325,-14918,176,404,-440,1,0,23,44,960,0,53298,1
249,1,31723,30711,32450,35588,1517,-2895,-538,-1848,10471,-10813,-14540,199,417,-427,1,0,23,45,0,1,53298,1
250,2,31731,30700,32464,35589,1515,-3044,-266,-1848,6519,-14474,-12976,216,428,-406,1,0,23,45,40,1,53298,1
251,2,31488,30154,32208,35590,1513,-3484,75,-2328,968,-16512,-9607,228,436,-374,1,0,23,45,80,1,53298,1
252,2,31482,30111,32256,35591,1511,-4073,-427,-2980,-2344,-17156,-7312,244,442,-366,1,0,23,45,120,1,53298,1
253,2,31494,30095,32325,35592,1509,-4835,-1421,-3558,-2709,-16307,-6303,251,443,-335,1,0,23,45,160,1,53298,1
254,2,31486,30498,32464,35593,1507,-4695,-2460,-3326,-2543,-14006,-6386,264,448,-314,1,0,23,45,200,1,53298,1
255,2,31485,30731,32610,35594,1506,-4884,-2478,-3085,301,-12696,-8393,272,448,-298,1,0,23,45,240,1,53298,1
256,2,31544,30679,32910,35595,1506,-4578,-2243,-2647,-445,-12407,-9622,286,436,-274,1,0,23,45,280,1,53298,1
257,2,32000,30958,33473,35596,1507,-3124,-1245,-3472,-2428,-16164,-9833,292,440,-252,1,0,23,45,320,1,53298,1
258,2,32045,30919,33226,35597,1507,-4041,-278,-3843,-1556,557,2312,305,445,-257,1,0,23,45,360,1,53298,1
259,2,32057,31005,33301,35598,1508,-2830,-406,-2960,2423,-3835,1319,296,444,-246,1,0,23,45,400,1,53298,1
260,2,32069,30993,33370,35599,1509,-3827,-1799,-3961,4075,2132,497,300,442,-252,1,0,23,45,440,1,53298,1
261,2,32072,30960,33280,35600,1509,-4215,-2843,-736,2862,449,-353,286,446,-254,1,0,23,45,480,1,53298,1
262,2,32047,30942,33162,35601,1509,-3953,-2651,-1441,-345,-715,-665,286,440,-248,1,0,23,45,520,1,53298,1
263,2,32052,30817,33143,35602,1508,-3829,-1981,-1643,-318,424,-323,291,445,-251,1,0,23,45,560,1,53298,1
264,2,32052,30985,33134,35603,1508,-3913,-2132,-1521,599,607,54,297,447,-249,1,0,23,45,600,1,53298,1
265,2,32061,31005,33142,35604,1508,-3880,-2301,-1405,1070,379,-45,299,439,-257,1,0,23,45,640,1,53298,1
266,2,32068,31002,33160,35605,1509,-3840,-2258,-1643,906,181,-234,287,437,-251,1,0,23,45,680,1,53298,1
267,2,32071,30900,33164,35606,1509,-3817,-2331,-1566,549,130,-251,292,440,-246,1,0,23,45,720,1,53298,1
268,2,32074,31007,33161,35607,1510,-3836,-2271,-1551,350,27,-81,295,447,-253,1,0,23,45,760,1,53298,1
269,2,32074,30989,33162,35608,1510,-3854,-2216,-1542,-127,100,-5,297,441,-251,1,0,23,45,800,1,53298,1
270,2,32073,31002,33146,35609,1510,-3870,-2235,-1585,-288,149,18,294,436,-252,1,0,23,45,840,1,53298,1
271,2,32065,30923,33141,35610,1510,-3856,-2260,-1599,101,52,53,292,440,-254,1,0,23,45,880,1,53298,1
272,2,32067,31000,33153,35611,1510,-3828,-2257,-1594,228,15,-20,291,445,-251,1,0,23,45,920,1,53298,1
273,2,32059,30986,33147,35612,1510,-3814,-2281,-1602,61,53,-80,291,449,-261,1,0,23,45,960,1,53298,1
274,1,32065,31001,33148,35613,996,-3838,-2275,-1584,-21,31,-55,295,441,-243,1,0,23,46,0,0,53298,1
275,2,32060,30992,33145,35614,996,-3848,-2280,-1584,9,-69,17,298,444,-256,1,0,23,46,40,0,53298,1
276,2,32054,30961,33145,35615,995,-3836,-2256,-1577,-10,-19,4,295,443,-253,1,0,23,46,80,0,53298,1
277,2,32049,30929,33138,35616,994,-3841,-2277,-1592,-14,55,-26,291,441,-253,1,0,23,46,120,0,53298,1
278,2,32051,30948,33141,35617,994,-3836,-2282,-1610,12,69,-41,289,447,-249,1,0,23,46,160,0,53298,1
279,2,32053,30975,33136,35618,994,-3829,-2135,-1693,65,370,-258,293,435,-255,1,0,23,46,200,0,53298,1
280,2,32045,30974,33122,35619,992,-3764,-2484,-1556,-202,539,-582,291,443,-249,1,0,23,46,240,0,53298,1
281,2,32035,30964,33119,35620,992,-3803,-2135,-1791,-107,730,-639,302,436,-260,1,0,23,46,280,0,53298,1
282,2,32032,30864,33101,35621,992,-3850,-2458,-1718,-563,1544,-799,291,439,-259,1,0,23,46,320,0,53298,1
283,2,32028,30796,33076,35622,991,-3811,-2091,-2136,-336,2069,-352,296,438,-258,1,0,23,46,360,0,53298,1
284,2,32009,30914,32997,35623,991,-3902,-2300,-3057,-1126,3767,147,297,445,-267,1,0,23,46,400,0,53298,1
285,2,31904,30915,32886,35624,990,-3640,-1419,-3847,-208,6400,2418,300,434,-276,1,0,23,46,440,0,53298,1
286,2,31861,30903,32771,35625,989,-2975,-1016,-4312,2357,10217,5467,288,454,-292,1,0,23,46,480,0,53298,1
287,2,31843,30627,32777,35626,988,-3261,-316,-4391,1319,14505,8086,281,445,-309,1,0,23,46,520,0,53298,1
288,2,31850,30451,32761,35627,988,-3837,-1270,-4226,1587,18309,9881,254,444,-328,1,0,23,46,560,0,53298,1
289,2,31765,30840,32461,35628,987,-4487,-1446,-3566,1742,20214,10738,250,446,-362,1,0,23,46,600,0,53298,1
290,2,31627,30580,32267,35629,985,-5020,-1230,-2900,-336,19392,11142,238,434,-378,1,0,23,46,640,0,53298,1
291,2,31536,30647,32159,35630,983,-5132,-1283,-1958,-2924,16471,10945,220,422,-404,1,0,23,46,680,0,53298,1
292,2,31485,30530,32105,35631,980,-4744,-1696,-882,-5297,11328,10921,205,417,-425,1,0,23,46,720,0,53298,1
293,2,31455,30778,32070,35632,977,-3881,-536,-694,-10463,5720,11821,170,406,-426,1,0,23,46,760,0,53298,1
294,2,31474,30589,32055,35633,974,-3292,-513,-1329,-14320,498,12749,145,399,-417,1,0,23,46,800,0,53298,1
295,2,31526,30712,32119,35634,970,-2800,-1505,-983,-14996,-4127,11160,138,394,-416,1,0,23,46,840,0,53298,1
296,2,31484,30792,32085,35635,968,-2787,-583,-682,-13816,-10217,10818,107,399,-395,1,0,23,46,880,0,53298,1
297,2,31504,30685,32097,35636,966,-3259,-200,-1678,-17340,-15897,9577,88,400,-372,1,0,23,46,920,0,53298,1
298,2,31503,30718,32114,35637,966,-3652,-913,-2398,-13790,-20090,4217,83,411,-339,1,0,23,46,960,0,53298,1
299,1,31455,30785,32105,35638,474,-4233,-1038,-3156,-6898,-20836,-1692,77,409,-305,1,0,23,47,0,1,53298,1
300,2,31453,30786,32121,35639,471,-4316,-645,-2879,602,-18727,-6138,79,419,-285,1,0,23,47,40,1,53298,1
301,2,31458,30752,32140,35640,468,-4202,-144,-2691,1528,-16353,-6514,92,418,-260,1,0,23,47,80,1,53298,1
302,2,31484,30746,32191,35641,466,-4873,-40,-2802,-1838,-13951,-7229,98,424,-242,1,0,23,47,120,1,53298,1
303,2,31505,30691,32240,35642,464,-4805,299,-2159,-5996,-11736,-7722,114,428,-226,1,0,23,47,160,1,53298,1
304,2,31500,30541,32261,35643,462,-4453,576,-1450,-3393,-9056,-9833,127,433,-205,1,0,23,47,200,1,53298,1
305,2,31499,30629,32264,35644,460,-4179,621,-689,410,-8175,-10144,141,445,-185,1,0,23,47,240,1,53298,1
306,2,31505,30758,32328,35645,459,-5362,2066,-2409,-657,-4633,-8171,151,439,-185,1,0,23,47,280,1,53298,1
307,2,31473,30765,32331,35646,457,-4187,1866,-1957,5672,-3417,-5892,162,434,-188,1,0,23,47,320,1,53298,1
308,2,31453,30764,32325,35647,456,-3761,800,-1647,3780,-1345,-3361,176,434,-190,1,0,23,47,360,1,53298,1
309,2,31442,30482,32319,35648,455,-3591,815,-1620,2329,347,-1490,163,431,-185,1,0,23,47,400,1,53298,1
310,2,31450,30544,32335,35649,454,-4407,-164,-316,2913,468,-627,157,443,-183,1,0,23,47,440,1,53298,1
311,2,31478,30633,32382,35650,453,-5092,-745,-172,1398,-160,-754,160,438,-188,1,0,23,47,480,1,53298,1
312,2,31482,30617,32407,35651,452,-4718,-97,-626,-864,543,-765,165,437,-195,1,0,23,47,520,1,53298,1
313,2,31470,30616,32366,35652,450,-4228,-278,-709,259,1085,-1025,161,431,-191,1,0,23,47,560,1,53298,1
314,2,31480,30625,32367,35653,448,-4291,-609,-825,623,806,-984,175,443,-187,1,0,23,47,600,1,53298,1
315,2,31485,30597,32374,35654,446,-4528,-440,-722,571,203,-603,166,442,-196,1,0,23,47,640,1,53298,1
316,2,31475,30306,32366,35655,444,-4535,-292,-660,906,105,-620,169,439,-193,1,0,23,47,680,1,53298,1
317,2,31483,29984,32365,35656,443,-4418,-478,-743,503,405,-737,167,445,-195,1,0,23,47,720,1,53298,1
318,2,31483,30477,32370,35657,442,-4453,-506,-768,189,255,-471,168,436,-188,1,0,23,47,760,1,53298,1
319,2,31490,30685,32376,35658,440,-4477,-449,-737,525,107,-317,168,440,-184,1,0,23,47,800,1,53298,1
320,2,31487,30770,32378,35659,439,-4456,-462,-714,819,132,-326,164,438,-200,1,0,23,47,840,1,53298,1
321,2,31482,30052,32359,35660,438,-4460,-460,-733,594,271,-334,170,440,-200,1,0,23,47,880,1,53298,1
322,2,31494,30290,32371,35661,438,-4445,-476,-751,315,356,-286,167,441,-197,1,0,23,47,920,1,53298,1
323,2,31505,30779,32394,35662,438,-4450,-505,-780,358,292,-225,171,445,-201,1,0,23,47,960,1,53298,1
324,1,31533,30684,32402,35663,0,-4456,-495,-775,380,161,-174,171,443,-189,1,0,23,48,0,1,53298,1
325,2,31530,30472,32400,35664,39953,-4458,-496,-768,247,71,-150,170,448,-204,1,0,23,48,40,1,53298,1
326,2,31540,30584,32408,35665,39952,-4452,-521,-755,134,47,-132,164,440,-190,1,0,23,48,80,1,53298,1
327,2,31546,30750,32418,35666,39950,-4449,-515,-776,90,30,-90,169,437,-207,1,0,23,48,120,1,53298,1
328,2,31565,30746,32446,35667,39949,-4441,-500,-765,85,-15,-38,178,446,-192,1,0,23,48,160,1,53298,1
329,2,31557,30653,32414,35668,39946,-4452,-510,-753,68,2,-44,168,450,-200,1,0,23,48,200,1,53298,1
330,2,31564,30736,32420,35669,39945,-4428,-511,-778,55,27,-52,170,444,-200,1,0,23,48,240,1,53298,1
331,2,31569,30464,32435,35670,39943,-4437,-509,-779,52,36,-58,163,449,-183,1,0,23,48,280,1,53298,1
332,2,31575,30390,32431,35671,39941,-4457,-519,-764,47,36,-52,167,443,-195,1,0,23,48,320,1,53298,1
333,2,31539,30191,32398,35672,39940,-4447,-512,-778,36,22,-28,172,436,-196,1,0,23,48,360,1,53298,1
334,2,31540,30293,32418,35673,39938,-4446,-509,-769,30,3,-10,162,448,-190,1,0,23,48,400,1,53298,1
335,2,31558,30748,32409,35674,39937,-4435,-514,-773,9,-17,13,169,447,-191,1,0,23,48,440,1,53298,1
336,2,31558,30811,32430,35675,39936,-4446,-512,-778,3,-18,14,171,445,-195,1,0,23,48,480,1,53298,1
337,2,31570,30771,32437,35676,39934,-4439,-506,-765,16,-9,-6,171,435,-199,1,0,23,48,520,1,53298,1
338,2,31579,30835,32448,35677,39933,-4439,-503,-781,45,21,-38,165,439,-191,1,0,23,48,560,1,53298,1
339,2,31591,30826,32445,35678,39930,-4438,-517,-784,141,59,-78,176,446,-202,1,0,23,48,600,1,53298,1
340,2,31579,30818,32440,35679,39929,-4436,-518,-757,233,117,-112,173,447,-199,1,0,23,48,640,1,53298,1
341,2,31573,30818,32442,35680,39927,-4453,-517,-790,234,198,-115,173,445,-193,1,0,23,48,680,1,53298,1
342,2,31580,30841,32450,35681,39926,-4407,-531,-795,396,284,-142,171,443,-203,1,0,23,48,720,1,53298,1
343,2,31577,30841,32443,35682,39925,-4450,-515,-783,418,299,-228,174,438,-200,1,0,23,48,760,1,53298,1
344,2,31569,30843,32439,35683,39923,-4452,-539,-794,500,289,-235,172,438,-206,1,0,23,48,800,1,53298,1
345,2,31598,30844,32447,35684,39921,-4438,-554,-814,126,177,-147,171,441,-195,1,0,23,48,840,1,53298,1
346,2,31611,30847,32460,35685,39919,-4383,-587,-787,-14,53,-5,173,451,-197,1,0,23,48,880,1,53298,1
347,2,31605,30843,32461,35686,39916,-4465,-549,-851,-203,-113,209,175,437,-203,1,0,23,48,920,1,53298,1
348,2,31595,30842,32452,35687,39914,-4503,-517,-825,-70,-257,236,172,448,-208,1,0,23,48,960,1,53298,1
349,1,31592,30841,32443,35688,0,-4399,-519,-789,127,-90,70,158,436,-198,1,0,23,49,0,0,53298,1
350,2,31571,30837,32425,35689,39432,-4444,-504,-803,102,56,-13,168,436,-200,1,0,23,49,40,0,53298,1
351,2,31584,30834,32412,35690,39430,-4513,-490,-887,156,227,2,174,428,-200,1,0,23,49,80,0,53298,1
352,2,31557,30833,32405,35691,39428,-4523,-421,-1142,394,340,220,172,440,-208,1,0,23,49,120,0,53298,1
353,2,31558,30835,32401,35692,39426,-4154,-106,-1760,246,1135,773,161,445,-195,1,0,23,49,160,0,53298,1
354,2,31482,30729,32322,35693,39424,-4052,235,-1942,1153,2568,1561,166,452,-210,1,0,23,49,200,0,53298,1
355,2,31503,30807,32342,35694,39421,-3954,674,-2140,938,4411,3091,164,442,-214,1,0,23,49,240,0,53298,1
356,2,31502,30631,32302,35695,39418,-4059,573,-2087,-616,6670,4642,166,448,-214,1,0,23,49,280,0,53298,1
357,2,31512,30522,32272,35696,39415,-4217,263,-2033,-2075,8415,6023,140,450,-222,1,0,23,49,320,0,53298,1
358,2,31520,30519,32265,35697,39412,-4460,51,-1908,-2263,9569,6917,142,444,-238,1,0,23,49,360,0,53298,1
359,2,31530,30558,32237,35698,39409,-4874,106,-1677,408,10052,6816,131,437,-259,1,0,23,49,400,0,53298,1
360,2,31513,30611,32210,35699,39407,-5140,134,-1781,626,9940,7358,121,441,-275,1,0,23,49,440,0,53298,1
361,2,31503,30690,32202,35700,39404,-4975,58,-2084,-790,9600,7440,104,432,-296,1,0,23,49,480,0,53298,1
362,2,31487,30704,32180,35701,39401,-4423,43,-2299,-2051,9245,6677,98,428,-302,1,0,23,49,520,0,53298,1
363,2,31482,30708,32153,35702,39398,-3875,36,-2642,-2072,9607,5500,91,421,-301,1,0,23,49,560,0,53298,1
364,2,31460,30706,32128,35703,39395,-3483,179,-2678,-559,10581,4390,84,422,-328,1,0,23,49,600,0,53298,1
365,2,31441,30708,32081,35704,39393,-3320,327,-2743,627,11278,3949,89,411,-335,1,0,23,49,640,0,53298,1
366,2,31435,30711,32083,35705,39391,-3327,264,-3147,886,11743,3159,80,408,-346,1,0,23,49,680,0,53298,1
367,2,31429,30702,32055,35706,39388,-3155,423,-3054,1662,12145,2267,80,400,-372,1,0,23,49,720,0,53298,1
368,2,31439,30706,32055,35707,39385,-2833,-47,-2965,2763,12290,2062,73,391,-381,1,0,23,49,760,0,53298,1
369,2,31417,30702,32040,35708,39382,-2513,-746,-2841,3962,11756,439,75,381,-393,1,0,23,49,800,0,53298,1
370,2,31388,30697,32032,35709,39379,-2351,-766,-2508,6940,10603,-2499,78,380,-398,1,0,23,49,840,0,53298,1
371,2,31400,30700,32041,35710,39376,-2320,-275,-2482,10068,8288,-4936,91,375,-427,1,0,23,49,880,0,53298,1
372,2,31393,30692,32041,35711,39373,-2168,-201,-2464,11752,5336,-6709,106,368,-442,1,0,23,49,920,0,53298,1
373,2,31400,30699,32042,35712,39370,-2278,-10,-2508,9845,2473,-7917,129,373,-451,1,0,23,49,960,0,53298,1
374,1,31417,30696,32058,35713,0,-2262,-337,-2372,6364,-786,-8419,134,382,-458,1,0,23,50,0,0,53298,1
375,2,31395,30690,32056,35714,38909,-2500,-267,-2607,4768,-3787,-8700,159,381,-451,1,0,23,50,40,0,53298,1
376,2,31405,30689,32070,35715,38907,-2676,-194,-2433,5658,-6753,-8433,173,383,-449,1,0,23,50,80,0,53298,1
377,2,31396,30683,32080,35716,38905,-2977,-289,-3046,3083,-9922,-7552,175,395,-437,1,0,23,50,120,0,53298,1
378,2,31394,30690,32107,35717,38902,-3061,-371,-3481,1195,-11368,-6702,191,415,-425,1,0,23,50,160,0,53298,1
379,2,31409,30686,32140,35718,38900,-3029,-833,-3562,-511,-11711,-5672,198,422,-410,1,0,23,50,200,0,53298,1
380,2,31404,30687,32165,35719,38897,-3349,-1519,-3082,-980,-10694,-5125,202,420,-396,1,0,23,50,240,0,53298,1
381,2,31426,30692,32198,35720,38895,-3692,-2262,-2830,275,-10266,-5595,218,432,-386,1,0,23,50,280,0,53298,1
382,2,31419,30694,32238,35721,38893,-3864,-2333,-2601,2279,-11115,-7438,220,444,-368,1,0,23,50,320,0,53298,1
383,2,31425,30348,32293,35722,38891,-3733,-2207,-2389,2490,-11589,-8754,231,443,-339,1,0,23,50,360,0,53298,1
384,2,31438,30033,32332,35723,38890,-4146,-2107,-3047,-951,-11233,-9335,251,453,-331,1,0,23,50,400,0,53298,1
385,2,31451,30186,32365,35724,38888,-4076,-1544,-2703,929,-11337,-10903,265,435,-311,1,0,23,50,440,0,53298,1
386,2,31488,29998,32415,35725,38886,-3994,-783,-3135,-835,-10781,-9916,273,447,-299,1,0,23,50,480,0,53298,1
387,2,31573,30537,32444,35726,38886,-3877,-71,-3605,-1639,-9870,-8236,292,438,-280,1,0,23,50,520,0,53298,1
388,2,31577,30529,32408,35727,38886,-3645,-1584,-2955,-2260,-6428,-4172,298,442,-280,1,0,23,50,560,0,53298,1
389,2,31558,30486,32394,35728,38885,-3625,-2074,-2089,-1505,-3887,-2758,302,438,-266,1,0,23,50,600,0,53298,1
390,2,31600,30321,32453,35729,38884,-4145,-1158,-2290,2915,-3671,-3407,301,435,-257,1,0,23,50,640,0,53298,1
391,2,31656,30561,32467,35730,38883,-3777,-675,-2337,2466,-3995,-1707,303,435,-259,1,0,23,50,680,0,53298,1
392,2,31643,30608,32443,35731,38882,-3654,-3016,-2078,-3691,-1961,3005,293,437,-251,1,0,23,50,720,0,53298,1
393,2,31635,30573,32436,35732,38881,-3657,-1483,-388,-307,-543,1085,292,440,-258,1,0,23,50,760,0,53298,1
394,2,31699,30605,32521,35733,38880,-3495,-1371,-761,1394,-2982,3759,303,445,-249,1,0,23,50,800,0,53298,1
395,2,31826,30600,32595,35734,38880,-3973,-4618,-4103,-54,-2531,2758,283,449,-247,1,0,23,50,840,0,53298,1
396,2,31857,30733,32612,35735,38880,-4672,-2392,-1725,213,2463,-1305,293,453,-251,1,0,23,50,880,0,53298,1
397,2,31810,30754,32595,35736,38880,-3946,-1874,-1341,977,343,-513,295,439,-251,1,0,23,50,920,0,53298,1
398,2,31791,30388,32577,35737,38882,-3719,-2103,-1651,794,-302,-484,298,442,-256,1,0,23,50,960,0,53298,1
399,1,31796,30470,32578,35738,0,-3917,-2200,-1588,487,75,94,294,432,-256,1,0,23,51,0,0,53298,1
400,2,31773,30591,32559,35739,38392,-3894,-2191,-1540,24,285,147,294,444,-256,1,0,23,51,40,0,53298,1
401,2,31796,30631,32590,35740,38391,-3903,-2222,-1621,139,91,53,290,450,-256,1,0,23,51,80,0,53298,1
402,2,31812,30706,32599,35741,38390,-3867,-2171,-1584,728,180,-30,282,442,-254,1,0,23,51,120,0,53298,1
403,2,31788,30753,32582,35742,38390,-3892,-2119,-1540,222,53,-109,294,444,-248,1,0,23,51,160,0,53298,1
404,2,31786,30761,32581,35743,38390,-3866,-2171,-1595,-14,113,-118,293,443,-249,1,0,23,51,200,0,53298,1
405,2,31786,30740,32581,35744,38391,-3864,-2293,-1625,87,263,-133,295,447,-257,1,0,23,51,240,0,53298,1
406,2,31790,30726,32581,35745,38391,-3838,-2256,-1638,79,117,-58,292,440,-254,1,0,23,51,280,0,53298,1
407,2,31789,30733,32581,35746,38391,-3835,-2191,-1587,45,-100,69,296,438,-248,1,0,23,51,320,0,53298,1
408,2,31788,30748,32580,35747,38391,-3878,-2171,-1579,97,-71,153,291,447,-251,1,0,23,51,360,0,53298,1
409,2,31790,30742,32592,35748,38391,-3865,-2180,-1611,-10,-20,59,295,441,-255,1,0,23,51,400,0,53298,1
410,2,31790,30768,32602,35749,38391,-3876,-2203,-1592,4,-7,-2,295,437,-259,1,0,23,51,440,0,53298,1
411,2,31792,30776,32603,35750,38391,-3868,-2200,-1578,104,28,-22,292,440,-246,1,0,23,51,480,0,53298,1
412,2,31786,30780,32597,35751,38391,-3855,-2202,-1600,35,66,-55,295,443,-257,1,0,23,51,520,0,53298,1
413,2,31785,30776,32605,35752,38392,-3875,-2242,-1611,-15,90,-64,296,438,-260,1,0,23,51,560,0,53298,1
414,2,31801,30796,32602,35753,38391,-3836,-2211,-1620,-46,82,-56,289,437,-245,1,0,23,51,600,0,53298,1
415,2,31799,30793,32604,35754,38391,-3845,-2200,-1605,-114,-5,24,290,444,-240,1,0,23,51,640,0,53298,1
416,2,31788,30792,32600,35755,38390,-3899,-2200,-1591,-168,-65,148,288,438,-254,1,0,23,51,680,0,53298,1
417,2,31819,30806,32620,35756,38391,-3905,-2181,-1592,-207,-154,235,296,440,-254,1,0,23,51,720,0,53298,1
418,2,31821,30808,32620,35757,38391,-3888,-2201,-1625,-195,-59,106,293,443,-255,1,0,23,51,760,0,53298,1
419,2,31816,30811,32611,35758,38391,-3840,-2205,-1624,-382,195,-259,289,445,-261,1,0,23,51,800,0,53298,1
420,2,31828,30815,32604,35759,38392,-3943,-2110,-1644,-493,278,-328,296,444,-256,1,0,23,51,840,0,53298,1
421,2,31810,30809,32581,35760,38392,-3989,-2096,-1641,-386,-429,-51,298,448,-250,1,0,23,51,880,0,53298,1
422,2,31796,30735,32590,35761,38392,-3881,-2263,-1738,-927,-547,373,292,440,-254,1,0,23,51,920,0,53298,1
423,2,31767,30537,32585,35762,38392,-3832,-2113,-2040,-1710,-380,408,292,448,-242,1,0,23,51,960,0,53298,1
424,1,31854,30636,32641,35763,0,-3665,-1379,-2503,-3508,-721,662,290,442,-250,1,0,23,52,0,0,53298,1
425,2,32075,30722,33006,35764,37873,-3559,-1094,-2906,-3168,2657,2794,293,439,-263,1,0,23,52,40,0,53298,1
426,2,32048,30311,33060,35765,37874,-3772,-967,-3083,-88,6977,6568,276,454,-270,1,0,23,52,80,0,53298,1
427,2,31991,30337,33196,35766,37874,-3871,-1023,-3211,1823,8727,8201,269,443,-281,1,0,23,52,120,0,53298,1
428,2,31929,30272,33320,35767,37875,-4084,-1253,-3257,2499,10854,8424,247,451,-295,1,0,23,52,160,0,53298,1
429,2,31901,30941,33300,35768,37875,-4386,-1107,-3301,6099,15296,7090,252,450,-304,1,0,23,52,200,0,53298,1
430,2,31898,30830,33067,35769,37875,-4146,-1250,-3270,5647,17248,7210,244,456,-332,1,0,23,52,240,0,53298,1
431,2,31870,30950,32685,35770,37874,-4066,-1500,-3297,3300,16652,7975,225,447,-369,1,0,23,52,280,0,53298,1
432,2,31461,30939,32309,35771,37874,-4055,-1252,-2846,618,15907,8340,222,430,-382,1,0,23,52,320,0,53298,1
433,2,31405,30667,32032,35772,37873,-4045,-1088,-2260,-1558,14555,8426,216,426,-392,1,0,23,52,360,0,53298,1
434,2,31360,30693,31958,35773,37873,-3791,-1000,-1614,-3296,11439,8788,191,419,-419,1,0,23,52,400,0,53298,1
435,2,31340,30705,31935,35774,37873,-3348,-660,-1068,-4862,6613,8805,185,411,-431,1,0,23,52,440,0,53298,1
436,2,31336,30598,31911,35775,37873,-2817,-1150,-1702,-6558,1771,8461,168,406,-432,1,0,23,52,480,0,53298,1
437,2,31309,30445,31900,35776,37872,-2493,-1049,-1970,-6981,-1623,7077,154,414,-420,1,0,23,52,520,0,53298,1
438,2,31285,30295,31907,35777,37871,-2433,-1098,-2435,-5002,-3916,5952,139,397,-419,1,0,23,52,560,0,53298,1
439,2,31273,30689,31910,35778,37870,-2752,-725,-2246,-2719,-5722,4665,123,413,-401,1,0,23,52,600,0,53298,1
440,2,31269,30626,31909,35779,37869,-3180,198,-1864,-3486,-9285,5007,126,414,-394,1,0,23,52,640,0,53298,1
441,2,31261,30572,31908,35780,37868,-3471,-628,-2753,-8915,-13047,5127,117,413,-373,1,0,23,52,680,0,53298,1
442,2,31246,30535,31907,35781,37867,-3716,-439,-2759,-8977,-15044,2555,105,425,-355,1,0,23,52,720,0,53298,1
443,2,31237,30528,31911,35782,37866,-4151,-182,-2847,-6643,-15535,1146,102,424,-334,1,0,23,52,760,0,53298,1
444,2,31250,30506,31918,35783,37865,-4723,-1050,-2836,-3527,-14443,-655,108,422,-304,1,0,23,52,800,0,53298,1
445,2,31256,30643,31942,35784,37864,-4790,-491,-2499,1358,-12880,-3644,109,431,-291,1,0,23,52,840,0,53298,1
446,2,31251,30558,31966,35785,37864,-4596,-64,-1832,1067,-11987,-5299,118,436,-276,1,0,23,52,880,0,53298,1
447,2,31256,30411,31997,35786,37863,-4346,-401,-1696,-4241,-12163,-4680,126,442,-254,1,0,23,52,920,0,53298,1
448,2,31249,30430,32022,35787,37862,-4199,-619,-1686,-5825,-11267,-5759,121,437,-239,1,0,23,52,960,0,53298,1
449,1,31250,30641,32046,35788,0,-4140,-235,-1438,-3597,-10348,-6523,144,432,-218,1,0,23,53,0,1,53298,1
450,2,31255,30697,32075,35789,37353,-4291,-345,-956,-2069,-9248,-6820,146,438,-196,1,0,23,53,40,1,53298,1
451,2,31266,30541,32078,35790,37353,-4265,23,-711,647,-8514,-7278,166,436,-196,1,0,23,53,80,1,53298,1
452,2,31293,30635,32116,35791,37354,-4629,1320,-3163,1060,-6785,-6239,172,444,-184,1,0,23,53,120,1,53298,1
453,2,31299,30432,32155,35792,37354,-5085,2164,-3121,5795,-2039,-2463,171,441,-185,1,0,23,53,160,1,53298,1
454,2,31294,30731,32137,35793,37355,-3967,115,-1091,6728,-1087,-1167,176,440,-188,1,0,23,53,200,1,53298,1
455,2,31296,30720,32133,35794,37355,-3661,-632,-956,-58,-196,-803,168,440,-194,1,0,23,53,240,1,53298,1
456,2,31312,30634,32180,35795,37355,-4134,-390,-973,405,-221,-1067,178,442,-182,1,0,23,53,280,1,53298,1
457,2,31917,30433,32745,35796,37355,-5020,-332,-14,2747,-129,-1309,167,439,-181,1,0,23,53,320,1,53298,1
458,2,31937,30652,32790,35797,37354,-4890,-750,-243,-153,25,-1504,180,444,-186,1,0,23,53,360,1,53298,1
459,2,31927,30701,32792,35798,37354,-4230,-652,-664,-1848,682,-1268,178,442,-182,1,0,23,53,400,1,53298,1
460,2,31941,30680,32790,35799,37354,-4324,-818,-694,-397,762,-793,173,437,-177,1,0,23,53,440,1,53298,1
461,2,31956,30705,32830,35800,37354,-4652,-766,-606,917,615,-564,177,449,-183,1,0,23,53,480,1,53298,1
462,2,31939,30090,32817,35801,37353,-4608,-577,-567,662,352,-460,173,435,-185,1,0,23,53,520,1,53298,1
463,2,31940,30170,32808,35802,37354,-4456,-724,-653,63,444,-534,181,439,-199,1,0,23,53,560,1,53298,1
464,2,31947,30083,32822,35803,37353,-4455,-799,-694,5,185,-354,181,439,-193,1,0,23,53,600,1,53298,1
465,2,31964,30614,32828,35804,37354,-4489,-729,-663,123,-196,-79,181,443,-189,1,0,23,53,640,1,53298,1
466,2,31956,31024,32831,35805,37353,-4502,-696,-591,85,-381,-4,183,441,-187,1,0,23,53,680,1,53298,1
467,2,31958,30838,32831,35806,37352,-4458,-679,-581,-93,-323,-30,184,436,-190,1,0,23,53,720,1,53298,1
468,2,31953,30962,32834,35807,37351,-4473,-714,-585,-148,-170,-21,178,444,-188,1,0,23,53,760,1,53298,1
469,2,31953,30875,32823,35808,37351,-4468,-702,-609,-24,-16,-34,184,446,-182,1,0,23,53,800,1,53298,1
470,2,31938,30405,32817,35809,37350,-4474,-716,-604,50,90,-105,172,436,-184,1,0,23,53,840,1,53298,1
471,2,31945,30827,32831,35810,37349,-4493,-737,-629,94,124,-161,183,439,-199,1,0,23,53,880,1,53298,1
472,2,31949,31003,32831,35811,37348,-4479,-722,-609,95,109,-149,175,441,-181,1,0,23,53,920,1,53298,1
473,2,31952,30806,32830,35812,37347,-4470,-732,-626,42,61,-95,174,438,-194,1,0,23,53,960,1,53298,1
474,1,31945,30705,32818,35813,0,-4476,-740,-629,11,-32,-26,183,431,-183,1,0,23,54,0,1,53298,1
475,2,31948,30876,32825,35814,36832,-4473,-735,-613,12,-84,15,173,439,-179,1,0,23,54,40,1,53298,1
476,2,31949,31000,32814,35815,36830,-4484,-748,-628,75,-13,46,173,439,-175,1,0,23,54,80,1,53298,1
477,2,31953,30981,32826,35816,36828,-4467,-673,-624,705,240,-1,185,439,-185,1,0,23,54,120,1,53298,1
478,2,31941,30974,32807,35817,36826,-4424,-737,-636,815,446,8,184,446,-194,1,0,23,54,160,1,53298,1
479,2,31950,30968,32796,35818,36825,-4485,-726,-661,239,203,197,182,446,-192,1,0,23,54,200,1,53298,1
480,2,31949,31004,32805,35819,36823,-4522,-708,-639,297,79,276,182,440,-196,1,0,23,54,240,1,53298,1
481,2,31942,31012,32791,35820,36821,-4481,-674,-691,190,36,314,180,440,-188,1,0,23,54,280,1,53298,1
482,2,31931,31020,32781,35821,36820,-4421,-714,-724,-131,-16,423,186,438,-194,1,0,23,54,320,1,53298,1
483,2,31930,31022,32763,35822,36818,-4417,-684,-775,-355,-86,582,158,440,-192,1,0,23,54,360,1,53298,1
484,2,31931,31023,32777,35823,36817,-4447,-511,-1019,-469,23,931,171,439,-185,1,0,23,54,400,1,53298,1
485,2,31918,31025,32754,35824,36815,-4241,-220,-1470,-392,925,1531,180,440,-192,1,0,23,54,440,1,53298,1
486,2,31880,30980,32746,35825,36812,-4017,338,-1795,255,2367,2643,173,441,-189,1,0,23,54,480,1,53298,1
487,2,31860,30894,32714,35826,36810,-4079,592,-2069,475,4471,4107,165,447,-203,1,0,23,54,520,1,53298,1
488,2,31841,30935,32665,35827,36807,-4059,421,-2159,-853,6328,5373,156,442,-212,1,0,23,54,560,1,53298,1
489,2,31832,30940,32616,35828,36803,-3948,114,-2379,-276,8645,5395,149,449,-225,1,0,23,54,600,1,53298,1
490,2,31845,30866,32577,35829,36800,-4444,24,-2215,1742,12424,5227,143,445,-247,1,0,23,54,640,1,53298,1
491,2,31848,30824,32560,35830,36797,-5139,-117,-2567,2646,15508,5704,134,442,-264,1,0,23,54,680,1,53298,1
492,2,31834,30794,32547,35831,36795,-5578,193,-2789,2943,16670,6366,123,439,-287,1,0,23,54,720,1,53298,1
493,2,31796,30807,32514,35832,36793,-5529,529,-2717,3000,15632,6840,108,438,-312,1,0,23,54,760,1,53298,1
494,2,31783,30813,32503,35833,36790,-5065,193,-2757,-409,14779,7735,100,432,-336,1,0,23,54,800,1,53298,1
495,2,31783,30793,32475,35834,36788,-4217,93,-3158,-4429,15669,7810,100,414,-346,1,0,23,54,840,1,53298,1
496,2,31775,30747,32436,35835,36785,-3740,265,-2914,-4815,16289,7990,80,404,-364,1,0,23,54,880,1,53298,1
497,2,31796,30762,32416,35836,36782,-3607,-790,-2564,-3718,16889,8213,67,385,-381,1,0,23,54,920,1,53298,1
498,2,31799,30820,32407,35837,36779,-3104,-705,-2613,-1,16495,6321,62,376,-396,1,0,23,54,960,1,53298,1
499,1,31787,30785,32393,35838,0,-2336,-371,-2430,5049,14286,3681,66,362,-410,1,0,23,55,0,0,53298,1
500,2,31779,30768,32393,35839,36311,-1831,-678,-2608,7124,11898,1261,72,350,-436,1,0,23,55,40,0,53298,1
501,2,31758,30731,32379,35840,36307,-1562,-194,-2517,8865,9983,-1490,87,345,-449,1,0,23,55,80,0,53298,1
502,2,31768,30751,32378,35841,36305,-1526,-92,-2449,10790,7304,-3508,96,340,-458,1,0,23,55,120,0,53298,1
503,2,31755,30732,32373,35842,36303,-1544,19,-2516,9517,3659,-4941,111,335,-475,1,0,23,55,160,0,53298,1
504,2,31767,30730,32392,35843,36301,-1653,-201,-2402,5948,188,-6286,125,343,-479,1,0,23,55,200,0,53298,1
505,2,31775,30738,32399,35844,36299,-1890,-874,-1993,3670,-2986,-7915,132,342,-482,1,0,23,55,240,0,53298,1
506,2,31765,30712,32405,35845,36297,-2264,-1187,-2111,4252,-6531,-10230,146,366,-476,1,0,23,55,280,0,53298,1
507,2,31773,30718,32423,35846,36295,-2536,-1427,-2149,9034,-9684,-12150,162,370,-470,1,0,23,55,320,0,53298,1
508,2,31776,30672,32446,35847,36294,-3005,-1279,-2650,11464,-12363,-12524,187,389,-457,1,0,23,55,360,0,53298,1
509,2,31763,30646,32484,35848,36292,-3265,-1019,-3157,11270,-15265,-11686,209,403,-443,1,0,23,55,400,0,53298,1
510,2,31771,30638,32543,35849,36289,-3492,-800,-3511,7722,-17326,-10384,225,409,-419,1,0,23,55,440,0,53298,1
511,2,31786,30595,32585,35850,36287,-4019,-899,-3676,3510,-17514,-8160,232,430,-400,1,0,23,55,480,0,53298,1
512,2,31789,30601,32624,35851,36285,-3908,-1813,-3369,-78,-17686,-6240,252,434,-370,1,0,23,55,520,0,53298,1
513,2,31802,30666,32669,35852,36283,-4293,-2273,-3587,-2659,-16156,-5009,249,441,-335,1,0,23,55,560,0,53298,1
514,2,31805,30475,32698,35853,36281,-4429,-2642,-3599,-1695,-14133,-5872,257,455,-309,1,0,23,55,600,0,53298,1
515,2,31825,30425,32795,35854,36279,-4343,-2355,-3309,-237,-12845,-6451,274,448,-314,1,0,23,55,640,0,53298,1
516,2,31844,30424,32869,35855,36277,-4037,-2305,-3156,-3018,-10225,-6615,276,446,-296,1,0,23,55,680,0,53298,1
517,2,31889,30433,32961,35856,36276,-3643,-1424,-2650,-1791,-9404,-8216,294,438,-282,1,0,23,55,720,0,53298,1
518,2,31931,30554,32958,35857,36277,-3920,141,-3513,-435,-9313,-9651,311,437,-267,1,0,23,55,760,0,53298,1
519,2,31961,30511,32908,35858,36277,-3406,-1093,-2278,-3863,-6760,-354,311,445,-263,1,0,23,55,800,0,53298,1
520,2,31964,30413,32916,35859,36277,-3383,-1381,-2342,-3770,-3954,1427,296,442,-258,1,0,23,55,840,0,53298,1
521,2,32040,30457,33000,35860,36278,-4213,-3133,-2899,6495,-2132,578,301,437,-251,1,0,23,55,880,0,53298,1
522,2,32023,30485,32962,35861,36278,-3951,-3025,-1090,42,948,331,299,447,-251,1,0,23,55,920,0,53298,1
523,2,32018,30399,32958,35862,36279,-3608,-2024,-1505,-708,-252,466,299,447,-247,1,0,23,55,960,0,53298,1
524,1,32035,30347,32996,35863,0,-3890,-2417,-1935,4192,-399,321,292,438,-244,1,0,23,56,0,1,53298,1
525,2,32033,30325,32987,35864,35793,-3724,-2597,-1569,948,741,-118,296,440,-254,1,0,23,56,40,1,53298,1
526,2,32046,30328,32986,35865,35793,-3835,-2287,-1501,-2034,547,-270,298,440,-254,1,0,23,56,80,1,53298,1
527,2,32049,30346,32959,35866,35792,-3892,-2364,-1667,-1776,189,228,293,445,-259,1,0,23,56,120,1,53298,1
528,2,32043,30346,32952,35867,35792,-3786,-2370,-1586,-793,-108,361,302,442,-260,1,0,23,56,160,1,53298,1
529,2,32042,30353,32957,35868,35792,-3757,-2291,-1553,274,-264,343,297,439,-253,1,0,23,56,200,1,53298,1
530,2,32045,30379,32965,35869,35791,-3817,-2303,-1603,606,-52,42,297,439,-247,1,0,23,56,240,1,53298,1
531,2,32052,30425,32963,35870,35790,-3814,-2344,-1596,330,139,-135,298,438,-248,1,0,23,56,280,1,53298,1
532,2,32048,30398,32964,35871,35789,-3815,-2354,-1607,307,132,-130,294,436,-258,1,0,23,56,320,1,53298,1
533,2,32056,30381,32969,35872,35788,-3766,-2404,-1625,307,152,-49,301,439,-257,1,0,23,56,360,1,53298,1
534,2,32056,30424,32965,35873,35788,-3753,-2366,-1621,-191,67,-56,298,440,-246,1,0,23,56,400,1,53298,1
535,2,32050,30429,32959,35874,35787,-3795,-2366,-1617,-440,-63,33,306,440,-254,1,0,23,56,440,1,53298,1
536,2,32053,30436,32962,35875,35786,-3804,-2369,-1603,-133,-42,103,302,434,-256,1,0,23,56,480,1,53298,1
537,2,32051,30464,32961,35876,35786,-3793,-2338,-1628,-65,-13,54,303,437,-259,1,0,23,56,520,1,53298,1
538,2,32051,30414,32958,35877,35785,-3795,-2315,-1587,-237,12,6,293,437,-247,1,0,23,56,560,1,53298,1
539,2,32050,30474,32954,35878,35784,-3802,-2343,-1631,-166,49,-28,300,444,-258,1,0,23,56,600,1,53298,1
540,2,32049,30464,32948,35879,35783,-3831,-2301,-1576,-114,35,64,302,446,-250,1,0,23,56,640,1,53298,1
541,2,32042,30458,32944,35880,35783,-3811,-2300,-1604,121,-166,356,305,441,-255,1,0,23,56,680,1,53298,1
542,2,32037,30490,32936,35881,35782,-3807,-2403,-1706,222,-339,679,297,433,-255,1,0,23,56,720,1,53298,1
543,2,32033,30462,32923,35882,35781,-3745,-2433,-1694,-533,-411,510,307,445,-247,1,0,23,56,760,1,53298,1
544,2,32025,30450,32910,35883,35781,-3761,-2281,-1600,-1326,-383,215,294,436,-254,1,0,23,56,800,1,53298,1
545,2,32022,30469,32904,35884,35780,-3918,-2224,-1603,-1344,-170,251,298,440,-250,1,0,23,56,840,1,53298,1
546,2,32016,30496,32893,35885,35780,-3905,-2232,-1678,-1209,63,299,293,441,-251,1,0,23,56,880,1,53298,1
547,2,32006,30492,32884,35886,35779,-3819,-2064,-1791,-1042,245,535,294,444,-252,1,0,23,56,920,1,53298,1
548,2,31980,30328,32870,35887,35778,-3749,-2044,-2039,-1583,970,727,296,444,-258,1,0,23,56,960,1,53298,1
549,1,31967,30390,32861,35888,0,-3614,-1783,-2384,-1546,2217,949,288,440,-264,1,0,23,57,0,1,53298,1
550,2,31967,30723,32896,35889,35274,-3613,-1299,-2631,-515,3900,2203,295,443,-267,1,0,23,57,40,1,53298,1
551,2,31962,30712,32930,35890,35274,-3725,-745,-3518,852,6543,4781,290,438,-266,1,0,23,57,80,1,53298,1
552,2,31980,30947,33017,35891,35274,-3929,-1145,-3928,128,9435,6992,273,449,-285,1,0,23,57,120,1,53298,1
553,2,31994,30772,33100,35892,35274,-3985,-1124,-4031,400,13001,8125,254,450,-304,1,0,23,57,160,1,53298,1
554,2,31980,30794,32969,35893,35274,-4179,-989,-3858,686,16105,9166,244,448,-326,1,0,23,57,200,1,53298,1
555,2,31953,30283,32641,35894,35273,-4226,-1057,-3735,513,17427,10192,231,439,-359,1,0,23,57,240,1,53298,1
556,2,31903,30187,32503,35895,35272,-4358,-854,-3403,490,17862,10601,212,436,-386,1,0,23,57,280,1,53298,1
557,2,31805,30402,32432,35896,35271,-4379,-1151,-2626,-324,15682,11031,207,427,-407,1,0,23,57,320,1,53298,1
558,2,31786,30810,32423,35897,35268,-4048,-1366,-1986,-1884,13315,11438,199,413,-425,1,0,23,57,360,1,53298,1
559,2,31757,30903,32429,35898,35267,-3551,-1089,-1814,-3887,11248,11774,180,406,-434,1,0,23,57,400,1,53298,1
560,2,31740,30283,32393,35899,35266,-2941,-1247,-2306,-5213,8954,11141,159,399,-439,1,0,23,57,440,1,53298,1
561,2,31739,30704,32396,35900,35264,-2695,-530,-2527,-5750,6264,9400,143,383,-445,1,0,23,57,480,1,53298,1
562,2,31755,30862,32387,35901,35264,-2357,-320,-2208,-8901,2591,9526,124,376,-446,1,0,23,57,520,1,53298,1
563,2,31751,30914,32381,35902,35263,-2230,-986,-2375,-13257,-239,9064,105,379,-445,1,0,23,57,560,1,53298,1
564,2,31755,30602,32378,35903,35261,-2499,-99,-1242,-11021,-4818,7158,83,367,-425,1,0,23,57,600,1,53298,1
565,2,31757,30508,32370,35904,35259,-2467,-1841,-2527,-13598,-9963,5069,66,382,-400,1,0,23,57,640,1,53298,1
566,2,31734,30219,32378,35905,35256,-2776,-838,-1897,-9013,-12502,-1411,70,388,-380,1,0,23,57,680,1,53298,1
567,2,31748,30753,32392,35906,35253,-3155,188,-1921,-2951,-14506,-4071,72,402,-364,1,0,23,57,720,1,53298,1
568,2,31763,30669,32394,35907,35251,-3724,-252,-2556,-3188,-16959,-4787,73,399,-345,1,0,23,57,760,1,53298,1
569,2,31782,30775,32422,35908,35250,-4517,-655,-2117,-39,-17767,-6751,90,412,-320,1,0,23,57,800,1,53298,1
570,2,31814,30782,32452,35909,35249,-6262,-213,-2126,569,-17519,-7983,98,424,-306,1,0,23,57,840,1,53298,1
571,2,31808,30455,32521,35910,35249,-5929,-39,-1510,-4779,-18237,-10462,104,434,-266,1,0,23,57,880,1,53298,1
572,2,31829,30630,32595,35911,35249,-5530,309,-1378,-2194,-20653,-10813,125,439,-245,1,0,23,57,920,1,53298,1
573,2,31815,30606,32615,35912,35247,-4516,371,-1871,-3221,-18563,-11032,135,437,-215,1,0,23,57,960,1,53298,1
574,1,31788,30111,32608,35913,0,-3903,602,-2073,-416,-16928,-10598,158,438,-194,1,0,23,58,0,0,53298,1
575,2,31773,30159,32640,35914,34757,-3999,737,-2105,-505,-13526,-9844,174,426,-180,1,0,23,58,40,0,53298,1
576,2,31870,30292,32745,35915,34758,-4532,2308,-4703,-1020,-7636,-8243,170,432,-170,1,0,23,58,80,0,53298,1
577,2,31914,30723,32798,35916,34759,-5305,3780,-4173,2588,-495,-2911,182,432,-166,1,0,23,58,120,0,53298,1
578,2,31745,30428,32637,35917,34762,-4832,-810,544,3371,2085,-1336,187,437,-159,1,0,23,58,160,0,53298,1
579,2,31484,30512,32341,35918,34764,-4247,-1824,381,613,1095,-1984,181,437,-163,1,0,23,58,200,0,53298,1
580,2,31500,30510,32371,35919,34765,-4122,-453,-969,1504,141,-3070,183,433,-169,1,0,23,58,240,0,53298,1
581,2,31502,30370,32387,35920,34766,-4624,-526,55,2632,670,-2633,198,436,-168,1,0,23,58,280,0,53298,1
582,2,31527,30273,32388,35921,34768,-4820,-918,-292,216,1129,-2243,197,439,-177,1,0,23,58,320,0,53298,1
583,2,31519,30266,32391,35922,34769,-4478,-967,-540,-183,1716,-1771,190,436,-184,1,0,23,58,360,0,53298,1
584,2,31521,30382,32374,35923,34771,-4335,-1026,-515,884,1535,-1151,197,447,-185,1,0,23,58,400,0,53298,1
585,2,31514,30471,32360,35924,34772,-4536,-924,-544,679,1036,-491,190,440,-170,1,0,23,58,440,0,53298,1
586,2,31538,30423,32394,35925,34773,-4583,-894,-501,161,670,-294,198,438,-184,1,0,23,58,480,0,53298,1
587,2,31522,30463,32394,35926,34775,-4471,-892,-521,283,253,-205,188,440,-178,1,0,23,58,520,0,53298,1
588,2,31533,30542,32396,35927,34777,-4488,-944,-539,573,-88,-219,194,440,-176,1,0,23,58,560,0,53298,1
589,2,31504,30510,32374,35928,34780,-4547,-928,-506,594,-210,-307,199,447,-177,1,0,23,58,600,0,53298,1
590,2,31508,30473,32373,35929,34781,-4459,-925,-449,658,-133,-409,192,444,-184,1,0,23,58,640,0,53298,1
591,2,31522,30486,32384,35930,34783,-4521,-983,-506,421,48,-313,195,441,-179,1,0,23,58,680,0,53298,1
592,2,31528,30489,32398,35931,34784,-4489,-956,-499,4,111,-160,199,441,-175,1,0,23,58,720,0,53298,1
593,2,31531,30470,32391,35932,34785,-4485,-965,-489,44,127,-37,202,436,-190,1,0,23,58,760,0,53298,1
594,2,31505,30455,32370,35933,34787,-4495,-962,-520,-99,29,130,193,445,-183,1,0,23,58,800,0,53298,1
595,2,31511,30469,32390,35934,34788,-4485,-944,-498,-95,-63,129,199,439,-187,1,0,23,58,840,0,53298,1
596,2,31511,30452,32376,35935,34789,-4495,-953,-480,-5,-78,102,194,444,-186,1,0,23,58,880,0,53298,1
597,2,31531,30448,32410,35936,34789,-4484,-938,-493,-45,-54,116,198,440,-182,1,0,23,58,920,0,53298,1
598,2,31525,30467,32389,35937,34790,-4488,-953,-506,81,-27,65,193,439,-177,1,0,23,58,960,0,53298,1
599,1,31547,30463,32413,35938,0,-4485,-939,-491,-66,-54,87,200,444,-182,1,0,23,59,0,1,53298,1
600,2,31546,30433,32398,35939,34239,-4489,-940,-513,-117,-85,169,195,431,-177,1,0,23,59,40,1,53298,1
601,2,31528,30408,32389,35940,34239,-4476,-934,-511,-108,-61,91,194,440,-176,1,0,23,59,80,1,53298,1
602,2,31525,30402,32384,35941,34240,-4505,-932,-481,-95,7,11,200,434,-186,1,0,23,59,120,1,53298,1
603,2,31521,30446,32380,35942,34241,-4447,-944,-498,-1,78,-82,197,431,-183,1,0,23,59,160,1,53298,1
604,2,31515,30543,32381,35943,34242,-4525,-927,-514,-217,100,-109,197,437,-183,1,0,23,59,200,1,53298,1
605,2,31518,30629,32384,35944,34243,-4564,-955,-583,-907,81,20,193,435,-175,1,0,23,59,240,1,53298,1
606,2,31522,30690,32383,35945,34243,-4518,-859,-444,-569,3,251,193,437,-177,1,0,23,59,280,1,53298,1
607,2,31525,30670,32386,35946,34242,-4525,-877,-557,224,17,546,196,438,-182,1,0,23,59,320,1,53298,1
608,2,31520,30662,32380,35947,34242,-4545,-815,-789,-411,41,780,197,437,-173,1,0,23,59,360,1,53298,1
609,2,31491,30655,32332,35948,34240,-4307,-481,-1367,-736,827,1219,193,441,-191,1,0,23,59,400,1,53298,1
610,2,31480,30628,32314,35949,34239,-4063,364,-1838,455,2406,2545,200,444,-182,1,0,23,59,440,1,53298,1
611,2,31490,30612,32286,35950,34237,-4044,651,-2039,-543,4035,4652,181,437,-183,1,0,23,59,480,1,53298,1
612,2,31455,30625,32257,35951,34236,-4168,383,-1853,-1390,5043,6463,168,442,-194,1,0,23,59,520,1,53298,1
613,2,31688,30104,32411,35952,34234,-4086,103,-1925,645,6854,7974,165,447,-209,1,0,23,59,560,1,53298,1
614,2,31814,30019,32538,35953,34232,-4360,188,-1777,4788,9673,8739,153,429,-221,1,0,23,59,600,1,53298,1
615,2,31820,30300,32506,35954,34230,-4740,243,-1672,5793,10819,8767,134,440,-234,1,0,23,59,640,1,53298,1
616,2,31817,30279,32492,35955,34227,-5204,40,-2063,1858,11956,8933,127,437,-249,1,0,23,59,680,1,53298,1
617,2,31819,30365,32483,35956,34224,-5869,-57,-2448,-359,13307,8373,111,441,-275,1,0,23,59,720,1,53298,1
618,2,31819,30890,32459,35957,34222,-5576,-106,-2570,-2827,14723,7349,107,433,-289,1,0,23,59,760,1,53298,1
619,2,31836,30970,32464,35958,34219,-4828,-378,-3150,-4224,15734,6981,98,420,-310,1,0,23,59,800,1,53298,1
620,2,31816,30947,32446,35959,34217,-4089,-387,-3558,-1328,17116,5714,87,421,-327,1,0,23,59,840,1,53298,1
621,2,31796,30961,32426,35960,34216,-3484,-177,-2514,3020,18670,4624,80,410,-364,1,0,23,59,880,1,53298,1
622,2,31794,30934,32383,35961,34214,-3383,-812,-1832,3626,19177,4647,79,393,-381,1,0,23,59,920,1,53298,1
623,2,31205,30678,31819,35962,34213,-3027,-1138,-1556,4145,17129,1574,80,372,-406,1,0,23,59,960,1,53298,1
624,1,31183,30687,31816,35963,0,-2519,-1045,-1526,7305,12184,-2529,90,372,-426,1,0,24,0,0,1,53298,1
625,2,31172,30685,31822,35964,33719,-2129,-770,-1505,9158,6616,-6236,106,372,-438,1,0,24,0,40,1,53298,1
626,2,31174,30683,31818,35965,33717,-2136,-815,-1976,10982,2622,-9535,120,386,-444,1,0,24,0,80,1,53298,1
627,2,31176,30669,31828,35966,33715,-2386,-424,-2265,12110,-980,-11623,146,378,-448,1,0,24,0,120,1,53298,1
628,2,31179,30672,31836,35967,33712,-2628,-117,-2383,11092,-4194,-11768,174,390,-454,1,0,24,0,160,1,53298,1
629,2,31181,30664,31850,35968,33709,-2987,-87,-2757,8311,-7170,-10722,185,391,-439,1,0,24,0,200,1,53298,1
630,2,31182,30669,31888,35969,33708,-3253,-807,-2917,6047,-9520,-9175,202,406,-426,1,0,24,0,240,1,53298,1
631,2,31183,30687,31923,35970,33706,-3463,-1385,-3098,5046,-11292,-8363,213,413,-421,1,0,24,0,280,1,53298,1
632,2,31189,30688,31961,35971,33704,-3701,-1314,-3040,5947,-12749,-7786,230,428,-396,1,0,24,0,320,1,53298,1
633,2,31187,30686,32005,35972,33702,-3934,-1822,-3345,4344,-14069,-7205,240,430,-378,1,0,24,0,360,1,53298,1
634,2,31190,30679,32033,35973,33701,-3571,-1930,-2633,3330,-14391,-7124,256,436,-362,1,0,24,0,400,1,53298,1
635,2,31202,30676,32055,35974,33699,-4304,-1950,-2996,-2656,-13855,-5650,257,441,-337,1,0,24,0,440,1,53298,1
636,2,31204,30685,32081,35975,33697,-4192,-2531,-2936,-6033,-13812,-6350,270,446,-314,1,0,24,0,480,1,53298,1
637,2,31220,30125,32098,35976,33696,-3948,-2296,-2363,-4984,-13717,-8127,273,451,-305,1,0,24,0,520,1,53298,1
638,2,31264,30228,32144,35977,33693,-3820,-2248,-2743,-6244,-11790,-8006,284,444,-278,1,0,24,0,560,1,53298,1
639,2,31367,29990,32196,35978,33692,-3791,-690,-3158,-556,-11857,-8730,304,438,-278,1,0,24,0,600,1,53298,1
640,2,31375,30180,32161,35979,33692,-3451,-601,-3171,-193,-7753,-5810,303,443,-261,1,0,24,0,640,1,53298,1
641,2,31423,30205,32194,35980,33691,-3195,-643,-3002,-1441,-4115,-173,300,438,-258,1,0,24,0,680,1,53298,1
642,2,31497,30566,32207,35981,33691,-4201,-1370,-3408,8775,-2761,538,302,438,-242,1,0,24,0,720,1,53298,1
643,2,31511,30401,32187,35982,33690,-4351,-4007,-818,231,2294,2466,309,447,-249,1,0,24,0,760,1,53298,1
644,2,31513,30306,32189,35983,33690,-3735,-2438,-1468,867,-33,-313,298,442,-254,1,0,24,0,800,1,53298,1
645,2,31540,30404,32209,35984,33690,-3697,-2066,-2189,4765,-1386,-231,298,436,-238,1,0,24,0,840,1,53298,1
646,2,31549,30359,32190,35985,33689,-3670,-2587,-1588,973,888,199,301,437,-245,1,0,24,0,880,1,53298,1
647,2,31543,30206,32180,35986,33689,-3888,-2589,-1394,-1726,653,-30,293,437,-253,1,0,24,0,920,1,53298,1
648,2,31539,30207,32170,35987,33688,-3870,-2364,-1721,-1361,-16,56,299,445,-243,1,0,24,0,960,1,53298,1
649,1,31529,30198,32173,35988,0,-3791,-2355,-1521,-529,-113,523,302,442,-252,1,0,24,1,0,1,53298,1
650,2,31526,30200,32178,35989,33201,-3748,-2397,-1519,202,-296,607,301,441,-249,1,0,24,1,40,1,53298,1
651,2,31526,30221,32188,35990,33200,-3834,-2309,-1570,579,-127,20,294,440,-250,1,0,24,1,80,1,53298,1
652,2,31525,30200,32191,35991,33198,-3881,-2309,-1527,174,204,-226,302,444,-248,1,0,24,1,120,1,53298,1
653,2,31526,30174,32188,35992,33196,-3842,-2352,-1563,456,197,-97,296,446,-254,1,0,24,1,160,1,53298,1
654,2,31534,30220,32193,35993,33194,-3785,-2403,-1565,961,122,153,306,436,-254,1,0,24,1,200,1,53298,1
655,2,31544,30316,32194,35994,33192,-3749,-2447,-1590,807,115,222,293,439,-245,1,0,24,1,240,1,53298,1
656,2,31542,30385,32191,35995,33191,-3768,-2448,-1560,79,114,77,300,450,-250,1,0,24,1,280,1,53298,1
657,2,31540,30374,32192,35996,33189,-3809,-2394,-1559,-277,-8,52,302,440,-240,1,0,24,1,320,1,53298,1
658,2,31542,30523,32194,35997,33188,-3829,-2372,-1561,-187,-29,58,299,431,-255,1,0,24,1,360,1,53298,1
659,2,31541,30598,32194,35998,33186,-3805,-2393,-1550,-187,-34,25,305,441,-245,1,0,24,1,400,1,53298,1
660,2,31536,30602,32188,35999,33184,-3793,-2390,-1542,-393,56,-97,291,437,-251,1,0,24,1,440,1,53298,1
661,2,31535,30591,32190,36000,33182,-3817,-2392,-1570,-97,91,-128,293,437,-255,1,0,24,1,480,1,53298,1
662,2,31534,30595,32189,36001,33180,-3799,-2383,-1566,125,107,-77,293,441,-251,1,0,24,1,520,1,53298,1
663,2,31538,30591,32191,36002,33178,-3806,-2390,-1570,242,7,93,302,436,-256,1,0,24,1,560,1,53298,1
664,2,31540,30572,32195,36003,33176,-3829,-2378,-1600,458,-106,265,303,441,-245,1,0,24,1,600,1,53298,1
665,2,31543,30555,32191,36004,33175,-3861,-2372,-1656,74,67,149,295,433,-251,1,0,24,1,640,1,53298,1
666,2,31530,30545,32173,36005,33174,-3808,-2291,-1704,-921,276,154,303,439,-251,1,0,24,1,680,1,53298,1
667,2,31508,30536,32163,36006,33174,-3703,-2334,-1942,-1822,791,265,298,442,-254,1,0,24,1,720,1,53298,1
668,2,31463,30063,32135,36007,33173,-3641,-1823,-2205,-3037,1824,580,299,445,-259,1,0,24,1,760,1,53298,1
669,2,31400,30520,32101,36008,33172,-3493,-1348,-2801,-2920,3722,1658,295,439,-265,1,0,24,1,800,1,53298,1
670,2,31390,29930,32146,36009,33170,-3631,-1071,-3069,-160,5447,3544,295,445,-269,1,0,24,1,840,1,53298,1
671,2,31344,30118,32224,36010,33169,-3794,-1119,-3347,1533,7639,5524,283,445,-289,1,0,24,1,880,1,53298,1
672,2,31300,30100,32318,36011,33167,-3853,-1195,-3662,3176,10533,7385,269,447,-295,1,0,24,1,920,1,53298,1
673,2,31313,30381,32451,36012,33165,-4098,-1481,-3740,2836,14050,8921,250,446,-316,1,0,24,1,960,1,53298,1
674,1,31277,30107,32551,36013,0,-4285,-1541,-3579,2140,16676,9589,254,442,-350,1,0,24,2,0,1,53298,1
675,2,31238,30237,32465,36014,32683,-3857,-3223,-3935,-339,17852,8994,235,443,-359,1,0,24,2,40,1,53298,1
676,2,31220,29894,31971,36015,32683,-4896,-1212,-2634,1656,18946,4993,228,430,-388,1,0,24,2,80,1,53298,1
677,2,31196,30640,31871,36016,32681,-3414,-1848,-2212,-2760,12393,12874,211,423,-407,1,0,24,2,120,1,53298,1
678,2,31199,30492,31827,36017,32679,-4208,-325,-1631,-3963,13552,9464,188,402,-422,1,0,24,2,160,1,53298,1
679,2,31175,30215,31821,36018,32678,-3445,-1097,-1497,-9016,6888,12691,176,402,-434,1,0,24,2,200,1,53298,1
680,2,31179,30559,31806,36019,32675,-2895,-1692,-1736,-10035,4658,10649,152,396,-428,1,0,24,2,240,1,53298,1
681,2,31177,30531,31806,36020,32672,-2838,-843,-1197,-9148,673,8439,148,396,-434,1,0,24,2,280,1,53298,1
682,2,31174,30648,31809,36021,32671,-2848,-528,-1649,-10772,-5682,7533,124,396,-420,1,0,24,2,320,1,53298,1
683,2,31166,30657,31809,36022,32668,-2582,-1536,-2318,-12544,-9669,4858,112,404,-400,1,0,24,2,360,1,53298,1
684,2,31164,30666,31810,36023,32665,-2787,-230,-2060,-7661,-11846,1822,95,403,-375,1,0,24,2,400,1,53298,1
685,2,31172,30669,31805,36024,32663,-3470,398,-2478,-5074,-14342,1009,94,416,-360,1,0,24,2,440,1,53298,1
686,2,31180,30670,31812,36025,32660,-3969,-410,-2603,-5248,-16354,872,86,422,-336,1,0,24,2,480,1,53298,1
687,2,31175,30667,31833,36026,32658,-4262,-631,-2702,-5689,-16700,-717,90,418,-306,1,0,24,2,520,1,53298,1
688,2,31167,30650,31854,36027,32656,-4687,-235,-2549,-3402,-15270,-3421,94,424,-288,1,0,24,2,560,1,53298,1
689,2,31176,30639,31880,36028,32654,-4562,73,-2240,-951,-13682,-5380,106,430,-280,1,0,24,2,600,1,53298,1
690,2,31208,30650,31905,36029,32653,-4325,104,-2200,-953,-11927,-6154,105,439,-245,1,0,24,2,640,1,53298,1
691,2,31222,30654,31924,36030,32652,-4425,621,-1564,689,-9916,-7587,122,438,-244,1,0,24,2,680,1,53298,1
692,2,31227,30677,31949,36031,32652,-4665,496,-930,203,-10539,-6833,133,439,-223,1,0,24,2,720,1,53298,1
693,2,31246,30493,31970,36032,32651,-4924,218,-1644,-1872,-10794,-6130,144,440,-214,1,0,24,2,760,1,53298,1
694,2,31260,30495,32016,36033,32650,-5253,558,-3751,-5348,-6490,-4488,145,429,-199,1,0,24,2,800,1,53298,1
695,2,31239,30569,32044,36034,32650,-4602,-403,-683,3343,-6368,-2751,153,437,-189,1,0,24,2,840,1,53298,1
696,2,31217,30210,32049,36035,32651,-4192,-902,-172,1123,-6086,-3504,159,439,-187,1,0,24,2,880,1,53298,1
697,2,31223,30578,32089,36036,32651,-4105,-205,-1139,-36,-6292,-4931,162,424,-172,1,0,24,2,920,1,53298,1
698,2,31227,30282,32110,36037,32652,-3744,1102,-2479,34,-4551,-4860,168,430,-174,1,0,24,2,960,1,53298,1
699,1,31199,30117,32106,36038,0,-3914,2156,-2561,553,-662,-2127,171,441,-175,1,0,24,3,0,1,53298,1
700,2,31878,30467,32761,36039,32167,-4885,-546,517,3286,370,-281,172,436,-184,1,0,24,3,40,1,53298,1
701,2,31938,30341,32808,36040,32167,-4948,-967,-282,-191,584,-1067,167,435,-171,1,0,24,3,80,1,53298,1
702,2,31914,30253,32781,36041,32166,-4560,-487,-518,-975,800,-812,169,437,-179,1,0,24,3,120,1,53298,1
703,2,31920,30437,32787,36042,32166,-4361,-599,-416,1325,387,-549,171,431,-181,1,0,24,3,160,1,53298,1
704,2,31928,30432,32793,36043,32165,-4520,-520,-482,1210,205,-331,167,435,-175,1,0,24,3,200,1,53298,1
705,2,31925,30301,32797,36044,32165,-4582,-488,-426,897,9,-273,170,436,-176,1,0,24,3,240,1,53298,1
706,2,31942,30756,32811,36045,32165,-4517,-604,-492,352,-14,-253,176,444,-186,1,0,24,3,280,1,53298,1
707,2,31937,30826,32818,36046,32165,-4499,-591,-445,459,-207,-42,174,434,-174,1,0,24,3,320,1,53298,1
708,2,31957,30852,32818,36047,32164,-4491,-518,-425,399,-179,112,177,437,-177,1,0,24,3,360,1,53298,1
709,2,31955,30628,32811,36048,32163,-4499,-532,-421,224,1,95,176,432,-166,1,0,24,3,400,1,53298,1
710,2,31954,30996,32811,36049,32162,-4513,-536,-448,105,114,28,167,439,-179,1,0,24,3,440,1,53298,1
711,2,31950,30799,32803,36050,32161,-4498,-553,-455,120,141,-50,177,439,-173,1,0,24,3,480,1,53298,1
712,2,31950,30858,32807,36051,32160,-4501,-555,-453,157,110,-104,174,438,-180,1,0,24,3,520,1,53298,1
713,2,31960,30862,32815,36052,32159,-4512,-550,-444,172,89,-140,171,435,-171,1,0,24,3,560,1,53298,1
714,2,31953,30778,32813,36053,32158,-4509,-569,-463,118,88,-152,175,439,-185,1,0,24,3,600,1,53298,1
715,2,31948,30675,32796,36054,32158,-4500,-578,-451,42,39,-85,169,431,-179,1,0,24,3,640,1,53298,1
716,2,31960,30963,32808,36055,32158,-4506,-582,-449,15,-15,5,166,432,-176,1,0,24,3,680,1,53298,1
717,2,31954,30740,32813,36056,32158,-4502,-563,-457,-1,-31,48,170,440,-174,1,0,24,3,720,1,53298,1
718,2,31956,30492,32810,36057,32157,-4493,-551,-467,2,-16,16,178,430,-180,1,0,24,3,760,1,53298,1
719,2,31961,30731,32817,36058,32156,-4489,-564,-447,18,-1,-20,161,439,-175,1,0,24,3,800,1,53298,1
720,2,31954,30924,32814,36059,32155,-4535,-576,-486,50,30,-32,175,435,-175,1,0,24,3,840,1,53298,1
721,2,31958,30974,32811,36060,32155,-4457,-596,-461,367,120,-72,175,437,-177,1,0,24,3,880,1,53298,1
722,2,31960,30895,32816,36061,32154,-4515,-533,-502,660,267,-176,169,431,-177,1,0,24,3,920,1,53298,1
723,2,31953,30870,32803,36062,32155,-4462,-523,-420,1496,613,-516,172,430,-182,1,0,24,3,960,1,53298,1
724,1,31966,30938,32815,36063,0,-4469,-578,-492,934,797,-764,173,433,-179,1,0,24,4,0,0,53298,1
725,2,31958,30940,32794,36064,31649,-4544,-647,-537,91,724,-764,173,435,-181,1,0,24,4,40,0,53298,1
726,2,31938,30938,32785,36065,31648,-4494,-657,-532,7,553,-542,173,437,-187,1,0,24,4,80,0,53298,1
727,2,31951,30946,32792,36066,31648,-4455,-701,-584,331,358,-158,165,439,-185,1,0,24,4,120,0,53298,1
728,2,31947,30926,32783,36067,31647,-4446,-678,-526,-36,-4,292,171,435,-185,1,0,24,4,160,0,53298,1
729,2,31943,30723,32782,36068,31647,-4545,-618,-503,-367,-221,573,172,432,-178,1,0,24,4,200,0,53298,1
730,2,31941,30905,32775,36069,31646,-4482,-575,-580,-440,-163,636,173,437,-179,1,0,24,4,240,0,53298,1
731,2,31939,30944,32771,36070,31645,-4416,-502,-809,-460,16,806,172,436,-192,1,0,24,4,280,0,53298,1
732,2,31928,30935,32769,36071,31645,-4250,-291,-1233,-162,818,992,176,436,-186,1,0,24,4,320,0,53298,1
733,2,31904,30802,32757,36072,31644,-4275,-124,-1596,826,2259,1177,165,437,-185,1,0,24,4,360,0,53298,1
734,2,31867,30805,32749,36073,31643,-4264,427,-2358,2009,4344,1539,164,436,-194,1,0,24,4,400,0,53298,1
735,2,31827,30743,32692,36074,31643,-3841,806,-3128,2387,7325,2246,160,442,-196,1,0,24,4,440,0,53298,1
736,2,31792,30704,32648,36075,31642,-3801,725,-2906,3947,10508,3366,151,445,-215,1,0,24,4,480,0,53298,1
737,2,31777,30542,32559,36076,31641,-4715,689,-2686,4631,14631,5231,144,450,-238,1,0,24,4,520,0,53298,1
738,2,31819,30542,32518,36077,31640,-5112,417,-2435,2434,15995,7563,130,436,-270,1,0,24,4,560,0,53298,1
739,2,31838,30551,32478,36078,31639,-5955,-382,-2522,-3232,18038,10793,116,446,-292,1,0,24,4,600,0,53298,1
740,2,31815,30550,32446,36079,31638,-6213,-1036,-2655,-6593,19562,10909,97,423,-317,1,0,24,4,640,0,53298,1
741,2,31741,30533,32416,36080,31637,-5205,-591,-2886,-6871,18632,9851,82,420,-342,1,0,24,4,680,0,53298,1
742,2,31751,30525,32451,36081,31636,-4193,-472,-3003,-1378,17955,6797,80,404,-364,1,0,24,4,720,0,53298,1
743,2,31762,30542,32434,36082,31634,-3537,-1062,-2630,3324,19142,4429,83,393,-373,1,0,24,4,760,0,53298,1
744,2,31750,30544,32407,36083,31633,-3222,-1051,-2217,6766,19583,1046,85,385,-405,1,0,24,4,800,0,53298,1
745,2,31741,30531,32396,36084,31632,-2667,-813,-1882,8209,16464,-1833,91,369,-437,1,0,24,4,840,0,53298,1
746,2,31748,30539,32396,36085,31630,-2052,-854,-1724,9664,11095,-4108,106,366,-446,1,0,24,4,880,0,53298,1
747,2,31697,30511,32362,36086,31628,-1868,-808,-1547,10101,6806,-6626,114,362,-464,1,0,24,4,920,0,53298,1
748,2,31662,30495,32297,36087,31626,-1922,-379,-1510,9346,2730,-8998,132,366,-456,1,0,24,4,960,0,53298,1
749,1,31669,30548,32314,36088,0,-2014,-333,-1644,7602,-2137,-10258,151,367,-465,1,0,24,5,0,1,53298,1
750,2,31701,30545,32349,36089,31131,-2312,-311,-1923,6673,-5776,-10804,169,375,-463,1,0,24,5,40,1,53298,1
751,2,31738,30467,32383,36090,31130,-2746,-255,-2080,9322,-8391,-10891,197,389,-455,1,0,24,5,80,1,53298,1
752,2,31760,30247,32408,36091,31128,-3380,-456,-2679,10285,-11840,-9393,217,395,-435,1,0,24,5,120,1,53298,1
753,2,31764,30309,32490,36092,31127,-3822,-1038,-3366,8042,-15175,-7182,228,414,-408,1,0,24,5,160,1,53298,1
754,2,31782,30312,32568,36093,31126,-3867,-1515,-3607,5103,-17138,-5740,234,428,-394,1,0,24,5,200,1,53298,1
755,2,31817,30663,32606,36094,31126,-3895,-2368,-3384,9,-16892,-5555,245,437,-373,1,0,24,5,240,1,53298,1
756,2,31845,30390,32616,36095,31125,-4366,-2797,-3719,-4045,-15534,-6896,253,443,-345,1,0,24,5,280,1,53298,1
757,2,31888,30113,32607,36096,31124,-3888,-2775,-3001,-5255,-15061,-7901,260,448,-330,1,0,24,5,320,1,53298,1
758,2,31905,30823,32583,36097,31123,-3988,-2779,-2809,-6168,-13581,-8738,279,439,-319,1,0,24,5,360,1,53298,1
759,2,31536,30717,32132,36098,31122,-3670,-2457,-2663,-4221,-12260,-9250,283,441,-307,1,0,24,5,400,1,53298,1
760,2,31565,30521,32137,36099,31122,-3974,-920,-3205,-1371,-11452,-9671,304,440,-282,1,0,24,5,440,1,53298,1
761,2,32250,30324,32683,36100,31123,-3358,-20,-3066,1046,-10316,-8546,314,438,-274,1,0,24,5,480,1,53298,1
762,2,31738,30515,32094,36101,31125,-4064,1036,-5088,48,-7948,-3078,314,434,-262,1,0,24,5,520,1,53298,1
763,2,32538,30125,32749,36102,31126,-3892,-3353,-3007,3885,-1953,424,307,441,-263,1,0,24,5,560,1,53298,1
764,2,32491,30114,32689,36103,31127,-3801,-3289,-675,1792,2505,339,313,437,-269,1,0,24,5,600,1,53298,1
765,2,32490,30053,32680,36104,31128,-3770,-2723,-914,2807,1154,382,307,439,-263,1,0,24,5,640,1,53298,1
766,2,32529,30072,32713,36105,31128,-3391,-2761,-2331,656,-397,-38,308,430,-252,1,0,24,5,680,1,53298,1
767,2,32532,30263,32730,36106,31127,-3706,-2210,-1847,2048,513,-375,304,432,-268,1,0,24,5,720,1,53298,1
768,2,32540,30746,32713,36107,31127,-3906,-2498,-1306,2530,1272,-930,309,435,-267,1,0,24,5,760,1,53298,1
769,2,32558,30926,32718,36108,31127,-3647,-2904,-1806,598,812,-532,312,436,-264,1,0,24,5,800,1,53298,1
770,2,32548,30683,32723,36109,31127,-3575,-2536,-1966,-322,-97,431,312,438,-262,1,0,24,5,840,1,53298,1
771,2,32548,30786,32709,36110,31126,-3692,-2406,-1547,256,-398,481,309,439,-261,1,0,24,5,880,1,53298,1
772,2,32554,30592,32714,36111,31126,-3730,-2513,-1580,336,-282,-10,317,441,-261,1,0,24,5,920,1,53298,1
773,2,32567,30322,32737,36112,31126,-3717,-2515,-1645,177,-4,-221,310,438,-262,1,0,24,5,960,1,53298,1
774,1,32562,30225,32721,36113,0,-3641,-2526,-1631,325,177,-392,306,430,-256,1,0,24,6,0,1,53298,1
775,2,32570,30180,32731,36114,30614,-3662,-2605,-1654,404,235,-259,305,431,-265,1,0,24,6,40,1,53298,1
776,2,32574,30207,32743,36115,30613,-3659,-2527,-1727,255,168,-83,312,436,-262,1,0,24,6,80,1,53298,1
777,2,32565,30313,32725,36116,30612,-3657,-2584,-1681,-21,-11,34,309,437,-259,1,0,24,6,120,1,53298,1
778,2,32574,30258,32729,36117,30611,-3679,-2577,-1667,-127,-100,132,307,445,-253,1,0,24,6,160,1,53298,1
779,2,32571,30234,32723,36118,30610,-3666,-2527,-1648,-42,-111,121,301,437,-267,1,0,24,6,200,1,53298,1
780,2,32568,30202,32727,36119,30608,-3669,-2554,-1646,102,-22,34,315,435,-259,1,0,24,6,240,1,53298,1
781,2,32538,30189,32694,36120,30606,-3676,-2550,-1674,62,22,-13,316,438,-260,1,0,24,6,280,1,53298,1
782,2,32529,30267,32690,36121,30605,-3669,-2550,-1648,1,-7,-6,308,438,-262,1,0,24,6,320,1,53298,1
783,2,32542,30214,32706,36122,30603,-3652,-2581,-1707,-181,1,-36,312,438,-260,1,0,24,6,360,1,53298,1
784,2,32542,30184,32709,36123,30602,-3641,-2631,-1718,-596,58,-80,310,438,-256,1,0,24,6,400,1,53298,1
785,2,32523,30233,32707,36124,30600,-3686,-2616,-1776,-1020,112,-93,314,438,-260,1,0,24,6,440,1,53298,1
786,2,32487,30228,32692,36125,30599,-3658,-2626,-1825,-1236,156,-165,313,445,-249,1,0,24,6,480,1,53298,1
787,2,32440,30253,32676,36126,30597,-3679,-2451,-1832,-1735,311,-262,310,434,-268,1,0,24,6,520,1,53298,1
788,2,32379,30312,32669,36127,30595,-3670,-1687,-2335,-2943,998,593,307,439,-265,1,0,24,6,560,1,53298,1
789,2,32402,30267,32653,36128,30594,-3489,-1325,-3287,-4379,3148,3116,310,438,-268,1,0,24,6,600,1,53298,1
790,2,32434,30900,32717,36129,30594,-3591,-967,-3693,-2526,5862,5003,289,441,-281,1,0,24,6,640,1,53298,1
791,2,32439,30663,32737,36130,30594,-3621,-1062,-3994,-1759,8677,6917,288,450,-284,1,0,24,6,680,1,53298,1
792,2,32402,30084,32786,36131,30593,-3709,-1183,-4087,-866,12100,8942,280,454,-320,1,0,24,6,720,1,53298,1
793,2,32386,30323,32892,36132,30592,-3858,-1375,-3919,203,15638,10492,264,442,-324,1,0,24,6,760,1,53298,1
794,2,32320,30473,33018,36133,30592,-4240,-1187,-3913,1264,18390,11442,246,440,-364,1,0,24,6,800,1,53298,1
795,2,32317,30507,32955,36134,30592,-4561,-937,-3585,1352,19358,12273,229,433,-391,1,0,24,6,840,1,53298,1
796,2,32235,30528,32578,36135,30591,-4592,-1203,-3334,-1452,19003,13651,204,420,-416,1,0,24,6,880,1,53298,1
797,2,32112,30814,32375,36136,30590,-4401,-1345,-2913,-4579,17584,13732,190,400,-440,1,0,24,6,920,1,53298,1
798,2,32044,30070,32367,36137,30588,-3999,-1102,-1908,-6325,14053,12693,171,381,-459,1,0,24,6,960,1,53298,1
799,1,31980,30946,32360,36138,0,-3062,-1056,-1151,-7042,8662,11701,150,374,-462,1,0,24,7,0,1,53298,1
800,2,31900,30865,32351,36139,30097,-2352,-884,-1120,-7779,3322,10169,138,374,-466,1,0,24,7,40,1,53298,1
801,2,31886,30871,32366,36140,30094,-2338,555,-543,-6884,-2094,9189,121,365,-451,1,0,24,7,80,1,53298,1
802,2,31896,30810,32377,36141,30092,-2544,660,-1497,-12491,-8045,10604,98,368,-440,1,0,24,7,120,1,53298,1
803,2,31877,30728,32380,36142,30090,-2679,-684,-2308,-22694,-14238,10458,66,372,-402,1,0,24,7,160,1,53298,1
804,2,31860,30930,32394,36143,30087,-2828,-1385,-3056,-24141,-17149,5355,49,381,-369,1,0,24,7,200,1,53298,1
805,2,31856,30900,32403,36144,30085,-3272,-1492,-3122,-13221,-17155,-1771,54,394,-328,1,0,24,7,240,1,53298,1
806,2,31858,30903,32416,36145,30083,-3582,-600,-3514,3064,-16055,-6901,61,409,-321,1,0,24,7,280,1,53298,1
807,2,31863,30486,32443,36146,30081,-3508,411,-3277,9160,-14726,-8556,82,418,-314,1,0,24,7,320,1,53298,1
808,2,31877,30832,32492,36147,30079,-4049,1011,-2703,4384,-13308,-8057,90,422,-302,1,0,24,7,360,1,53298,1
809,2,31900,30661,32518,36148,30076,-4515,1297,-2674,-4000,-11876,-6106,89,431,-277,1,0,24,7,400,1,53298,1
810,2,31919,30803,32539,36149,30074,-4633,445,-2394,-7376,-11128,-5634,99,425,-257,1,0,24,7,440,1,53298,1
811,2,31946,30846,32565,36150,30072,-4493,0,-1789,-2605,-9373,-6330,105,433,-245,1,0,24,7,480,1,53298,1
812,2,31963,30970,32610,36151,30071,-4828,37,-1379,2170,-6868,-7126,118,432,-234,1,0,24,7,520,1,53298,1
813,2,31944,30999,32628,36152,30069,-4162,673,-980,6693,-7675,-8324,128,434,-228,1,0,24,7,560,1,53298,1
814,2,31950,31004,32653,36153,30067,-3837,693,-1179,4921,-9438,-7993,131,441,-219,1,0,24,7,600,1,53298,1
815,2,31950,30982,32697,36154,30065,-5933,3309,-6003,-6218,-923,-4641,139,439,-215,1,0,24,7,640,1,53298,1
816,2,31900,30978,32668,36155,30062,-3687,818,-1404,6295,-743,-1155,146,446,-218,1,0,24,7,680,1,53298,1
817,2,31897,30985,32662,36156,30061,-4008,-581,-301,4266,-158,-1177,134,442,-218,1,0,24,7,720,1,53298,1
818,2,31913,30933,32683,36157,30060,-4700,-1008,-433,1833,-178,-1678,143,439,-219,1,0,24,7,760,1,53298,1
819,2,31921,30873,32693,36158,30059,-4979,-45,-1514,120,237,-699,144,440,-226,1,0,24,7,800,1,53298,1
820,2,31908,30905,32680,36159,30058,-4148,-73,-1006,706,49,-194,144,438,-220,1,0,24,7,840,1,53298,1
821,2,31908,30750,32683,36160,30057,-4192,-312,-1164,569,375,-465,142,442,-218,1,0,24,7,880,1,53298,1
822,2,31913,30812,32688,36161,30055,-4404,-306,-1154,67,211,-142,150,442,-234,1,0,24,7,920,1,53298,1
823,2,31913,30783,32697,36162,30053,-4464,-120,-1103,530,-146,120,147,433,-231,1,0,24,7,960,1,53298,1
824,1,31903,30890,32680,36163,0,-4344,-209,-1094,490,331,-170,145,441,-225,1,0,24,8,0,0,53298,1
825,2,31910,30975,32689,36164,29579,-4322,-253,-1198,414,550,-260,148,444,-226,1,0,24,8,40,0,53298,1
826,2,31916,30967,32690,36165,29577,-4355,-230,-1193,318,93,-186,142,438,-232,1,0,24,8,80,0,53298,1
827,2,31918,30969,32689,36166,29575,-4348,-249,-1155,275,-107,-218,148,452,-230,1,0,24,8,120,0,53298,1
828,2,31920,30990,32694,36167,29573,-4325,-250,-1149,247,31,-143,145,441,-231,1,0,24,8,160,0,53298,1
829,2,31919,30995,32687,36168,29570,-4333,-251,-1179,109,96,-91,155,443,-225,1,0,24,8,200,0,53298,1
830,2,31926,30999,32695,36169,29567,-4331,-246,-1154,52,46,-85,149,443,-225,1,0,24,8,240,0,53298,1
831,2,31924,30983,32693,36170,29565,-4345,-264,-1167,116,114,-30,146,442,-228,1,0,24,8,280,0,53298,1
832,2,31920,30965,32691,36171,29563,-4355,-248,-1231,113,113,-12,152,444,-230,1,0,24,8,320,0,53298,1
833,2,31922,30964,32690,36172,29562,-4341,-256,-1194,211,35,-48,146,444,-230,1,0,24,8,360,0,53298,1
834,2,31920,30960,32686,36173,29560,-4330,-233,-1208,452,47,-47,144,432,-228,1,0,24,8,400,0,53298,1
835,2,31922,30964,32690,36174,29558,-4328,-250,-1269,680,27,-11,152,448,-228,1,0,24,8,440,0,53298,1
836,2,31919,30974,32688,36175,29557,-4330,-250,-1238,570,118,-31,145,455,-227,1,0,24,8,480,0,53298,1
837,2,31916,30991,32679,36176,29554,-4205,-168,-1599,607,526,42,153,445,-229,1,0,24,8,520,0,53298,1
838,2,31900,30993,32667,36177,29552,-4026,-8,-2234,809,1844,281,148,438,-236,1,0,24,8,560,0,53298,1
839,2,31874,30973,32644,36178,29549,-3660,186,-2871,1018,3973,728,142,442,-242,1,0,24,8,600,0,53298,1
840,2,31846,30970,32636,36179,29547,-3514,322,-3053,1702,6559,1650,136,444,-244,1,0,24,8,640,0,53298,1
841,2,31839,30972,32623,36180,29545,-3629,217,-3120,2243,9714,2935,134,446,-266,1,0,24,8,680,0,53298,1
842,2,31840,30991,32572,36181,29542,-4586,144,-2876,2092,13403,3290,132,442,-288,1,0,24,8,720,0,53298,1
843,2,31842,30986,32535,36182,29539,-5690,-209,-3010,-2162,15952,4657,125,443,-307,1,0,24,8,760,0,53298,1
844,2,31836,30959,32513,36183,29537,-5467,-201,-3085,-3228,15291,4541,118,440,-332,1,0,24,8,800,0,53298,1
845,2,31818,30950,32507,36184,29535,-4342,-154,-3349,-3246,13836,4190,114,420,-340,1,0,24,8,840,0,53298,1
846,2,31826,30955,32495,36185,29533,-3552,-1079,-3277,-2094,15528,3721,102,412,-362,1,0,24,8,880,0,53298,1
847,2,31825,30953,32485,36186,29531,-3581,-1257,-2619,198,17897,2631,105,405,-389,1,0,24,8,920,0,53298,1
848,2,31850,30912,32476,36187,29529,-3355,-1369,-2026,3762,17765,330,117,401,-415,1,0,24,8,960,0,53298,1
849,1,31864,30899,32481,36188,0,-3027,-825,-1483,9274,14433,-3413,117,385,-431,1,0,24,9,0,0,53298,1
850,2,31880,30897,32491,36189,29062,-2512,-1009,-1471,12554,9428,-6739,144,390,-442,1,0,24,9,40,0,53298,1
851,2,31863,30900,32482,36190,29060,-2433,-563,-1465,11395,3977,-9299,155,381,-453,1,0,24,9,80,0,53298,1
852,2,31840,30894,32469,36191,29057,-2344,-196,-1804,11511,-849,-10208,179,385,-457,1,0,24,9,120,0,53298,1
853,2,31847,30888,32497,36192,29055,-2461,35,-2090,10858,-4650,-9641,196,400,-448,1,0,24,9,160,0,53298,1
854,2,31863,30905,32553,36193,29053,-2814,-22,-2570,8195,-7951,-7982,209,403,-445,1,0,24,9,200,0,53298,1
855,2,31869,30925,32616,36194,29050,-3566,-629,-3159,3702,-10109,-5775,220,400,-428,1,0,24,9,240,0,53298,1
856,2,31911,30925,32663,36195,29048,-3487,-1737,-3944,3990,-12896,-3956,236,414,-410,1,0,24,9,280,0,53298,1
857,2,31935,30959,32679,36196,29045,-2685,-2551,-3526,4574,-11500,-5248,243,423,-391,1,0,24,9,320,0,53298,1
858,2,31956,30977,32660,36197,29043,-3187,-2570,-3210,-666,-9643,-6222,248,424,-374,1,0,24,9,360,0,53298,1
859,2,31982,30982,32630,36198,29041,-3366,-2806,-3310,-1801,-10398,-7184,258,444,-362,1,0,24,9,400,0,53298,1
860,2,31990,30977,32601,36199,29039,-3021,-2819,-2742,-1480,-11289,-7625,265,439,-351,1,0,24,9,440,0,53298,1
861,2,32031,30976,32604,36200,29037,-3825,-1951,-2983,-2237,-10322,-7575,274,440,-328,1,0,24,9,480,0,53298,1
862,2,32101,30979,32622,36201,29035,-3851,-1160,-3553,-1048,-10041,-7452,290,438,-318,1,0,24,9,520,0,53298,1
863,2,32116,30978,32631,36202,29034,-3075,-1081,-2763,186,-8876,-5915,297,445,-305,1,0,24,9,560,0,53298,1
864,2,32137,30969,32649,36203,29034,-3275,-1167,-2451,2456,-5812,-2509,299,451,-301,1,0,24,9,600,0,53298,1
865,2,32149,30972,32701,36204,29032,-3338,-1212,-2110,5783,-4421,549,303,433,-291,1,0,24,9,640,0,53298,1
866,2,32309,30951,32768,36205,29031,-3906,-1439,-4446,5109,-3693,4233,293,443,-285,1,0,24,9,680,0,53298,1
867,2,32428,30945,32773,36206,29029,-4177,-2784,-2868,3909,1688,419,290,446,-276,1,0,24,9,720,0,53298,1
868,2,32396,30962,32749,36207,29027,-3618,-2873,-1594,-341,758,-136,293,441,-287,1,0,24,9,760,0,53298,1
869,2,32394,30968,32751,36208,29026,-3426,-2874,-1700,-2959,-242,1819,288,448,-292,1,0,24,9,800,0,53298,1
870,2,32415,30968,32739,36209,29024,-3038,-2750,-2035,-1219,-907,1395,294,442,-294,1,0,24,9,840,0,53298,1
871,2,32420,30955,32756,36210,29024,-3656,-2091,-1932,1115,619,320,285,451,-287,1,0,24,9,880,0,53298,1
872,2,32431,30943,32776,36211,29024,-3764,-2384,-2015,1760,620,-257,292,446,-298,1,0,24,9,920,0,53298,1
873,2,32445,30928,32777,36212,29023,-3588,-2514,-2026,753,466,-673,280,444,-294,1,0,24,9,960,0,53298,1
874,1,32435,30925,32774,36213,0,-3436,-2593,-2089,-292,279,-473,280,446,-294,1,0,24,10,0,0,53298,1
875,2,32428,30934,32784,36214,28548,-3519,-2431,-2014,-473,-124,102,293,447,-291,1,0,24,10,40,0,53298,1
876,2,32427,30911,32790,36215,28546,-3638,-2376,-1954,-454,-198,215,285,443,-293,1,0,24,10,80,0,53298,1
877,2,32424,30913,32779,36216,28545,-3616,-2391,-1983,-196,-4,10,282,458,-288,1,0,24,10,120,0,53298,1
878,2,32426,30900,32790,36217,28544,-3519,-2400,-1984,165,27,-113,294,438,-290,1,0,24,10,160,0,53298,1
879,2,32428,30877,32777,36218,28543,-3528,-2398,-2008,297,110,-127,286,444,-286,1,0,24,10,200,0,53298,1
880,2,32435,30871,32790,36219,28541,-3552,-2405,-2028,67,32,-18,281,443,-279,1,0,24,10,240,0,53298,1
881,2,32432,30840,32781,36220,28540,-3570,-2424,-2029,-135,-179,147,283,453,-291,1,0,24,10,280,0,53298,1
882,2,32424,30835,32780,36221,28538,-3507,-2512,-2037,-129,-203,224,288,442,-292,1,0,24,10,320,0,53298,1
883,2,32427,30870,32769,36222,28536,-3574,-2323,-1959,-292,-82,177,291,443,-289,1,0,24,10,360,0,53298,1
884,2,32422,30864,32770,36223,28534,-3565,-2521,-2090,-69,61,22,283,451,-287,1,0,24,10,400,0,53298,1
885,2,32403,30872,32749,36224,28533,-3656,-2510,-2232,-383,220,-198,288,450,-286,1,0,24,10,440,0,53298,1
886,2,32352,30877,32734,36225,28533,-3555,-2462,-2379,-1432,-190,-243,285,445,-289,1,0,24,10,480,0,53298,1
887,2,32300,30928,32714,36226,28532,-3527,-1675,-2340,-2651,147,803,281,447,-299,1,0,24,10,520,0,53298,1
888,2,32298,30317,32696,36227,28531,-3369,-1425,-2861,-3489,2098,3075,278,448,-300,1,0,24,10,560,0,53298,1
889,2,32309,30686,32663,36228,28530,-3625,-1587,-3695,-1768,5618,3188,279,451,-311,1,0,24,10,600,0,53298,1
890,2,32339,30922,32693,36229,28529,-3562,-1461,-3776,-269,7047,3633,277,447,-321,1,0,24,10,640,0,53298,1
891,2,32338,30852,32748,36230,28528,-3510,-1747,-4008,-2616,9349,5032,255,453,-327,1,0,24,10,680,0,53298,1
892,2,32313,30342,32787,36231,28528,-3821,-1627,-3956,-2514,12859,5902,256,440,-366,1,0,24,10,720,0,53298,1
893,2,32288,30723,32713,36232,28527,-3920,-1462,-3553,-2486,14300,7594,254,438,-366,1,0,24,10,760,0,53298,1
894,2,32155,30758,32538,36233,28527,-3865,-1451,-3283,-3848,13947,9478,223,433,-395,1,0,24,10,800,0,53298,1
895,2,31538,30589,31952,36234,28526,-3702,-1251,-2935,-4305,13087,10232,211,415,-415,1,0,24,10,840,0,53298,1
896,2,31997,30964,32468,36235,28524,-3490,-268,-2188,-4014,11038,11129,196,418,-426,1,0,24,10,880,0,53298,1
897,2,31951,30953,32465,36236,28521,-3276,-57,-1795,-6032,8684,12884,168,404,-436,1,0,24,10,920,0,53298,1
898,2,31930,30233,32448,36237,28520,-3190,-2,-1552,-10921,5375,14625,136,400,-436,1,0,24,10,960,0,53298,1
899,1,31920,30532,32447,36238,0,-3070,-334,-1560,-15990,253,14342,118,392,-424,1,0,24,11,0,0,53298,1
900,2,31904,30455,32453,36239,28030,-2871,-644,-1868,-19369,-5787,11993,91,389,-407,1,0,24,11,40,0,53298,1
901,2,31886,30385,32455,36240,28028,-2711,-1228,-2101,-19320,-10855,8484,78,394,-378,1,0,24,11,80,0,53298,1
902,2,31864,30577,32466,36241,28027,-2635,-578,-2843,-12468,-13449,3569,54,400,-350,1,0,24,11,120,0,53298,1
903,2,31855,30872,32475,36242,28024,-2651,-486,-2901,-4358,-12551,476,65,399,-343,1,0,24,11,160,0,53298,1
904,2,31851,31008,32502,36243,28021,-3028,-192,-3423,472,-11527,-1845,60,410,-322,1,0,24,11,200,0,53298,1
905,2,31841,31016,32521,36244,28018,-3519,6,-3184,2143,-9599,-3939,66,410,-308,1,0,24,11,240,0,53298,1
906,2,31834,31025,32548,36245,28016,-3928,213,-2889,2437,-8768,-5697,73,417,-305,1,0,24,11,280,0,53298,1
907,2,31838,31027,32573,36246,28014,-3927,832,-2805,4108,-8772,-6701,78,426,-306,1,0,24,11,320,0,53298,1
908,2,31842,30935,32590,36247,28013,-4121,932,-2646,3566,-8883,-6170,89,429,-297,1,0,24,11,360,0,53298,1
909,2,31832,30986,32600,36248,28010,-4110,883,-2063,1379,-8284,-5324,110,430,-278,1,0,24,11,400,0,53298,1
910,2,31825,31000,32623,36249,28008,-4056,753,-1348,503,-7508,-3951,100,426,-272,1,0,24,11,440,0,53298,1
911,2,31823,31017,32625,36250,28006,-4464,251,-1133,-1469,-6325,-3252,117,435,-259,1,0,24,11,480,0,53298,1
912,2,31829,31013,32634,36251,28003,-4170,-143,-607,727,-7948,-4136,116,432,-252,1,0,24,11,520,0,53298,1
913,2,31850,31013,32641,36252,28001,-3894,-540,-990,885,-10461,-5611,130,436,-242,1,0,24,11,560,0,53298,1
914,2,31862,30976,32653,36253,27998,-8709,4457,-7813,-8876,2033,-1270,133,439,-245,1,0,24,11,600,0,53298,1
915,2,31804,30950,32633,36254,27996,-3582,478,-744,9657,-1610,-1550,131,437,-247,1,0,24,11,640,0,53298,1
916,2,31820,30835,32625,36255,27994,-3855,-431,-578,4933,-992,-1090,129,437,-251,1,0,24,11,680,0,53298,1
917,2,31830,30895,32635,36256,27992,-4254,-369,-892,1370,671,-741,123,441,-249,1,0,24,11,720,0,53298,1
918,2,31836,30965,32648,36257,27990,-4653,316,-2208,-943,303,293,118,450,-234,1,0,24,11,760,0,53298,1
919,2,31819,30598,32635,36258,27988,-4280,36,-1167,745,-1140,92,126,442,-236,1,0,24,11,800,0,53298,1
920,2,31821,30961,32639,36259,27986,-4075,-34,-1167,1322,-165,-49,128,444,-240,1,0,24,11,840,0,53298,1
921,2,31831,30915,32636,36260,27984,-4170,79,-1547,882,855,-422,124,440,-246,1,0,24,11,880,0,53298,1
922,2,31830,30953,32638,36261,27982,-4227,82,-1527,608,491,-686,134,444,-252,1,0,24,11,920,0,53298,1
923,2,31828,30928,32640,36262,27979,-4252,-110,-1370,748,432,-945,137,447,-253,1,0,24,11,960,0,53298,1
924,1,31832,30861,32636,36263,0,-4196,-121,-1510,1102,687,-749,126,444,-252,1,0,24,12,0,1,53298,1
925,2,31837,30875,32634,36264,27514,-4185,-83,-1580,1011,472,-421,121,443,-255,1,0,24,12,40,1,53298,1
926,2,31838,30889,32640,36265,27512,-4218,-99,-1505,603,87,-281,133,443,-253,1,0,24,12,80,1,53298,1
927,2,31837,30915,32635,36266,27511,-4216,-98,-1486,466,85,-189,127,439,-241,1,0,24,12,120,1,53298,1
928,2,31841,30928,32635,36267,27508,-4195,-102,-1532,266,148,-144,118,442,-246,1,0,24,12,160,1,53298,1
929,2,31837,30941,32636,36268,27506,-4210,-101,-1505,127,85,-85,127,439,-257,1,0,24,12,200,1,53298,1
930,2,31839,30935,32638,36269,27504,-4195,-106,-1522,21,15,-32,133,445,-257,1,0,24,12,240,1,53298,1
931,2,31835,30924,32632,36270,27503,-4181,-104,-1518,-10,-50,11,136,440,-262,1,0,24,12,280,1,53298,1
932,2,31835,30920,32637,36271,27501,-4197,-86,-1514,63,-78,21,128,442,-244,1,0,24,12,320,1,53298,1
933,2,31832,30918,32632,36272,27498,-4215,-91,-1516,14,-17,-63,129,445,-261,1,0,24,12,360,1,53298,1
934,2,31830,30905,32626,36273,27496,-4209,-90,-1575,-37,22,-145,143,443,-257,1,0,24,12,400,1,53298,1
935,2,31835,30866,32628,36274,27494,-4134,-97,-1560,39,33,-180,137,437,-251,1,0,24,12,440,1,53298,1
936,2,31836,30887,32632,36275,27492,-4172,-91,-1588,162,167,-242,133,439,-253,1,0,24,12,480,1,53298,1
937,2,31841,30899,32644,36276,27489,-4208,-103,-1632,191,127,-213,126,444,-262,1,0,24,12,520,1,53298,1
938,2,31845,30908,32645,36277,27488,-4134,-41,-1773,153,289,-208,133,445,-257,1,0,24,12,560,1,53298,1
939,2,31835,30913,32631,36278,27486,-3881,141,-2221,638,1221,1,132,444,-256,1,0,24,12,600,1,53298,1
940,2,31825,30931,32619,36279,27484,-3711,318,-2371,1433,3023,475,127,445,-253,1,0,24,12,640,1,53298,1
941,2,31819,30933,32595,36280,27482,-3823,355,-2389,1292,4613,1751,133,449,-257,1,0,24,12,680,1,53298,1
942,2,31819,30938,32575,36281,27479,-4109,209,-2449,193,5988,2578,114,438,-274,1,0,24,12,720,1,53298,1
943,2,31805,30936,32527,36282,27476,-4645,3,-2791,-2219,7215,3352,121,437,-279,1,0,24,12,760,1,53298,1
944,2,31807,30949,32513,36283,27474,-4698,-43,-3232,-3267,8736,3473,117,443,-293,1,0,24,12,800,1,53298,1
945,2,31807,30948,32505,36284,27471,-4268,381,-3345,-877,9648,3384,113,439,-297,1,0,24,12,840,1,53298,1
946,2,31810,30949,32496,36285,27468,-3902,170,-3223,-22,11950,4120,105,437,-321,1,0,24,12,880,1,53298,1
947,2,31815,30955,32492,36286,27467,-3861,-541,-3154,-637,14758,4210,103,421,-345,1,0,24,12,920,1,53298,1
948,2,31814,30940,32500,36287,27464,-3703,-725,-2669,149,16025,2873,98,416,-362,1,0,24,12,960,1,53298,1
949,1,31816,30928,32469,36288,0,-3326,-726,-2415,2407,15075,749,108,402,-400,1,0,24,13,0,0,53298,1
950,2,31763,30927,32430,36289,26998,-2851,-1358,-2486,5616,12761,-2213,104,394,-410,1,0,24,13,40,0,53298,1
951,2,31780,30950,32431,36290,26997,-2581,-916,-2190,9995,10753,-5253,116,390,-428,1,0,24,13,80,0,53298,1
952,2,31784,30956,32428,36291,26995,-2524,-770,-1855,11563,8072,-7253,134,396,-442,1,0,24,13,120,0,53298,1
953,2,31789,30939,32424,36292,26993,-2512,-983,-1888,12227,4254,-8529,165,381,-449,1,0,24,13,160,0,53298,1
954,2,31772,30935,32425,36293,26991,-2632,-630,-2233,12828,109,-9666,184,404,-440,1,0,24,13,200,0,53298,1
955,2,31777,30939,32449,36294,26990,-2721,-38,-2470,11435,-3372,-9346,198,408,-450,1,0,24,13,240,0,53298,1
956,2,31790,30944,32482,36295,26988,-2924,-480,-2469,6526,-6077,-7974,219,405,-449,1,0,24,13,280,0,53298,1
957,2,31803,30970,32532,36296,26987,-3331,-955,-2799,3837,-8474,-6921,225,413,-427,1,0,24,13,320,0,53298,1
958,2,31815,30974,32573,36297,26986,-3252,-1382,-3114,3397,-10759,-5819,234,416,-412,1,0,24,13,360,0,53298,1
959,2,31833,30979,32599,36298,26985,-3246,-1809,-2997,2989,-11728,-5002,238,424,-392,1,0,24,13,400,0,53298,1
960,2,31850,30982,32604,36299,26984,-3261,-2455,-3198,908,-11687,-4926,249,433,-379,1,0,24,13,440,0,53298,1
961,2,31866,30982,32602,36300,26982,-3314,-2839,-2973,-282,-11741,-5561,253,439,-351,1,0,24,13,480,0,53298,1
962,2,31892,30848,32584,36301,26982,-3757,-3184,-2762,-3215,-11363,-6064,265,441,-341,1,0,24,13,520,0,53298,1
963,2,31912,30248,32576,36302,26981,-3690,-3110,-2922,-2544,-10624,-7879,284,440,-336,1,0,24,13,560,0,53298,1
964,2,31952,30862,32576,36303,26981,-3449,-2325,-2301,1268,-10873,-9618,291,443,-319,1,0,24,13,600,0,53298,1
965,2,32052,30608,32620,36304,26981,-3419,-1824,-2709,-372,-10519,-9460,297,443,-287,1,0,24,13,640,0,53298,1
966,2,32169,30233,32729,36305,26981,-3448,1015,-4234,1261,-11868,-8150,317,439,-281,1,0,24,13,680,0,53298,1
967,2,32206,30852,32670,36306,26981,-3649,-1598,-4442,-3508,-4849,-1028,319,441,-287,1,0,24,13,720,0,53298,1
968,2,32202,30827,32643,36307,26981,-3859,-2270,-2712,1368,1307,374,311,439,-287,1,0,24,13,760,0,53298,1
969,2,32204,30911,32648,36308,26981,-3728,-1923,-1789,4976,2064,340,311,439,-283,1,0,24,13,800,0,53298,1
970,2,32210,30825,32637,36309,26980,-3399,-3017,-1547,-575,490,2029,314,436,-288,1,0,24,13,840,0,53298,1
971,2,32223,30737,32623,36310,26980,-3113,-3105,-1369,-1171,-395,507,308,436,-292,1,0,24,13,880,0,53298,1
972,2,32282,30816,32631,36311,26979,-3454,-2732,-1927,136,464,40,300,442,-278,1,0,24,13,920,0,53298,1
973,2,32323,30789,32646,36312,26978,-3607,-2497,-2333,1978,323,383,306,444,-280,1,0,24,13,960,0,53298,1
974,1,32360,30945,32693,36313,0,-3508,-2742,-2051,1783,217,230,304,442,-284,1,0,24,14,0,1,53298,1
975,2,32359,30937,32702,36314,26484,-3423,-2655,-1710,-63,154,-32,305,435,-285,1,0,24,14,40,1,53298,1
976,2,32371,30927,32719,36315,26483,-3429,-2633,-2005,-1070,13,140,304,438,-284,1,0,24,14,80,1,53298,1
977,2,32369,30905,32721,36316,26482,-3521,-2575,-2048,-144,0,139,301,437,-287,1,0,24,14,120,1,53298,1
978,2,32391,30921,32735,36317,26481,-3573,-2568,-1880,592,17,5,306,438,-290,1,0,24,14,160,1,53298,1
979,2,32393,30924,32744,36318,26480,-3499,-2634,-1960,38,48,-121,306,448,-288,1,0,24,14,200,1,53298,1
980,2,32403,30912,32746,36319,26479,-3453,-2610,-1975,-124,14,-110,305,439,-287,1,0,24,14,240,1,53298,1
981,2,32411,30937,32741,36320,26479,-3471,-2619,-1948,196,15,-78,306,438,-288,1,0,24,14,280,1,53298,1
982,2,32412,30948,32757,36321,26477,-3486,-2612,-1938,234,31,-36,302,440,-290,1,0,24,14,320,1,53298,1
983,2,32414,30964,32757,36322,26476,-3466,-2634,-1975,-32,44,-46,305,439,-289,1,0,24,14,360,1,53298,1
984,2,32401,30982,32734,36323,26476,-3451,-2669,-1991,-153,18,-8,313,437,-285,1,0,24,14,400,1,53298,1
985,2,32385,30975,32744,36324,26475,-3533,-2598,-2012,-345,10,-6,302,434,-280,1,0,24,14,440,1,53298,1
986,2,32360,30982,32726,36325,26475,-3525,-2667,-2161,-442,-104,-71,305,435,-295,1,0,24,14,480,1,53298,1
987,2,32327,30977,32726,36326,26475,-3512,-2492,-2059,-779,-297,12,310,440,-284,1,0,24,14,520,1,53298,1
988,2,32294,30976,32733,36327,26475,-3619,-2112,-2277,-1094,-68,915,298,444,-276,1,0,24,14,560,1,53298,1
989,2,32268,30976,32728,36328,26476,-3516,-1969,-2806,-574,664,1933,301,437,-293,1,0,24,14,600,1,53298,1
990,2,32239,30972,32789,36329,26476,-3472,-1725,-3171,-547,2475,3374,304,440,-288,1,0,24,14,640,1,53298,1
991,2,32190,30966,32862,36330,26476,-3329,-1505,-3355,752,5089,4529,281,443,-305,1,0,24,14,680,1,53298,1
992,2,32186,30965,32971,36331,26475,-3537,-1544,-3409,333,8714,5331,280,446,-316,1,0,24,14,720,1,53298,1
993,2,32176,30965,33090,36332,26475,-3844,-1804,-3372,-1586,11043,6723,265,439,-331,1,0,24,14,760,1,53298,1
994,2,32160,30972,33182,36333,26475,-4062,-1852,-3155,-3313,11908,7579,260,436,-356,1,0,24,14,800,1,53298,1
995,2,32118,30983,33018,36334,26474,-4006,-2211,-2871,-4377,12334,8274,237,435,-379,1,0,24,14,840,1,53298,1
996,2,32070,30972,32705,36335,26474,-3783,-1969,-2348,-2454,12392,8132,230,430,-382,1,0,24,14,880,1,53298,1
997,2,32036,30951,32494,36336,26474,-3758,-1580,-1822,-1046,11453,7766,238,434,-394,1,0,24,14,920,1,53298,1
998,2,32005,30946,32461,36337,26473,-2516,-2832,-2445,-1159,9245,7201,218,412,-412,1,0,24,14,960,1,53298,1
999,1,31960,30973,32492,36338,0,-2346,-694,-1635,-913,6200,7280,211,417,-427,1,0,24,15,0,1,53298,1
1000,2,31919,30955,32490,36339,25968,-2728,-1226,-1888,-5992,1608,8236,188,418,-416,1,0,24,15,40,1,53298,1
1001,2,31903,30965,32506,36340,25966,-2954,-594,-1589,-4674,-1470,7373,176,418,-414,1,0,24,15,80,1,53298,1
1002,2,31886,30884,32516,36341,25964,-3269,-220,-1830,-10528,-7014,9249,153,415,-397,1,0,24,15,120,1,53298,1
1003,2,31868,30991,32525,36342,25962,-3254,-1467,-2510,-15644,-10338,7740,141,429,-381,1,0,24,15,160,1,53298,1
1004,2,31853,30940,32529,36343,25960,-3458,-330,-2373,-11281,-11847,4666,127,431,-353,1,0,24,15,200,1,53298,1
1005,2,31849,30909,32534,36344,25959,-3428,-1278,-3192,-8808,-12164,2861,117,429,-331,1,0,24,15,240,1,53298,1
1006,2,31849,30890,32539,36345,25958,-3712,-349,-3150,155,-10594,-1186,127,439,-331,1,0,24,15,280,1,53298,1
1007,2,31844,30991,32546,36346,25957,-3914,698,-2818,3500,-9825,-292,126,432,-310,1,0,24,15,320,1,53298,1
1008,2,31845,30987,32554,36347,25956,-4244,335,-2848,-1433,-9052,2235,117,433,-303,1,0,24,15,360,1,53298,1
1009,2,31839,30973,32565,36348,25954,-4130,93,-2781,-4620,-8837,3281,112,436,-292,1,0,24,15,400,1,53298,1
1010,2,31841,30980,32571,36349,25953,-4064,-225,-2487,-4366,-8026,2822,108,428,-280,1,0,24,15,440,1,53298,1
1011,2,31844,30944,32584,36350,25951,-4039,-418,-2140,-2728,-6279,1061,118,434,-256,1,0,24,15,480,1,53298,1
1012,2,31850,30795,32591,36351,25950,-4065,-257,-1544,-683,-5169,-1154,118,428,-260,1,0,24,15,520,1,53298,1
1013,2,31852,30913,32600,36352,25949,-4188,-384,-1144,-804,-5493,-2571,114,442,-252,1,0,24,15,560,1,53298,1
1014,2,31855,30975,32608,36353,25948,-4250,-523,-712,-306,-6472,-4271,122,438,-248,1,0,24,15,600,1,53298,1
1015,2,31837,30971,32611,36354,25946,-3433,333,-3284,-3030,-5782,-4212,131,441,-227,1,0,24,15,640,1,53298,1
1016,2,31798,30914,32600,36355,25945,-4299,1186,-2801,-5960,-870,-2448,137,441,-229,1,0,24,15,680,1,53298,1
1017,2,31804,30950,32624,36356,25944,-3857,-121,-1413,289,-3997,-2047,138,442,-228,1,0,24,15,720,1,53298,1
1018,2,31742,30861,32622,36357,25942,-3943,-346,-1098,168,-1798,-1788,141,441,-219,1,0,24,15,760,1,53298,1
1019,2,31281,30708,32125,36358,25941,-3874,872,-1793,-712,-1338,-997,133,435,-217,1,0,24,15,800,1,53298,1
1020,2,31256,30678,32124,36359,25940,-3921,1365,-2044,-1981,-1128,931,148,440,-222,1,0,24,15,840,1,53298,1
1021,2,31259,30697,32127,36360,25938,-4160,125,-859,2012,-1186,1201,143,439,-221,1,0,24,15,880,1,53298,1
1022,2,31260,30675,32124,36361,25937,-4627,-54,-820,3119,-726,897,140,436,-228,1,0,24,15,920,1,53298,1
1023,2,31266,30680,32134,36362,25936,-4587,-16,-1026,2631,-89,163,135,439,-223,1,0,24,15,960,1,53298,1
1024,1,31268,30611,32125,36363,0,-4254,136,-1133,1544,683,-261,135,443,-217,1,0,24,16,0,0,53298,1
1025,2,31284,30615,32129,36364,25452,-4176,81,-1146,1819,1013,-693,142,442,-226,1,0,24,16,40,0,53298,1
1026,2,31306,30645,32141,36365,25452,-4333,-32,-1243,2197,1013,-938,134,440,-226,1,0,24,16,80,0,53298,1
1027,2,31330,30673,32165,36366,25451,-4380,-63,-1280,1562,812,-863,134,444,-232,1,0,24,16,120,0,53298,1
1028,2,31344,30683,32173,36367,25450,-4285,-97,-1287,645,415,-526,142,432,-222,1,0,24,16,160,0,53298,1
1029,2,31349,30686,32178,36368,25450,-4264,-111,-1282,161,-27,-44,139,441,-225,1,0,24,16,200,0,53298,1
1030,2,31339,30665,32171,36369,25449,-4296,-34,-1236,170,-432,435,139,441,-229,1,0,24,16,240,0,53298,1
1031,2,31326,30651,32173,36370,25449,-4303,16,-1201,256,-354,398,138,446,-230,1,0,24,16,280,0,53298,1
1032,2,31335,30652,32170,36371,25448,-4271,0,-1212,175,60,58,136,436,-228,1,0,24,16,320,0,53298,1
1033,2,31320,30643,32148,36372,25446,-4283,-45,-1230,176,287,-190,130,440,-244,1,0,24,16,360,0,53298,1
1034,2,31314,30666,32144,36373,25446,-4290,-57,-1251,350,284,-217,136,438,-228,1,0,24,16,400,0,53298,1
1035,2,31312,30674,32145,36374,25445,-4307,-64,-1258,432,158,-135,137,441,-239,1,0,24,16,440,0,53298,1
1036,2,31337,30684,32164,36375,25445,-4290,-66,-1277,264,65,-61,137,443,-223,1,0,24,16,480,0,53298,1
1037,2,31328,30681,32165,36376,25445,-4276,-59,-1261,13,-9,18,129,445,-239,1,0,24,16,520,0,53298,1
1038,2,31330,30689,32183,36377,25444,-4292,-68,-1265,-6,-81,87,134,438,-226,1,0,24,16,560,0,53298,1
1039,2,31350,30690,32172,36378,25443,-4289,-43,-1242,64,-62,55,136,442,-230,1,0,24,16,600,0,53298,1
1040,2,31321,30688,32146,36379,25442,-4287,-38,-1245,119,36,-49,139,445,-231,1,0,24,16,640,0,53298,1
1041,2,31306,30682,32125,36380,25442,-4286,-35,-1252,288,98,-124,139,435,-233,1,0,24,16,680,0,53298,1
1042,2,31302,30679,32129,36381,25442,-4270,-99,-1309,504,171,-165,134,446,-232,1,0,24,16,720,0,53298,1
1043,2,31316,30686,32148,36382,25441,-4279,-47,-1265,350,60,-62,136,446,-232,1,0,24,16,760,0,53298,1
1044,2,31319,30682,32155,36383,25440,-4314,-34,-1307,314,30,-45,133,441,-237,1,0,24,16,800,0,53298,1
1045,2,31305,30657,32135,36384,25440,-4298,41,-1458,854,175,-152,137,441,-233,1,0,24,16,840,0,53298,1
1046,2,31306,30652,32121,36385,25440,-4040,17,-1570,1579,694,-305,137,443,-235,1,0,24,16,880,0,53298,1
1047,2,31305,30624,32115,36386,25440,-4056,156,-1819,1462,1674,-36,139,443,-243,1,0,24,16,920,0,53298,1
1048,2,31314,30371,32097,36387,25439,-4112,310,-1875,1450,2904,778,133,441,-241,1,0,24,16,960,0,53298,1
1049,1,31298,30258,32074,36388,0,-3934,418,-2277,1191,3602,2192,134,438,-252,1,0,24,17,0,1,53298,1
1050,2,31297,30205,32045,36389,24937,-3800,389,-2479,-46,4721,3904,119,441,-257,1,0,24,17,40,1,53298,1
1051,2,31300,30165,32015,36390,24936,-4282,414,-2494,-247,6420,4514,124,442,-264,1,0,24,17,80,1,53298,1
1052,2,31303,30193,31993,36391,24935,-4820,224,-2775,-1030,8550,4654,113,435,-279,1,0,24,17,120,1,53298,1
1053,2,31301,30161,31984,36392,24935,-4840,224,-2817,-1415,10591,4275,108,436,-302,1,0,24,17,160,1,53298,1
1054,2,31286,30127,31960,36393,24934,-4389,155,-3198,-131,11667,4228,94,432,-310,1,0,24,17,200,1,53298,1
1055,2,31278,30199,31968,36394,24933,-3712,-526,-3673,156,13657,4368,93,421,-329,1,0,24,17,240,1,53298,1
1056,2,31255,30320,31969,36395,24932,-3582,-1140,-3646,1858,17324,2557,93,411,-355,1,0,24,17,280,1,53298,1
1057,2,31230,30341,31918,36396,24931,-3878,-447,-3027,6321,19754,733,97,413,-385,1,0,24,17,320,1,53298,1
1058,2,31240,30419,31891,36397,24929,-3583,-439,-2701,8218,18697,-760,102,394,-418,1,0,24,17,360,1,53298,1
1059,2,31243,30403,31870,36398,24929,-2993,-705,-2436,8686,15379,-2416,108,388,-434,1,0,24,17,400,1,53298,1
1060,2,31239,30420,31867,36399,24928,-2540,-508,-1658,8827,12059,-4232,126,386,-448,1,0,24,17,440,1,53298,1
1061,2,31238,30530,31869,36400,24927,-2602,-840,-1313,5888,7127,-5681,136,378,-462,1,0,24,17,480,1,53298,1
1062,2,31228,30534,31871,36401,24926,-2314,-663,-1785,5745,995,-7779,146,374,-460,1,0,24,17,520,1,53298,1
1063,2,31227,30569,31874,36402,24925,-2010,-458,-2025,7788,-2890,-9577,161,385,-451,1,0,24,17,560,1,53298,1
1064,2,31237,30606,31880,36403,24924,-2386,-87,-2531,7136,-4381,-9658,192,396,-448,1,0,24,17,600,1,53298,1
1065,2,31248,30630,31898,36404,24923,-2708,-148,-2721,6337,-5923,-8512,203,399,-449,1,0,24,17,640,1,53298,1
1066,2,31266,30661,31921,36405,24922,-3089,-539,-2846,5898,-8208,-7124,219,415,-435,1,0,24,17,680,1,53298,1
1067,2,31281,30686,31966,36406,24922,-3213,-852,-3158,4220,-10170,-5398,219,413,-423,1,0,24,17,720,1,53298,1
1068,2,31292,30674,31992,36407,24921,-3184,-1543,-3145,943,-11786,-3643,216,426,-398,1,0,24,17,760,1,53298,1
1069,2,31303,30647,31982,36408,24921,-3260,-2643,-3097,-2942,-12686,-3987,239,433,-387,1,0,24,17,800,1,53298,1
1070,2,31310,30646,31961,36409,24921,-3768,-2713,-3158,-2553,-12824,-5991,242,444,-368,1,0,24,17,840,1,53298,1
1071,2,31345,30649,31957,36410,24920,-3869,-2311,-2819,226,-13363,-8545,250,446,-348,1,0,24,17,880,1,53298,1
1072,2,31387,30657,31971,36411,24920,-3779,-1849,-3051,649,-13628,-10152,263,447,-325,1,0,24,17,920,1,53298,1
1073,2,31445,30662,32019,36412,24920,-3210,-1258,-2687,421,-12809,-9086,283,449,-313,1,0,24,17,960,1,53298,1
1074,1,31526,30676,32032,36413,0,-3503,-1261,-3236,-20,-10405,-6723,291,445,-295,1,0,24,18,0,1,53298,1
1075,2,31628,30668,32091,36414,24423,-2925,222,-3712,1757,-8763,-3283,286,454,-284,1,0,24,18,40,1,53298,1
1076,2,31662,30608,32074,36415,24423,-4625,-2945,-5749,-2659,-1163,2861,284,448,-292,1,0,24,18,80,1,53298,1
1077,2,31754,30623,32205,36416,24423,-3892,-1866,-1903,6131,2363,-1468,285,443,-289,1,0,24,18,120,1,53298,1
1078,2,31771,30643,32222,36417,24424,-3800,-1571,-1544,1474,2539,1453,291,447,-289,1,0,24,18,160,1,53298,1
1079,2,31858,30663,32335,36418,24424,-3464,-2543,-1367,-2114,1150,3541,271,445,-287,1,0,24,18,200,1,53298,1
1080,2,32090,30800,32512,36419,24424,-3493,-2563,-1416,1273,1211,1219,272,444,-284,1,0,24,18,240,1,53298,1
1081,2,32131,30782,32507,36420,24424,-3659,-2340,-1879,2300,1759,-669,280,450,-292,1,0,24,18,280,1,53298,1
1082,2,32175,30785,32515,36421,24424,-3648,-2351,-2606,-448,644,-132,272,452,-298,1,0,24,18,320,1,53298,1
1083,2,32175,30787,32509,36422,24425,-3566,-2233,-2533,-336,399,-115,284,446,-296,1,0,24,18,360,1,53298,1
1084,2,32159,30783,32483,36423,24424,-3453,-2257,-2087,601,220,-144,286,454,-298,1,0,24,18,400,1,53298,1
1085,2,32149,30778,32484,36424,24424,-3515,-2322,-2061,285,-89,281,274,444,-304,1,0,24,18,440,1,53298,1
1086,2,32144,30782,32479,36425,24425,-3679,-2170,-2122,-66,-82,308,280,446,-296,1,0,24,18,480,1,53298,1
1087,2,32166,30799,32497,36426,24425,-3707,-2067,-2131,47,53,20,284,442,-296,1,0,24,18,520,1,53298,1
1088,2,32161,30792,32490,36427,24426,-3556,-2163,-2097,520,190,-235,270,448,-290,1,0,24,18,560,1,53298,1
1089,2,32166,30795,32496,36428,24426,-3500,-2310,-2153,495,281,-233,284,440,-292,1,0,24,18,600,1,53298,1
1090,2,32163,30784,32496,36429,24426,-3550,-2285,-2207,75,149,-71,282,452,-294,1,0,24,18,640,1,53298,1
1091,2,32154,30790,32503,36430,24426,-3609,-2179,-2161,-315,-52,71,283,443,-287,1,0,24,18,680,1,53298,1
1092,2,32151,30794,32500,36431,24426,-3630,-2155,-2147,-334,-147,172,276,448,-308,1,0,24,18,720,1,53298,1
1093,2,32149,30790,32495,36432,24425,-3619,-2277,-2316,-123,-138,135,274,450,-304,1,0,24,18,760,1,53298,1
1094,2,32134,30784,32505,36433,24424,-3619,-2300,-2442,-273,-249,67,277,439,-299,1,0,24,18,800,1,53298,1
1095,2,32082,30796,32510,36434,24423,-3615,-1914,-2309,-691,-332,299,273,449,-285,1,0,24,18,840,1,53298,1
1096,2,32050,30805,32503,36435,24423,-3564,-1788,-2493,-1290,83,1225,272,454,-296,1,0,24,18,880,1,53298,1
1097,2,32056,30790,32503,36436,24422,-3615,-1581,-2657,-665,1091,1713,275,457,-301,1,0,24,18,920,1,53298,1
1098,2,32133,30810,32540,36437,24422,-3552,-1331,-2841,702,2305,1916,266,456,-306,1,0,24,18,960,1,53298,1
1099,1,32178,30825,32563,36438,0,-3530,-1856,-3319,-1544,4161,3152,268,452,-316,1,0,24,19,0,1,53298,1
1100,2,32168,30798,32563,36439,23908,-3708,-1603,-3520,-1897,6537,3345,259,449,-317,1,0,24,19,40,1,53298,1
1101,2,32162,30793,32566,36440,23908,-3738,-1385,-3495,-1497,8703,4298,252,448,-328,1,0,24,19,80,1,53298,1
1102,2,32133,30783,32568,36441,23909,-3763,-1674,-3504,-1360,10832,5841,244,446,-358,1,0,24,19,120,1,53298,1
1103,2,32067,30780,32524,36442,23909,-3747,-1466,-3353,180,12336,6418,236,438,-380,1,0,24,19,160,1,53298,1
1104,2,31999,30759,32468,36443,23910,-3581,-1354,-2995,484,13196,6896,224,434,-380,1,0,24,19,200,1,53298,1
1105,2,31950,30772,32450,36444,23909,-3534,-1280,-2517,-1648,12973,7496,214,422,-410,1,0,24,19,240,1,53298,1
1106,2,31897,30785,32457,36445,23908,-3238,-1011,-1941,-2824,10486,8303,204,420,-420,1,0,24,19,280,1,53298,1
1107,2,31874,30795,32464,36446,23908,-2882,-1210,-1785,-3465,7011,8920,185,409,-429,1,0,24,19,320,1,53298,1
1108,2,31857,30788,32474,36447,23907,-2652,-865,-1798,-2553,3731,7927,174,410,-430,1,0,24,19,360,1,53298,1
1109,2,31857,30778,32473,36448,23906,-2568,-295,-1990,-5069,-376,7847,165,407,-431,1,0,24,19,400,1,53298,1
1110,2,31859,30760,32470,36449,23905,-2598,-810,-2621,-10501,-3858,7661,137,407,-417,1,0,24,19,440,1,53298,1
1111,2,31852,30645,32460,36450,23904,-3059,24,-2080,-11640,-6637,7203,125,413,-395,1,0,24,19,480,1,53298,1
1112,2,31850,30442,32460,36451,23903,-3440,-227,-2778,-14476,-10259,8102,104,414,-378,1,0,24,19,520,1,53298,1
1113,2,31825,30374,32442,36452,23901,-3553,-406,-2985,-12249,-13377,6155,97,413,-357,1,0,24,19,560,1,53298,1
1114,2,31815,30287,32455,36453,23900,-3408,-320,-3096,-7329,-13415,3642,94,412,-338,1,0,24,19,600,1,53298,1
1115,2,31803,30376,32463,36454,23899,-3613,-314,-3104,-3750,-11329,1200,91,421,-325,1,0,24,19,640,1,53298,1
1116,2,31807,30398,32475,36455,23899,-3969,-189,-2797,-183,-8941,-1086,93,421,-317,1,0,24,19,680,1,53298,1
1117,2,31801,30502,32479,36456,23898,-4147,41,-2327,1988,-8631,-2527,96,434,-302,1,0,24,19,720,1,53298,1
1118,2,31813,30726,32500,36457,23896,-4026,202,-2255,408,-9258,-2845,103,433,-293,1,0,24,19,760,1,53298,1
1119,2,31827,30701,32514,36458,23895,-3791,243,-1649,-599,-9605,-3213,110,434,-270,1,0,24,19,800,1,53298,1
1120,2,31818,30714,32516,36459,23893,-3724,-64,-1532,-1930,-9806,-2932,110,432,-260,1,0,24,19,840,1,53298,1
1121,2,31827,30725,32552,36460,23891,-3882,-88,-1439,-835,-9513,-3860,115,443,-251,1,0,24,19,880,1,53298,1
1122,2,31834,30727,32560,36461,23891,-3701,-635,-1102,-214,-9608,-4945,127,429,-233,1,0,24,19,920,1,53298,1
1123,2,31900,30850,32616,36462,23890,-1907,-158,-2266,-42,-9255,-6340,132,432,-234,1,0,24,19,960,1,53298,1
1124,1,31852,30807,32610,36463,0,-4153,4193,-5888,-8463,3441,-439,137,441,-229,1,0,24,20,0,0,53298,1
1125,2,31822,30954,32589,36464,23392,-3900,-866,-306,7035,-3406,-263,129,439,-227,1,0,24,20,40,0,53298,1
1126,2,31808,30924,32575,36465,23391,-3438,-827,-163,1888,-533,-739,129,439,-225,1,0,24,20,80,0,53298,1
1127,2,31827,30858,32608,36466,23390,-3819,-66,-732,-1022,-273,298,128,444,-218,1,0,24,20,120,0,53298,1
1128,2,31820,30897,32611,36467,23390,-4745,1236,-2319,-1939,-553,1096,128,432,-220,1,0,24,20,160,0,53298,1
1129,2,31810,30897,32590,36468,23389,-4595,29,-732,2819,-237,-39,129,435,-229,1,0,24,20,200,0,53298,1
1130,2,31807,30945,32577,36469,23388,-4271,-260,-732,2815,534,-297,122,442,-236,1,0,24,20,240,0,53298,1
1131,2,31808,30935,32577,36470,23386,-4156,269,-1503,-260,1311,-325,132,436,-222,1,0,24,20,280,0,53298,1
1132,2,31803,30929,32568,36471,23385,-4178,247,-1515,-100,577,-542,123,427,-221,1,0,24,20,320,0,53298,1
1133,2,31803,30913,32571,36472,23384,-4349,-110,-1098,1028,-196,-442,127,437,-225,1,0,24,20,360,0,53298,1
1134,2,31803,30897,32568,36473,23383,-4335,19,-1206,1095,-3,-74,124,446,-230,1,0,24,20,400,0,53298,1
1135,2,31780,30880,32546,36474,23382,-4231,128,-1338,99,82,-19,130,446,-236,1,0,24,20,440,0,53298,1
1136,2,31772,30871,32536,36475,23381,-4182,65,-1245,-85,-83,-57,133,431,-233,1,0,24,20,480,0,53298,1
1137,2,31764,30876,32532,36476,23379,-4218,65,-1268,457,-62,87,131,441,-235,1,0,24,20,520,0,53298,1
1138,2,31761,30871,32525,36477,23378,-4291,104,-1229,831,41,27,126,440,-232,1,0,24,20,560,0,53298,1
1139,2,31767,30880,32535,36478,23377,-4303,67,-1208,1114,280,-322,139,445,-237,1,0,24,20,600,0,53298,1
1140,2,31779,30884,32551,36479,23377,-4275,18,-1259,1046,555,-712,123,443,-233,1,0,24,20,640,0,53298,1
1141,2,31781,30866,32539,36480,23376,-4271,-49,-1288,879,629,-784,129,445,-233,1,0,24,20,680,0,53298,1
1142,2,31803,30893,32552,36481,23377,-4278,-42,-1321,580,579,-604,132,442,-232,1,0,24,20,720,0,53298,1
1143,2,31804,30893,32562,36482,23376,-4273,-52,-1358,349,363,-344,128,448,-236,1,0,24,20,760,0,53298,1
1144,2,31772,30880,32535,36483,23376,-4262,-59,-1325,225,79,-111,127,447,-237,1,0,24,20,800,0,53298,1
1145,2,31763,30882,32534,36484,23376,-4260,-47,-1329,113,-95,69,133,445,-235,1,0,24,20,840,0,53298,1
1146,2,31729,30896,32527,36485,23375,-4255,-3,-1311,1,-100,97,133,445,-235,1,0,24,20,880,0,53298,1
1147,2,31717,30859,32482,36486,23374,-4253,-7,-1308,25,-17,4,124,436,-234,1,0,24,20,920,0,53298,1
1148,2,31673,30840,32442,36487,23373,-4251,-35,-1314,131,80,-85,136,454,-230,1,0,24,20,960,0,53298,1
1149,1,31659,30826,32420,36488,0,-4261,-50,-1328,170,125,-130,140,442,-240,1,0,24,21,0,0,53298,1
1150,2,31631,30811,32402,36489,22877,-4270,-38,-1334,161,145,-128,129,439,-239,1,0,24,21,40,0,53298,1
1151,2,31610,30802,32363,36490,22877,-4272,-40,-1358,163,90,-101,130,440,-238,1,0,24,21,80,0,53298,1
1152,2,31581,30793,32355,36491,22877,-4266,-53,-1344,277,28,-78,128,438,-242,1,0,24,21,120,0,53298,1
1153,2,31592,30797,32359,36492,22876,-4246,-24,-1356,399,61,-98,133,441,-239,1,0,24,21,160,0,53298,1
