sensorStatus,cap1,cap2,cap3,counter,microseconds_since_last_tick,accX,accY,accZ,gyroX,gyroY,gyroZ,magnetX,magnetY,magnetZ,day,hour,min,sec,msec,sync,battery_fuel,crc_good
2,29921,30695,31854,49852,33823,-4447,-986,-744,3,11,69,209,445,-181,1,0,33,15,560,1,53298,1
2,29869,30694,31851,49853,33826,-4443,-974,-766,31,0,23,211,443,-177,1,0,33,15,600,1,53298,1
2,29886,30694,31850,49854,33830,-4447,-990,-734,6,-40,-36,207,445,-175,1,0,33,15,640,1,53298,1
0,29886,30694,31850,49854,33833,-4447,-990,-734,6,-40,-36,207,445,-175,1,0,33,15,640,1,53298,1
2,29950,30694,31857,49864,33265,-4447,-992,-732,-99,-64,52,209,445,-181,1,0,33,16,40,0,53298,1
2,29960,30692,31852,49865,33269,-4447,-999,-733,25,9,24,214,440,-174,1,0,33,16,80,0,53298,1
2,29974,30693,31852,49866,33272,-4445,-980,-745,84,44,7,212,448,-186,1,0,33,16,120,0,53298,1
2,29983,30694,31858,49867,33276,-4433,-997,-742,26,0,-15,205,451,-181,1,0,33,16,160,0,53298,1
2,29984,30693,31855,49868,33279,-4451,-991,-732,-73,-61,-5,220,440,-176,1,0,33,16,200,0,53298,1
2,29980,30694,31853,49869,33281,-4457,-1010,-733,-71,-51,19,217,443,-183,1,0,33,16,240,0,53298,1
2,29985,30694,31858,49870,33284,-4448,-1003,-743,44,32,40,214,446,-186,1,0,33,16,280,0,53298,1
2,29987,30695,31853,49871,33286,-4448,-976,-743,91,63,47,214,448,-180,1,0,33,16,320,0,53298,1
2,29945,30694,31853,49872,33290,-4437,-981,-760,5,-4,58,217,439,-187,1,0,33,16,360,0,53298,1
2,29945,30693,31856,49873,33293,-4445,-972,-744,-120,-90,45,212,446,-186,1,0,33,16,400,0,53298,1
2,29940,30691,31853,49874,33297,-4436,-983,-740,-102,-95,33,214,444,-186,1,0,33,16,440,0,53298,1
2,29943,30692,31853,49875,33300,-4458,-989,-729,-11,-29,17,216,442,-184,1,0,33,16,480,0,53298,1
2,29942,30690,31851,49876,33302,-4446,-981,-736,39,23,12,223,447,-183,1,0,33,16,520,0,53298,1
2,29937,30692,31850,49877,33306,-4444,-973,-734,18,26,38,210,442,-184,1,0,33,16,560,0,53298,1
2,29956,30692,31856,49878,33308,-4441,-976,-729,-4,-5,18,216,438,-182,1,0,33,16,600,0,53298,1
2,29960,30690,31852,49879,33311,-4452,-989,-737,8,-12,-13,209,443,-177,1,0,33,16,640,0,53298,1
2,29945,30692,31857,49880,33313,-4453,-991,-738,-17,-27,0,210,440,-178,1,0,33,16,680,0,53298,1
1,29919,30691,31853,49882,33319,-4452,-990,-732,-43,-36,54,213,445,-171,1,0,33,16,760,0,53298,1
2,29915,30691,31851,49883,33322,-4454,-973,-741,-47,-56,33,213,443,-179,1,0,33,16,800,0,53298,1
2,29911,30690,31855,49884,33325,-4450,-988,-747,-21,-35,5,206,444,-176,1,0,33,16,840,0,53298,1
2,29925,30692,31854,49885,33327,-4454,-989,-709,24,-1,6,220,448,-182,1,0,33,16,880,0,53298,1
2,29926,30686,31857,49886,33329,-4446,-982,-748,28,19,9,217,439,-187,1,0,33,16,920,0,53298,1
2,29907,30685,31853,49887,33331,-4458,-986,-741,23,12,24,215,439,-183,1,0,33,16,960,0,53298,1
1,29882,30685,31854,49888,0,-4451,-991,-737,-21,-13,31,204,442,-170,1,0,33,17,0,0,53298,1
2,29906,30685,31855,49889,32748,-4444,-994,-738,-42,-28,43,220,444,-182,1,0,33,17,40,0,53298,1
2,29951,30685,31854,49890,32751,-4446,-992,-737,-13,-23,21,211,445,-179,1,0,33,17,80,0,53298,1
2,29995,30686,31852,49891,32753,-4456,-983,-726,17,4,4,208,444,-174,1,0,33,17,120,0,53298,1
2,29942,30681,31851,49892,32755,-4446,-979,-738,31,17,3,208,448,-176,1,0,33,17,160,0,53298,1
2,29953,30688,31857,49893,32758,-4442,-982,-747,25,10,8,206,442,-176,1,0,33,17,200,0,53298,1
2,29962,30686,31854,49894,32760,-4442,-985,-728,6,4,14,210,442,-174,1,0,33,17,240,0,53298,1
2,29957,30687,31851,49895,32763,-4454,-990,-743,4,6,11,215,445,-173,1,0,33,17,280,0,53298,1
2,30036,30686,31853,49896,32765,-4462,-989,-741,13,2,3,214,446,-180,1,0,33,17,320,0,53298,1
2,29951,30685,31855,49897,32766,-4429,-987,-752,12,-4,-1,216,444,-184,1,0,33,17,360,0,53298,1
2,29939,30686,31853,49898,32768,-4439,-988,-743,-3,-17,6,211,447,-183,1,0,33,17,400,0,53298,1
2,29936,30687,31856,49899,32772,-4439,-979,-725,-46,-46,39,215,441,-183,1,0,33,17,440,0,53298,1
2,29936,30685,31851,49900,32776,-4458,-977,-729,-77,-49,52,216,446,-180,1,0,33,17,480,0,53298,1
2,29941,30686,31854,49901,32780,-4456,-987,-736,-42,-44,23,223,447,-183,1,0,33,17,520,0,53298,1
2,29912,30686,31851,49902,32783,-4440,-976,-730,14,-10,-19,215,439,-181,1,0,33,17,560,0,53298,1
2,29957,30686,31852,49903,32786,-4448,-984,-736,34,6,-18,213,441,-183,1,0,33,17,600,0,53298,1
2,29770,30685,31854,49904,32789,-4449,-985,-743,1,-12,-3,217,441,-183,1,0,33,17,640,0,53298,1
2,29750,30686,31854,49905,32793,-4443,-992,-744,-31,-31,15,206,448,-182,1,0,33,17,680,0,53298,1
2,29741,30686,31853,49906,32797,-4448,-992,-743,-40,-34,34,220,444,-184,1,0,33,17,720,0,53298,1
2,29708,30684,31852,49907,32800,-4448,-994,-728,-29,-28,63,209,439,-181,1,0,33,17,760,0,53298,1
2,29722,30685,31853,49908,32803,-4453,-978,-728,-16,-28,63,227,449,-183,1,0,33,17,800,0,53298,1
2,29717,30685,31853,49909,32806,-4443,-971,-737,-26,-36,46,209,447,-183,1,0,33,17,840,0,53298,1
2,29743,30685,31853,49910,32809,-4450,-978,-732,-26,-38,28,221,441,-187,1,0,33,17,880,0,53298,1
2,29741,30686,31851,49911,32812,-4458,-979,-729,-19,-18,24,213,437,-173,1,0,33,17,920,0,53298,1
2,29735,30685,31851,49912,32815,-4458,-985,-737,-8,-5,26,204,438,-172,1,0,33,17,960,0,53298,1
1,29724,30685,31850,49913,0,-4450,-977,-734,25,12,10,217,445,-181,1,0,33,18,0,0,53298,1
2,29719,30684,31849,49914,32231,-4449,-989,-737,34,28,-5,207,443,-183,1,0,33,18,40,0,53298,1
2,29734,30683,31852,49915,32235,-4452,-983,-732,14,3,3,216,440,-190,1,0,33,18,80,0,53298,1
2,29736,30684,31850,49916,32237,-4444,-974,-739,-6,-22,13,214,438,-180,1,0,33,18,120,0,53298,1
2,29733,30682,31854,49917,32240,-4435,-972,-724,-45,-36,20,213,449,-185,1,0,33,18,160,0,53298,1
2,29725,30682,31854,49918,32242,-4455,-981,-736,-37,-25,36,217,443,-179,1,0,33,18,200,0,53298,1
2,29726,30683,31852,49919,32245,-4438,-972,-732,-7,-7,22,213,437,-171,1,0,33,18,240,0,53298,1
2,29739,30682,31851,49920,32248,-4430,-976,-734,33,6,-12,214,448,-172,1,0,33,18,280,0,53298,1
2,29731,30684,31852,49921,32252,-4443,-990,-735,50,25,-15,214,446,-178,1,0,33,18,320,0,53298,1
2,29715,30683,31853,49922,32255,-4459,-989,-732,45,31,-11,207,447,-175,1,0,33,18,360,0,53298,1
2,29736,30684,31853,49923,32258,-4451,-978,-750,18,19,-10,215,447,-185,1,0,33,18,400,0,53298,1
2,29753,30684,31850,49924,32260,-4428,-957,-733,49,-75,-30,205,439,-177,1,0,33,18,440,0,53298,1
2,29725,30683,31855,49925,32263,-4498,-1024,-770,-215,-108,30,204,444,-178,1,0,33,18,480,0,53298,1
2,29718,30682,31852,49926,32266,-4597,-916,-675,-364,-261,-7,214,442,-182,1,0,33,18,520,0,53298,1
2,29701,30682,31856,49927,32269,-4447,-1025,-598,-2252,-759,50,219,443,-177,1,0,33,18,560,0,53298,1
2,29692,30684,31863,49928,32271,-4640,-1080,-463,-3462,-1489,-93,220,446,-180,1,0,33,18,600,0,53298,1
2,29659,30685,31867,49929,32274,-4648,-937,-694,-4044,-2441,142,217,443,-167,1,0,33,18,640,0,53298,1
2,29550,30686,31863,49930,32276,-4514,-1106,-597,-3832,-2847,385,222,442,-170,1,0,33,18,680,0,53298,1
2,29204,30688,31862,49931,32279,-4423,-1236,-215,-2769,-2662,-89,220,434,-166,1,0,33,18,720,0,53298,1
2,28430,30688,31870,49932,32283,-4264,-905,-574,-1742,-2717,-1170,227,439,-161,1,0,33,18,760,0,53298,1
2,30860,30696,31876,49933,32287,-4336,-334,-1014,-1166,-1640,-1363,230,436,-168,1,0,33,18,800,0,53298,1
2,28649,30692,31879,49934,32291,-4459,-984,-303,-1150,-69,-716,231,437,-167,1,0,33,18,840,0,53298,1
2,28463,30689,31870,49935,32295,-4434,-879,-655,843,146,-570,224,436,-158,1,0,33,18,880,0,53298,1
2,28764,30689,31865,49936,32299,-4482,-1017,-558,214,603,-814,230,436,-162,1,0,33,18,920,0,53298,1
2,28214,30687,31865,49937,32303,-4519,-896,-635,-328,832,-432,237,431,-163,1,0,33,18,960,0,53298,1
1,28347,30680,31853,49938,0,-4378,-579,-793,2133,1081,1826,219,437,-167,1,0,33,19,0,0,53298,1
2,28146,30663,31826,49939,31718,-3681,2037,-3723,1884,2675,4148,212,438,-174,1,0,33,19,40,0,53298,1
2,28047,33474,31772,49940,31723,-3179,8048,-7461,2509,11219,15009,194,448,-194,1,0,33,19,80,0,53298,1
2,28694,30371,31757,49941,31727,-6113,7821,-7887,4,25438,28396,151,455,-233,1,0,33,19,120,0,53298,1
2,28730,30645,31757,49942,31732,-10769,4627,-5637,-2322,32767,32767,89,439,-281,1,0,33,19,160,0,53298,1
2,28637,30682,31747,49943,31737,-13726,2086,-3207,-5708,32767,32767,35,395,-315,1,0,33,19,200,0,53298,1
2,28672,30598,31735,49944,31741,-10032,-2141,-1654,-13770,32349,32767,12,358,-344,1,0,33,19,240,0,53298,1
2,27242,30632,31755,49945,31744,-4706,-1356,-1044,-10021,20699,24639,-10,326,-344,1,0,33,19,280,0,53298,1
2,27538,30620,31738,49946,31746,-2430,-629,-834,-4601,13954,15417,-27,303,-353,1,0,33,19,320,0,53298,1
2,28595,30491,31710,49947,31748,-2244,-1551,-209,-1519,11693,13852,-33,271,-349,1,0,33,19,360,0,53298,1
2,30399,30629,31723,49948,31750,-1334,-988,461,3937,9829,10974,-28,258,-356,1,0,33,19,400,0,53298,1
2,30943,30134,31735,49949,31752,4,-817,407,2601,5134,6166,-28,250,-368,1,0,33,19,440,0,53298,1
2,30765,30385,31705,49950,31754,311,-639,358,-797,-37,587,-38,252,-366,1,0,33,19,480,0,53298,1
2,31046,30161,31705,49951,31756,40,-41,-418,-3549,-5777,-5605,-32,262,-364,1,0,33,19,520,0,53298,1
2,31028,30244,31687,49952,31757,-516,395,-1281,-1973,-10524,-11219,-40,278,-352,1,0,33,19,560,0,53298,1
2,31024,30009,31716,49953,31757,-1380,1405,-2137,1476,-12575,-14700,-25,293,-349,1,0,33,19,600,0,53298,1
2,31061,30131,31731,49954,31759,-2247,1657,-2829,2822,-12845,-15817,-16,328,-342,1,0,33,19,640,0,53298,1
2,31087,30095,31735,49955,31759,-3015,1963,-3305,6760,-12315,-16159,-3,347,-333,1,0,33,19,680,0,53298,1
2,31068,30129,31742,49956,31760,-4104,1386,-2772,9961,-12391,-15440,12,364,-336,1,0,33,19,720,0,53298,1
2,31087,30126,31760,49957,31763,-5371,1776,-3056,7760,-14710,-16594,41,391,-335,1,0,33,19,760,0,53298,1
2,31061,30058,31749,49958,31765,-5725,1104,-2890,5242,-17310,-18478,56,406,-314,1,0,33,19,800,0,53298,1
2,31037,30110,31749,49959,31768,-6358,1136,-3022,3343,-19406,-20059,83,427,-297,1,0,33,19,840,0,53298,1
2,31048,30110,31751,49960,31771,-5326,1479,-3450,1908,-18865,-20806,120,444,-268,1,0,33,19,880,0,53298,1
2,31060,30089,31753,49961,31774,-5107,1296,-2612,3700,-16630,-19641,142,448,-254,1,0,33,19,920,0,53298,1
2,31036,30069,31754,49962,31777,-4566,1745,-3026,1505,-14858,-17774,167,445,-229,1,0,33,19,960,0,53298,1
1,31023,30116,31763,49963,0,-4003,1309,-2286,13,-11694,-15175,190,440,-210,1,0,33,20,0,1,53298,1
2,31059,30149,31780,49964,31199,-3796,2015,-2808,-2129,-9275,-12092,203,445,-191,1,0,33,20,40,1,53298,1
2,31019,30169,31784,49965,31202,-3164,1143,-2691,-1275,-6203,-7804,211,449,-193,1,0,33,20,80,1,53298,1
2,30841,30130,31780,49966,31204,-3876,-49,-1337,-518,-3021,-3952,225,447,-189,1,0,33,20,120,1,53298,1
2,30998,30164,31792,49967,31205,-4579,-1406,-524,-1792,-2232,-2607,227,435,-185,1,0,33,20,160,1,53298,1
2,31228,30674,31840,49968,31208,-4898,-1396,-576,-1090,-3261,-3413,232,438,-170,1,0,33,20,200,1,53298,1
2,30598,30230,31832,49969,31211,-4877,-778,-994,-2309,-3032,-4223,242,436,-172,1,0,33,20,240,1,53298,1
2,31029,30418,31827,49970,31214,-4771,-616,-908,-1063,-2131,-3383,240,440,-174,1,0,33,20,280,1,53298,1
2,31095,30683,31844,49971,31217,-4512,-1074,-670,-59,-1227,-1104,237,439,-171,1,0,33,20,320,1,53298,1
2,30004,30677,31826,49972,31220,-4441,-1190,-632,751,-810,-474,239,433,-165,1,0,33,20,360,1,53298,1
2,30305,30675,31831,49973,31222,-4449,-1164,-660,612,-322,-593,236,444,-170,1,0,33,20,400,1,53298,1
2,30655,30671,31836,49974,31225,-4384,-1318,-505,199,26,-502,242,436,-172,1,0,33,20,440,1,53298,1
2,30899,30681,31841,49975,31228,-4345,-1176,-636,-154,122,-659,237,443,-165,1,0,33,20,480,1,53298,1
2,31058,30684,31858,49976,31231,-4528,-1259,-634,-799,263,-423,241,433,-163,1,0,33,20,520,1,53298,1
2,31108,30685,31856,49977,31233,-4482,-1243,-604,-810,429,102,245,435,-167,1,0,33,20,560,1,53298,1
2,30955,30683,31857,49978,31236,-4917,-1225,-626,-971,290,467,240,436,-172,1,0,33,20,600,1,53298,1
2,30889,30684,31845,49979,31239,-4515,-1087,-623,-1342,1,937,244,444,-178,1,0,33,20,640,1,53298,1
2,30911,30686,31837,49980,31243,-4400,-445,-1458,-420,238,2780,233,437,-171,1,0,33,20,680,1,53298,1
2,31135,30701,31822,49981,31248,-3628,2449,-4157,549,2746,6614,233,449,-171,1,0,33,20,720,1,53298,1
2,30690,31179,31754,49982,31250,-2929,7745,-6610,4318,12082,15564,210,450,-200,1,0,33,20,760,1,53298,1
2,30717,30691,31857,49983,31253,-6493,7361,-7928,-1505,26191,29089,163,451,-241,1,0,33,20,800,1,53298,1
2,30662,30718,31795,49984,31257,-10689,4282,-5660,-2992,32767,32767,106,444,-298,1,0,33,20,840,1,53298,1
2,30613,30680,31771,49985,31261,-14187,2735,-3790,-5683,32767,32767,51,407,-335,1,0,33,20,880,1,53298,1
2,30714,30709,31763,49986,31264,-9991,-351,-2872,-16094,32681,32767,1,345,-351,1,0,33,20,920,1,53298,1
2,30494,30705,31756,49987,31267,-5544,-1850,-2925,-13851,23652,31215,-28,312,-338,1,0,33,20,960,1,53298,1
1,29707,30701,31715,49988,0,-4007,-825,-554,-4797,19458,21013,-39,255,-347,1,0,33,21,0,1,53298,1
2,29900,30692,31690,49989,30684,-2638,-2333,-218,-1143,16258,19021,-41,235,-349,1,0,33,21,40,1,53298,1
2,30607,30701,31692,49990,30687,-1045,-1450,1651,8159,12151,13362,-39,215,-365,1,0,33,21,80,1,53298,1
2,30402,30697,31698,49991,30688,390,-1247,1265,2572,4943,6007,-40,202,-372,1,0,33,21,120,1,53298,1
2,30044,30695,31701,49992,30690,1011,202,-146,-1064,-1442,18,-38,206,-370,1,0,33,21,160,1,53298,1
2,29326,30694,31691,49993,30691,1417,1166,-1330,-3313,-4462,-3104,-36,220,-362,1,0,33,21,200,1,53298,1
2,29120,30693,31689,49994,30694,1145,1450,-1915,-2215,-4948,-3938,-35,219,-361,1,0,33,21,240,1,53298,1
2,29868,30693,31695,49995,30696,345,1496,-1987,1604,-5302,-4592,-40,238,-362,1,0,33,21,280,1,53298,1
2,29704,30695,31709,49996,30698,-433,1759,-2514,2450,-7559,-7062,-42,250,-370,1,0,33,21,320,1,53298,1
2,30038,30696,31715,49997,30699,-862,1667,-2801,-102,-9023,-9714,-38,256,-360,1,0,33,21,360,1,53298,1
2,29890,30698,31714,49998,30700,-1845,1083,-2296,-267,-9976,-11940,-28,282,-358,1,0,33,21,400,1,53298,1
2,29861,30698,31719,49999,30701,-2449,1300,-2692,1498,-12662,-15592,-23,305,-351,1,0,33,21,440,1,53298,1
2,29850,30697,31720,50000,30701,-2423,1967,-3181,2431,-13632,-17782,-11,331,-357,1,0,33,21,480,1,53298,1
2,29765,30700,31714,50001,30701,-2540,2087,-3137,4185,-12515,-17482,12,356,-346,1,0,33,21,520,1,53298,1
2,29792,30701,31725,50002,30702,-3317,1914,-2730,7011,-12284,-16794,29,377,-335,1,0,33,21,560,1,53298,1
2,29782,30697,31735,50003,30704,-3506,2361,-2878,7539,-13360,-16443,51,397,-333,1,0,33,21,600,1,53298,1
2,29474,30698,31739,50004,30705,-4509,1314,-2384,4356,-14370,-15807,75,421,-315,1,0,33,21,640,1,53298,1
2,29320,30696,31736,50005,30707,-4347,1745,-3227,1384,-15492,-15949,86,422,-290,1,0,33,21,680,1,53298,1
2,29248,30698,31744,50006,30709,-4366,1222,-2698,1705,-13847,-15228,117,433,-283,1,0,33,21,720,1,53298,1
2,28975,30697,31751,50007,30710,-4639,1243,-2541,1763,-12529,-13923,119,441,-257,1,0,33,21,760,1,53298,1
2,28915,30695,31757,50008,30711,-4627,1190,-2516,2107,-11455,-12801,139,447,-247,1,0,33,21,800,1,53298,1
2,28773,30692,31766,50009,30713,-4626,324,-1618,520,-10108,-11505,157,457,-233,1,0,33,21,840,1,53298,1
2,28687,30696,31770,50010,30714,-4751,121,-1299,-733,-10667,-11156,174,450,-214,1,0,33,21,880,1,53298,1
2,28512,30699,31783,50011,30716,-4727,-227,-1320,-1749,-10952,-11597,183,455,-205,1,0,33,21,920,1,53298,1
2,28145,30700,31795,50012,30718,-4368,-446,-1137,-2470,-10024,-11804,212,450,-202,1,0,33,21,960,1,53298,1
1,27730,30707,31857,50013,0,-4341,1007,-2202,-1397,-9468,-12119,229,443,-165,1,0,33,22,0,0,53298,1
2,31094,30716,31896,50014,30168,-4758,4303,-4699,-1063,-4735,-8401,230,438,-174,1,0,33,22,40,0,53298,1
2,31104,30718,31875,50015,30172,-4737,-2706,974,-2917,-69,1127,229,451,-169,1,0,33,22,80,0,53298,1
2,31306,30722,31895,50016,30176,-4195,-724,-623,371,-1669,-467,238,448,-172,1,0,33,22,120,0,53298,1
2,31308,30720,31886,50017,30179,-4322,-684,-1004,809,-725,-618,230,430,-164,1,0,33,22,160,0,53298,1
2,31303,30719,31885,50018,30182,-4567,-1606,-101,-1265,415,298,234,438,-170,1,0,33,22,200,0,53298,1
2,31334,30720,31891,50019,30186,-4571,-557,-821,-263,268,-40,235,433,-167,1,0,33,22,240,0,53298,1
2,31336,30720,31884,50020,30189,-4423,-959,-599,353,492,1108,230,434,-172,1,0,33,22,280,0,53298,1
2,31317,30719,31882,50021,30192,-4431,-1129,-417,58,216,1026,226,444,-172,1,0,33,22,320,0,53298,1
2,31315,30718,31879,50022,30195,-4425,-876,-683,-531,-296,243,235,441,-163,1,0,33,22,360,0,53298,1
2,31305,30718,31883,50023,30198,-4621,-879,-593,3,-274,477,229,437,-173,1,0,33,22,400,0,53298,1
2,31318,30711,31871,50024,30202,-4474,-577,-803,263,170,1413,222,438,-170,1,0,33,22,440,0,53298,1
2,31298,30711,31856,50025,30207,-4227,566,-2067,433,1512,2809,221,449,-175,1,0,33,22,480,0,53298,1
2,31217,30711,31823,50026,30210,-3689,3295,-4192,842,5740,7109,212,448,-176,1,0,33,22,520,0,53298,1
2,31211,30618,31789,50027,30214,-3704,6104,-5988,2384,14382,14965,184,458,-212,1,0,33,22,560,0,53298,1
2,31111,30678,31787,50028,30216,-6004,8051,-8267,1896,25945,26920,142,452,-252,1,0,33,22,600,0,53298,1
2,31149,30640,31791,50029,30219,-10056,9052,-8027,499,32767,32767,80,430,-310,1,0,33,22,640,0,53298,1
2,30966,30691,31747,50030,30223,-19091,2510,-4982,-8893,32767,32767,23,371,-349,1,0,33,22,680,0,53298,1
2,30998,30705,31742,50031,30228,-11636,-4702,-2754,-18920,32767,32767,-22,308,-354,1,0,33,22,720,0,53298,1
2,30933,30680,31743,50032,30231,-4041,-1266,-1031,-4299,23469,26672,-36,270,-360,1,0,33,22,760,0,53298,1
2,29823,30668,31685,50033,30234,-3173,-1076,-179,-2599,16945,16187,-40,244,-358,1,0,33,22,800,0,53298,1
2,29974,30664,31666,50034,30237,-2087,-1767,870,-1881,13774,14227,-46,230,-364,1,0,33,22,840,0,53298,1
2,29648,30668,31653,50035,30240,-437,-2096,2080,548,8947,9312,-37,209,-369,1,0,33,22,880,0,53298,1
2,29041,30675,31664,50036,30242,835,-1862,1672,-926,2134,3246,-43,197,-369,1,0,33,22,920,0,53298,1
2,28853,30675,31664,50037,30245,1155,-364,79,31,-4050,-2274,-46,208,-368,1,0,33,22,960,0,53298,1
1,28570,30675,31674,50038,0,1241,1203,-1530,67,-7018,-5630,-43,217,-359,1,0,33,23,0,1,53298,1
2,28768,30675,31674,50039,29652,830,1940,-2324,-670,-7034,-6498,-44,244,-364,1,0,33,23,40,1,53298,1
2,28910,30677,31676,50040,29653,28,1987,-2908,-332,-6799,-7124,-38,248,-358,1,0,33,23,80,1,53298,1
2,28464,30677,31681,50041,29655,-539,2514,-3287,524,-7391,-8543,-36,256,-368,1,0,33,23,120,1,53298,1
2,28621,30676,31680,50042,29656,-841,2735,-3357,62,-7480,-9572,-35,275,-347,1,0,33,23,160,1,53298,1
2,28776,30676,31692,50043,29657,-1423,2035,-2877,-538,-7119,-9700,-27,295,-351,1,0,33,23,200,1,53298,1
2,29007,30678,31688,50044,29658,-1957,1747,-2440,477,-8631,-11717,-30,308,-348,1,0,33,23,240,1,53298,1
2,29052,30678,31691,50045,29660,-2156,1830,-2605,1252,-10399,-14121,-15,327,-341,1,0,33,23,280,1,53298,1
2,29544,30678,31692,50046,29661,-2271,2031,-2833,2605,-10772,-15084,-1,343,-343,1,0,33,23,320,1,53298,1
2,29405,30678,31701,50047,29662,-2935,1661,-2460,5605,-10483,-14797,16,356,-340,1,0,33,23,360,1,53298,1
2,29821,30678,31706,50048,29663,-3078,2009,-2955,7008,-11278,-15051,29,387,-335,1,0,33,23,400,1,53298,1
2,29225,30682,31718,50049,29665,-4558,847,-1908,8011,-11666,-15025,44,400,-324,1,0,33,23,440,1,53298,1
2,28921,30679,31727,50050,29666,-4727,1254,-2679,4996,-14747,-17006,68,414,-308,1,0,33,23,480,1,53298,1
2,28251,30669,31737,50051,29668,-5195,135,-1643,3191,-15843,-18154,94,438,-290,1,0,33,23,520,1,53298,1
2,28239,30661,31744,50052,29670,-5596,580,-2232,1608,-17639,-19413,130,446,-264,1,0,33,23,560,1,53298,1
2,28169,30661,31748,50053,29672,-5061,1142,-2527,1671,-16734,-19744,159,449,-249,1,0,33,23,600,1,53298,1
2,28324,30655,31764,50054,29673,-4881,652,-1830,1389,-14662,-18149,186,444,-224,1,0,33,23,640,1,53298,1
2,28409,30591,31781,50055,29676,-4609,372,-1325,2329,-14001,-17131,199,451,-203,1,0,33,23,680,1,53298,1
2,28243,30609,31821,50056,29679,-4392,1453,-1791,1955,-13837,-16939,223,445,-189,1,0,33,23,720,1,53298,1
2,30229,30701,31835,50057,29683,-4842,12900,-12546,8633,-8192,-17114,229,437,-173,1,0,33,23,760,1,53298,1
2,30158,30712,31843,50058,29687,-6076,-3339,1618,-5567,2285,3730,240,446,-176,1,0,33,23,800,1,53298,1
2,30162,30709,31858,50059,29691,-4506,-625,-132,721,-186,-1093,235,439,-175,1,0,33,23,840,1,53298,1
2,30342,30707,31853,50060,29693,-4482,-713,-2042,916,-174,-494,228,442,-182,1,0,33,23,880,1,53298,1
2,30278,30712,31856,50061,29695,-4435,-1866,-108,-219,851,511,231,441,-173,1,0,33,23,920,1,53298,1
2,29985,30712,31845,50062,29698,-4427,-747,-954,-36,379,789,228,442,-178,1,0,33,23,960,1,53298,1
1,29895,30711,31841,50063,0,-4580,-1327,-1052,-951,-7,1860,231,447,-187,1,0,33,24,0,0,53298,1
2,29676,30706,31829,50064,29138,-4363,-120,-1787,83,137,2493,221,445,-187,1,0,33,24,40,0,53298,1
2,29855,30706,31795,50065,29140,-3777,1640,-2460,325,2546,5033,224,442,-188,1,0,33,24,80,0,53298,1
2,29639,30696,31763,50066,29143,-4402,3689,-3977,-655,6504,9983,201,443,-207,1,0,33,24,120,0,53298,1
2,29340,30692,31720,50067,29146,-3868,6334,-6068,-3360,14958,18008,175,455,-225,1,0,33,24,160,0,53298,1
2,29625,30677,31704,50068,29149,-6584,6653,-7327,-2676,26335,30748,131,457,-267,1,0,33,24,200,0,53298,1
2,29375,30689,31702,50069,29152,-11430,4846,-5852,-3306,32767,32767,66,418,-308,1,0,33,24,240,0,53298,1
2,29185,30585,31688,50070,29155,-14550,2709,-4719,-13051,32767,32767,12,362,-346,1,0,33,24,280,0,53298,1
2,29119,30535,31683,50071,29158,-9599,-2809,-4196,-22983,31746,32767,-30,314,-330,1,0,33,24,320,0,53298,1
2,29544,30541,31681,50072,29160,-4444,-1729,-1677,-4847,24327,30285,-34,278,-346,1,0,33,24,360,0,53298,1
2,29479,30527,31653,50073,29163,-2974,-796,259,5677,17666,19271,-40,240,-356,1,0,33,24,400,0,53298,1
2,28905,30583,31642,50074,29165,-1683,-1969,414,3195,12725,13955,-36,220,-360,1,0,33,24,440,0,53298,1
2,29144,30666,31644,50075,29168,-358,-1058,1604,2067,8605,8305,-37,199,-365,1,0,33,24,480,0,53298,1
2,29234,30672,31639,50076,29170,850,-1349,886,-3296,2434,3188,-42,198,-364,1,0,33,24,520,0,53298,1
2,28321,30671,31641,50077,29172,1223,-32,-120,-2574,-2380,-1456,-49,205,-361,1,0,33,24,560,0,53298,1
2,27529,30673,31650,50078,29174,1645,1343,-1530,-1677,-4985,-3946,-46,210,-364,1,0,33,24,600,0,53298,1
2,28228,30673,31648,50079,29177,1247,2096,-2099,-432,-4376,-4030,-46,222,-362,1,0,33,24,640,0,53298,1
2,28420,30671,31650,50080,29180,510,2028,-2565,-91,-4269,-4201,-43,237,-369,1,0,33,24,680,0,53298,1
2,28866,30674,31657,50081,29182,270,2774,-3047,1076,-4878,-5143,-36,230,-360,1,0,33,24,720,0,53298,1
2,28502,30673,31660,50082,29184,-232,3010,-3177,-389,-4527,-5173,-36,246,-358,1,0,33,24,760,0,53298,1
2,28485,30673,31651,50083,29187,-230,2949,-3417,-1936,-4102,-4899,-41,249,-349,1,0,33,24,800,0,53298,1
2,28812,30673,31654,50084,29189,-535,1853,-2686,-982,-3499,-4586,-38,250,-354,1,0,33,24,840,0,53298,1
2,28687,30673,31658,50085,29191,-723,1527,-2115,1928,-5275,-6695,-30,272,-348,1,0,33,24,880,0,53298,1
2,28758,30676,31659,50086,29193,-937,1396,-1802,2058,-7605,-9478,-36,288,-354,1,0,33,24,920,0,53298,1
2,28799,30677,31663,50087,29194,-2136,424,-1450,1565,-10146,-12746,-32,298,-344,1,0,33,24,960,0,53298,1
1,28640,30679,31672,50088,0,-2624,1367,-2352,2924,-13869,-17415,-10,330,-346,1,0,33,25,0,1,53298,1
2,28577,30680,31674,50089,28622,-2899,900,-2542,4565,-14240,-18705,8,352,-342,1,0,33,25,40,1,53298,1
2,28584,30677,31682,50090,28624,-3393,1741,-2739,8041,-14235,-19043,26,378,-320,1,0,33,25,80,1,53298,1
2,28526,30678,31697,50091,28625,-4345,1258,-2039,7820,-14428,-18510,49,397,-323,1,0,33,25,120,1,53298,1
2,28238,30682,31704,50092,28627,-5657,1103,-2472,3736,-17029,-19495,79,417,-297,1,0,33,25,160,1,53298,1
2,28357,30680,31712,50093,28630,-5708,1091,-2721,2765,-18184,-21026,104,432,-280,1,0,33,25,200,1,53298,1
2,28448,30680,31730,50094,28632,-6211,611,-1974,2856,-18320,-21221,138,444,-260,1,0,33,25,240,1,53298,1
2,28263,30675,31738,50095,28635,-5303,1533,-2957,2819,-18011,-21005,174,454,-238,1,0,33,25,280,1,53298,1
2,28307,30673,31757,50096,28638,-4723,1788,-2954,2593,-14287,-18570,186,444,-216,1,0,33,25,320,1,53298,1
2,28571,30677,31776,50097,28642,-3930,1440,-1985,2869,-11202,-15336,209,443,-195,1,0,33,25,360,1,53298,1
2,29826,30678,31825,50098,28645,-3853,2505,-3010,3534,-10249,-12999,214,440,-180,1,0,33,25,400,1,53298,1
2,30203,30533,31821,50099,28649,-3192,2078,-3847,7362,-8129,-10342,231,445,-161,1,0,33,25,440,1,53298,1
2,30263,30680,31821,50100,28653,-5397,-4917,-730,-10495,-1093,1260,223,441,-177,1,0,33,25,480,1,53298,1
2,30342,30470,31836,50101,28656,-5336,-21,-17,-384,-950,-1892,228,438,-170,1,0,33,25,520,1,53298,1
2,30522,30621,31836,50102,28659,-4461,-704,-857,298,-1337,514,229,437,-167,1,0,33,25,560,1,53298,1
2,30785,30625,31837,50103,28663,-4299,-1516,-422,220,-204,477,232,432,-170,1,0,33,25,600,1,53298,1
2,30875,30668,31841,50104,28667,-4497,-892,-754,-162,442,-339,225,437,-161,1,0,33,25,640,1,53298,1
2,30763,30669,31835,50105,28671,-4538,-1180,-574,65,773,393,226,456,-168,1,0,33,25,680,1,53298,1
2,30909,30673,31831,50106,28674,-4547,-1000,-624,685,710,666,221,435,-175,1,0,33,25,720,1,53298,1
2,30860,30674,31832,50107,28677,-4427,-1182,-675,94,235,1110,219,443,-165,1,0,33,25,760,1,53298,1
2,30889,30674,31829,50108,28680,-4567,-953,-712,-771,-187,1038,234,440,-178,1,0,33,25,800,1,53298,1
2,31056,30677,31836,50109,28684,-4472,-770,-1045,-1223,-217,1491,220,438,-164,1,0,33,25,840,1,53298,1
2,31081,30668,31816,50110,28687,-4049,430,-1964,-355,1246,2857,228,442,-176,1,0,33,25,880,1,53298,1
2,30962,30654,31782,50111,28691,-3944,1426,-2672,493,4533,6325,222,444,-186,1,0,33,25,920,1,53298,1
2,30787,30606,31763,50112,28694,-4165,1989,-3874,-1181,9509,9894,201,447,-199,1,0,33,25,960,1,53298,1
1,30690,30608,31752,50113,0,-3244,5213,-6026,324,17871,15643,177,461,-231,1,0,33,26,0,1,53298,1
2,30729,30665,31758,50114,28108,-6752,5145,-6011,2499,28033,25526,137,451,-271,1,0,33,26,40,1,53298,1
2,30635,30627,31744,50115,28111,-8542,6456,-6941,-2484,32767,32767,92,428,-316,1,0,33,26,80,1,53298,1
2,30679,30149,31717,50116,28115,-13773,4361,-5739,-12233,32767,32767,24,368,-354,1,0,33,26,120,1,53298,1
2,30622,30250,31712,50117,28119,-10553,-3909,-4017,-22273,32767,32767,-19,315,-349,1,0,33,26,160,1,53298,1
2,30728,30291,31699,50118,28123,-3959,-481,-1339,-4651,23715,26596,-33,279,-371,1,0,33,26,200,1,53298,1
2,30489,30314,31680,50119,28127,-2813,-678,-679,-2170,17102,17415,-31,247,-371,1,0,33,26,240,1,53298,1
2,30884,30358,31674,50120,28130,-2186,-1858,422,-1308,14158,14367,-33,223,-375,1,0,33,26,280,1,53298,1
2,30477,30380,31656,50121,28132,-854,-1388,1833,1619,9695,9424,-37,213,-381,1,0,33,26,320,1,53298,1
2,30667,30443,31663,50122,28134,460,-1464,1025,-2456,2877,3917,-36,200,-368,1,0,33,26,360,1,53298,1
2,29993,30412,31652,50123,28137,1049,12,-113,-3109,-2718,-1115,-42,210,-368,1,0,33,26,400,1,53298,1
2,30028,30397,31664,50124,28140,1401,996,-1762,-3310,-5603,-3795,-39,225,-357,1,0,33,26,440,1,53298,1
2,29324,30426,31665,50125,28144,1284,1619,-2398,-850,-5338,-4597,-49,231,-357,1,0,33,26,480,1,53298,1
2,29148,30448,31677,50126,28146,543,2071,-2697,1689,-4863,-4841,-38,242,-354,1,0,33,26,520,1,53298,1
2,28598,30450,31679,50127,28148,98,2504,-2888,2463,-5246,-5957,-37,245,-365,1,0,33,26,560,1,53298,1
2,28527,30427,31679,50128,28152,-529,2387,-2887,1425,-5824,-6938,-41,255,-363,1,0,33,26,600,1,53298,1
2,28512,30424,31680,50129,28155,-980,2134,-2959,376,-6655,-7921,-39,273,-363,1,0,33,26,640,1,53298,1
2,28369,30426,31685,50130,28158,-1793,1077,-2159,1077,-7677,-9383,-28,294,-362,1,0,33,26,680,1,53298,1
2,28323,30415,31690,50131,28162,-2529,1220,-2114,3536,-11216,-13367,-19,315,-363,1,0,33,26,720,1,53298,1
2,28381,30432,31688,50132,28164,-2102,2080,-3124,2654,-13552,-16276,-5,337,-353,1,0,33,26,760,1,53298,1
2,28330,30414,31689,50133,28165,-2195,2321,-3165,3760,-12133,-15539,10,362,-354,1,0,33,26,800,1,53298,1
2,28311,30416,31697,50134,28167,-2760,1774,-2794,5984,-11338,-14019,26,372,-350,1,0,33,26,840,1,53298,1
2,28240,30482,31704,50135,28169,-3469,1909,-2500,6973,-12511,-13971,37,385,-325,1,0,33,26,880,1,53298,1
2,28344,30473,31709,50136,28171,-4466,1052,-2331,3851,-14896,-14627,64,412,-314,1,0,33,26,920,1,53298,1
2,28309,30503,31716,50137,28174,-4642,996,-2938,1174,-16484,-16280,86,428,-302,1,0,33,26,960,1,53298,1
1,28416,30521,31717,50138,0,-4575,994,-2511,2268,-16112,-16672,102,432,-288,1,0,33,27,0,0,53298,1
2,28575,30554,31724,50139,27593,-4714,1259,-2689,1993,-15292,-15992,128,448,-266,1,0,33,27,40,0,53298,1
2,28415,30552,31729,50140,27596,-4566,1065,-2220,1434,-13537,-14858,143,449,-237,1,0,33,27,80,0,53298,1
2,28823,30558,31742,50141,27598,-4761,798,-1895,1007,-12696,-13645,167,447,-223,1,0,33,27,120,0,53298,1
2,28984,30560,31746,50142,27600,-4510,1057,-2157,1425,-11748,-12550,176,452,-210,1,0,33,27,160,0,53298,1
2,29026,30572,31756,50143,27603,-4364,584,-1847,910,-9676,-11096,197,437,-195,1,0,33,27,200,0,53298,1
2,29249,30557,31771,50144,27605,-3686,198,-1642,1175,-7920,-9845,195,445,-177,1,0,33,27,240,0,53298,1
2,28825,30554,31808,50145,27607,-3888,712,-1658,3951,-6962,-8459,217,435,-175,1,0,33,27,280,0,53298,1
2,29528,30569,31822,50146,27610,-5179,1115,-4931,-3249,-3072,-4988,223,443,-173,1,0,33,27,320,0,53298,1
2,30729,30539,31842,50147,27613,-5740,-2142,1290,1710,617,-339,215,443,-181,1,0,33,27,360,0,53298,1
2,30825,30539,31834,50148,27616,-4184,-312,-387,-439,-397,-150,221,441,-181,1,0,33,27,400,0,53298,1
2,30818,30557,31834,50149,27618,-4189,-1333,-1228,-480,-28,418,220,438,-176,1,0,33,27,440,0,53298,1
2,30792,30563,31838,50150,27621,-4632,-942,-385,568,553,203,216,444,-178,1,0,33,27,480,0,53298,1
2,30805,30557,31836,50151,27624,-4519,-913,-784,217,399,313,220,446,-178,1,0,33,27,520,0,53298,1
2,30833,30579,31833,50152,27626,-4447,-948,-787,215,227,244,220,432,-180,1,0,33,27,560,0,53298,1
2,30892,30579,31834,50153,27628,-4656,-631,-970,329,264,358,225,439,-179,1,0,33,27,600,0,53298,1
2,30874,30600,31819,50154,27630,-3833,1532,-3670,-670,1314,2044,220,448,-174,1,0,33,27,640,0,53298,1
2,30634,30618,31779,50155,27633,-1561,7655,-8197,903,11124,10267,195,447,-197,1,0,33,27,680,0,53298,1
2,30574,30612,31743,50156,27635,-4805,8480,-8639,3023,27440,25509,141,459,-255,1,0,33,27,720,0,53298,1
2,30280,30643,31719,50157,27637,-11347,3470,-7265,-9060,32767,32767,101,433,-313,1,0,33,27,760,0,53298,1
2,30388,30095,31717,50158,27641,-15793,1487,-4267,-7651,32767,32767,44,388,-352,1,0,33,27,800,0,53298,1
2,30483,30245,31718,50159,27645,-9869,-1609,-2684,-13446,32690,32767,6,342,-356,1,0,33,27,840,0,53298,1
2,30651,30499,31724,50160,27648,-4239,-619,-2857,-9819,21348,24607,-19,317,-365,1,0,33,27,880,0,53298,1
2,30315,30602,31685,50161,27650,-3843,623,-1366,-6637,18025,17462,-20,278,-364,1,0,33,27,920,0,53298,1
2,30433,30667,31659,50162,27654,-2996,-1907,-620,-7376,16223,17807,-38,258,-366,1,0,33,27,960,0,53298,1
1,29996,30664,31655,50163,0,-1422,-1668,635,6174,13860,14830,-24,230,-378,1,0,33,28,0,0,53298,1
2,29216,30654,31661,50164,27079,10,-719,1603,7206,9132,9108,-32,210,-384,1,0,33,28,40,0,53298,1
2,29644,30648,31663,50165,27082,897,220,-39,-1256,1351,2295,-32,210,-392,1,0,33,28,80,0,53298,1
2,28850,30647,31671,50166,27086,1334,1086,-1320,-5034,-2665,-1392,-40,220,-382,1,0,33,28,120,0,53298,1
2,29034,30638,31675,50167,27090,1377,1278,-2235,-2666,-3263,-2035,-29,215,-375,1,0,33,28,160,0,53298,1
2,29563,30637,31682,50168,27094,718,2114,-2036,1319,-2769,-2286,-46,226,-374,1,0,33,28,200,0,53298,1
2,29397,30637,31683,50169,27097,370,2050,-2834,-1450,-3871,-3334,-36,236,-380,1,0,33,28,240,0,53298,1
2,29208,30636,31680,50170,27101,80,2020,-2859,-2224,-4037,-4074,-38,234,-376,1,0,33,28,280,0,53298,1
2,29063,30639,31678,50171,27105,-223,2019,-2709,-839,-4355,-4573,-33,253,-371,1,0,33,28,320,0,53298,1
2,29076,30632,31678,50172,27109,-708,1047,-2187,-223,-5341,-5664,-31,265,-365,1,0,33,28,360,0,53298,1
2,29185,30633,31683,50173,27113,-1449,1008,-1687,1260,-8641,-9475,-27,291,-357,1,0,33,28,400,0,53298,1
2,29213,30640,31682,50174,27116,-1448,1253,-2223,448,-12208,-13518,-17,301,-357,1,0,33,28,440,0,53298,1
2,29297,30640,31689,50175,27118,-2503,1636,-2649,310,-13754,-15836,-16,322,-352,1,0,33,28,480,0,53298,1
2,29258,30640,31688,50176,27120,-1882,2544,-3541,1636,-13595,-16764,2,342,-334,1,0,33,28,520,0,53298,1
2,29412,30642,31693,50177,27122,-3023,1494,-2553,5170,-11549,-14796,16,364,-336,1,0,33,28,560,0,53298,1
2,29400,30664,31705,50178,27125,-3771,1609,-2518,6646,-12866,-15119,44,380,-328,1,0,33,28,600,0,53298,1
2,28506,30653,31713,50179,27128,-4789,1092,-1714,4568,-15118,-16332,56,408,-324,1,0,33,28,640,0,53298,1
2,28463,30645,31721,50180,27130,-5034,1103,-2669,449,-18105,-18331,76,426,-298,1,0,33,28,680,0,53298,1
2,28555,30640,31718,50181,27133,-4647,1198,-2626,1705,-17172,-19111,92,436,-274,1,0,33,28,720,0,53298,1
2,28280,30632,31725,50182,27136,-4859,1285,-2211,3412,-16098,-18342,136,450,-246,1,0,33,28,760,0,53298,1
2,28181,30633,31723,50183,27138,-4309,1623,-2615,2547,-14735,-17282,149,457,-233,1,0,33,28,800,0,53298,1
2,28277,30635,31736,50184,27141,-4562,1326,-2243,2020,-12465,-15210,173,451,-213,1,0,33,28,840,0,53298,1
2,28161,30630,31748,50185,27143,-4647,1342,-2373,672,-10398,-12630,184,446,-210,1,0,33,28,880,0,53298,1
2,28251,30626,31765,50186,27146,-4903,673,-2026,122,-8126,-9808,199,443,-197,1,0,33,28,920,0,53298,1
2,28740,30610,31779,50187,27148,-4305,153,-1684,1634,-6692,-7613,202,438,-186,1,0,33,28,960,0,53298,1
1,29260,30603,31804,50188,0,-4309,819,-2215,2540,-5547,-5772,211,437,-173,1,0,33,29,0,0,53298,1
2,29319,30557,31806,50189,26565,-4347,555,-2114,-1067,-2086,-2220,212,440,-166,1,0,33,29,40,0,53298,1
2,30080,30615,31804,50190,26567,-4519,-1424,-23,46,-430,-366,220,440,-170,1,0,33,29,80,0,53298,1
2,30419,30664,31823,50191,26571,-4523,-729,-506,-455,-420,-488,215,431,-165,1,0,33,29,120,0,53298,1
2,30531,30618,31825,50192,26574,-4573,-594,-787,-40,117,225,210,444,-168,1,0,33,29,160,0,53298,1
2,30587,30568,31819,50193,26576,-4562,-1051,-440,911,460,570,208,446,-172,1,0,33,29,200,0,53298,1
2,30457,30570,31814,50194,26579,-4468,-778,-664,262,492,169,209,445,-177,1,0,33,29,240,0,53298,1
2,30438,30598,31817,50195,26581,-4471,-807,-777,304,449,24,204,436,-174,1,0,33,29,280,0,53298,1
2,30492,30705,31813,50196,26584,-4516,-876,-669,563,309,36,216,436,-184,1,0,33,29,320,0,53298,1
2,30456,30696,31821,50197,26586,-4466,-840,-673,205,99,120,217,445,-177,1,0,33,29,360,0,53298,1
2,30503,30699,31820,50198,26587,-4467,-837,-740,104,16,143,207,449,-187,1,0,33,29,400,0,53298,1
2,30463,30695,31813,50199,26589,-4479,-447,-1045,-13,471,204,212,442,-176,1,0,33,29,440,0,53298,1
2,30373,30693,31806,50200,26591,-4515,-872,-737,166,1144,378,214,438,-188,1,0,33,29,480,0,53298,1
2,30383,30688,31782,50201,26592,-3823,1236,-2834,802,2311,2117,199,445,-185,1,0,33,29,520,0,53298,1
2,30683,30694,31765,50202,26594,-3079,4119,-4479,4077,8154,8262,188,454,-194,1,0,33,29,560,0,53298,1
2,30950,30688,31753,50203,26596,-3994,5820,-6709,319,16615,16661,164,458,-218,1,0,33,29,600,0,53298,1
2,30999,30680,31737,50204,26599,-6554,5548,-8431,-8721,28015,27569,126,452,-264,1,0,33,29,640,0,53298,1
2,30863,30682,31735,50205,26602,-10702,6433,-6706,-3133,32767,32767,72,432,-316,1,0,33,29,680,0,53298,1
2,30229,30692,31732,50206,26605,-14674,2962,-5101,-11902,32767,32767,13,371,-347,1,0,33,29,720,0,53298,1
2,30373,30665,31724,50207,26609,-8684,-2392,-5632,-19662,32539,32767,-14,320,-346,1,0,33,29,760,0,53298,1
2,30787,30688,31720,50208,26612,-5358,306,-1214,-2296,28435,28455,-33,263,-363,1,0,33,29,800,0,53298,1
2,30930,30684,31684,50209,26616,-3905,-2057,-340,422,22255,21286,-38,220,-376,1,0,33,29,840,0,53298,1
2,30649,30678,31684,50210,26619,-2403,-1712,2049,8538,18052,16051,-36,204,-382,1,0,33,29,880,0,53298,1
2,30355,30681,31672,50211,26623,-585,-1732,2987,4229,10032,9016,-29,193,-391,1,0,33,29,920,0,53298,1
2,29904,30678,31665,50212,26628,684,-1193,1898,-4537,1135,1740,-34,190,-372,1,0,33,29,960,0,53298,1
1,29598,30674,31661,50213,0,1431,-276,-178,-7128,-4473,-2500,-42,194,-376,1,0,33,30,0,0,53298,1
2,29664,30667,31668,50214,26052,1494,787,-1262,-1262,-5526,-3369,-30,200,-372,1,0,33,30,40,0,53298,1
2,29135,30670,31675,50215,26055,1085,1644,-1735,1538,-5536,-3729,-39,211,-377,1,0,33,30,80,0,53298,1
2,28767,30658,31680,50216,26058,616,1930,-2562,-635,-6825,-5535,-44,218,-366,1,0,33,30,120,0,53298,1
2,29398,30673,31689,50217,26061,85,2383,-3354,-272,-7741,-6823,-41,237,-369,1,0,33,30,160,0,53298,1
2,29495,30654,31685,50218,26064,-247,2676,-3702,514,-7491,-7229,-32,256,-366,1,0,33,30,200,0,53298,1
2,29713,30663,31687,50219,26067,-646,1903,-3024,-264,-6935,-7580,-30,258,-374,1,0,33,30,240,0,53298,1
2,29796,30665,31682,50220,26069,-1055,1453,-2729,850,-8224,-9149,-26,276,-358,1,0,33,30,280,0,53298,1
2,29746,30676,31687,50221,26071,-1771,681,-2112,2351,-10174,-11902,-27,297,-373,1,0,33,30,320,0,53298,1
2,29698,30687,31691,50222,26073,-2757,1221,-2003,3338,-13572,-16008,-9,329,-353,1,0,33,30,360,0,53298,1
2,29725,30690,31691,50223,26076,-2821,1307,-2791,1398,-15969,-18661,12,348,-364,1,0,33,30,400,0,53298,1
2,29801,30692,31695,50224,26079,-3209,1577,-3071,3604,-15559,-18960,25,377,-343,1,0,33,30,440,0,53298,1
2,29687,30687,31705,50225,26082,-4108,1486,-2368,7432,-15304,-18354,47,405,-337,1,0,33,30,480,0,53298,1
2,29512,30688,31712,50226,26085,-4963,1587,-2636,5657,-17251,-18424,62,416,-306,1,0,33,30,520,0,53298,1
2,29040,30663,31717,50227,26088,-5397,1180,-2676,2723,-18331,-18773,83,427,-283,1,0,33,30,560,0,53298,1
2,28651,30666,31720,50228,26091,-5641,1283,-2611,2063,-18613,-18954,122,446,-268,1,0,33,30,600,0,53298,1
2,28664,30672,31725,50229,26094,-4927,1625,-2994,1444,-17276,-18126,143,451,-243,1,0,33,30,640,0,53298,1
2,28555,30675,31736,50230,26097,-4873,1201,-2223,1053,-14308,-16146,163,447,-223,1,0,33,30,680,0,53298,1
2,28597,30675,31744,50231,26101,-4604,1269,-2486,302,-12248,-14116,181,449,-203,1,0,33,30,720,0,53298,1
2,28694,30683,31758,50232,26105,-4222,1321,-2198,50,-9519,-11571,192,450,-194,1,0,33,30,760,0,53298,1
2,27758,30679,31775,50233,26109,-3699,832,-2029,112,-7849,-8721,219,445,-187,1,0,33,30,800,0,53298,1
2,27565,30679,31810,50234,26112,-4105,1650,-2779,1117,-6007,-6014,215,439,-179,1,0,33,30,840,0,53298,1
2,29231,30673,31795,50235,26115,-5181,-1311,-1247,-2845,-1317,-1770,217,445,-183,1,0,33,30,880,0,53298,1
2,29150,30670,31807,50236,26118,-4784,-1452,442,593,-734,-1369,222,444,-182,1,0,33,30,920,0,53298,1
2,29050,30678,31811,50237,26122,-4359,-414,-806,-926,-800,-635,222,440,-176,1,0,33,30,960,0,53298,1
1,29153,30672,31810,50238,0,-4472,-1111,-639,187,47,-93,226,444,-168,1,0,33,31,0,0,53298,1
2,29329,30673,31807,50239,25538,-4441,-903,-630,313,573,115,225,439,-171,1,0,33,31,40,0,53298,1
2,29290,30669,31815,50240,25542,-4632,-909,-663,272,630,266,226,440,-182,1,0,33,31,80,0,53298,1
2,29302,30668,31806,50241,25545,-4410,-868,-711,372,421,205,226,442,-180,1,0,33,31,120,0,53298,1
2,29332,30668,31805,50242,25549,-4350,-787,-806,915,328,172,217,441,-177,1,0,33,31,160,0,53298,1
2,29450,30668,31797,50243,25554,-4631,-977,-555,1433,305,303,217,441,-177,1,0,33,31,200,0,53298,1
2,29721,30665,31802,50244,25557,-4602,-707,-858,329,53,547,216,436,-170,1,0,33,31,240,0,53298,1
2,30836,30680,31797,50245,25560,-4266,110,-1991,-423,707,1789,209,441,-171,1,0,33,31,280,0,53298,1
2,30686,30691,31772,50246,25564,-2883,3837,-5016,1630,5423,6175,201,449,-185,1,0,33,31,320,0,53298,1
2,29964,30685,31743,50247,25567,-3626,6614,-6869,2551,15734,15173,174,454,-226,1,0,33,31,360,0,53298,1
2,30121,30643,31725,50248,25571,-5896,8388,-9589,-5852,28971,27950,129,447,-267,1,0,33,31,400,0,53298,1
2,29864,30705,31716,50249,25576,-11953,8098,-8292,-5164,32767,32767,64,418,-322,1,0,33,31,440,0,53298,1
2,30780,30706,31732,50250,25582,-19495,1084,-5044,-13992,32767,32767,-3,357,-353,1,0,33,31,480,0,53298,1
2,30474,30663,31712,50251,25588,-8120,-2887,-4322,-15493,32767,32767,-16,302,-354,1,0,33,31,520,0,53298,1
2,30224,30665,31701,50252,25592,-4767,1189,-1142,930,26975,25749,-28,258,-366,1,0,33,31,560,0,53298,1
2,30188,30679,31660,50253,25596,-4345,-2317,-717,-4825,21789,20653,-35,219,-369,1,0,33,31,600,0,53298,1
2,30163,30682,31650,50254,25601,-2502,-2449,2295,3261,17555,15584,-35,201,-379,1,0,33,31,640,0,53298,1
2,30550,30684,31659,50255,25606,-441,-2630,2977,3049,9580,8780,-32,188,-372,1,0,33,31,680,0,53298,1
2,30515,30683,31660,50256,25610,879,-1051,1961,-1794,1023,1137,-33,183,-371,1,0,33,31,720,0,53298,1
2,30476,30683,31656,50257,25615,1629,581,-196,-7662,-4437,-3446,-37,191,-365,1,0,33,31,760,0,53298,1
2,30469,30684,31660,50258,25620,1899,862,-1324,-7873,-5194,-4378,-47,191,-353,1,0,33,31,800,0,53298,1
2,30017,30683,31659,50259,25624,1322,1294,-1801,-1746,-5112,-4337,-46,204,-360,1,0,33,31,840,0,53298,1
2,30131,30682,31663,50260,25628,835,2818,-2391,2058,-5838,-5237,-42,216,-358,1,0,33,31,880,0,53298,1
2,30366,30685,31670,50261,25633,259,2752,-3113,84,-5926,-5831,-46,222,-356,1,0,33,31,920,0,53298,1
2,30152,30682,31668,50262,25636,64,2603,-3116,-182,-5328,-6237,-36,230,-358,1,0,33,31,960,0,53298,1
1,29611,30680,31661,50263,0,-332,2531,-3015,1362,-5085,-6002,-38,252,-358,1,0,33,32,0,1,53298,1
2,29255,30680,31665,50264,25025,-703,2211,-2347,2470,-5395,-6533,-42,264,-366,1,0,33,32,40,1,53298,1
2,29618,30680,31669,50265,25030,-929,1980,-2041,1205,-7566,-8361,-32,278,-360,1,0,33,32,80,1,53298,1
2,29795,30681,31670,50266,25034,-1269,1283,-1994,-1536,-9801,-10894,-28,294,-350,1,0,33,32,120,1,53298,1
2,29578,30681,31666,50267,25037,-1927,1131,-2025,-204,-12000,-13796,-18,314,-346,1,0,33,32,160,1,53298,1
2,29436,30680,31664,50268,25040,-2166,1607,-2596,3185,-13333,-16256,-2,338,-340,1,0,33,32,200,1,53298,1
2,29491,30682,31675,50269,25043,-2965,1789,-2658,7676,-13477,-16808,3,365,-345,1,0,33,32,240,1,53298,1
2,29522,30681,31686,50270,25047,-3314,2041,-2749,8308,-14106,-16627,29,375,-339,1,0,33,32,280,1,53298,1
2,28715,30677,31699,50271,25051,-4245,1510,-2462,6713,-14665,-16223,41,399,-329,1,0,33,32,320,1,53298,1
2,28446,30678,31703,50272,25056,-4510,1601,-3130,3657,-15756,-16632,71,417,-299,1,0,33,32,360,1,53298,1
2,28034,30686,31710,50273,25059,-5002,992,-2392,3301,-15198,-16623,87,435,-275,1,0,33,32,400,1,53298,1
2,28013,30687,31720,50274,25063,-5392,906,-2482,3128,-16107,-16936,119,435,-259,1,0,33,32,440,1,53298,1
2,28079,30688,31726,50275,25068,-4939,1154,-2836,3006,-15687,-17123,141,447,-245,1,0,33,32,480,1,53298,1
2,28186,30689,31737,50276,25071,-4920,1003,-2468,1933,-13606,-16017,154,452,-220,1,0,33,32,520,1,53298,1
2,28248,30689,31741,50277,25075,-4574,1141,-2598,771,-11901,-14455,181,455,-207,1,0,33,32,560,1,53298,1
2,28219,30689,31747,50278,25078,-4216,948,-2202,-120,-9196,-12485,196,446,-198,1,0,33,32,600,1,53298,1
2,28192,30689,31755,50279,25082,-3764,686,-1499,316,-7286,-10442,207,445,-189,1,0,33,32,640,1,53298,1
2,28443,30691,31786,50280,25086,-3848,857,-1392,1005,-6615,-7892,217,445,-185,1,0,33,32,680,1,53298,1
2,28927,30695,31792,50281,25089,-5890,907,-4311,-4016,-2812,-2899,224,436,-176,1,0,33,32,720,1,53298,1
2,29348,30693,31785,50282,25093,-4987,-2047,507,2545,207,-164,215,441,-183,1,0,33,32,760,1,53298,1
2,29779,30693,31786,50283,25096,-4168,-661,-92,531,-478,-42,217,445,-185,1,0,33,32,800,1,53298,1
2,29869,30694,31784,50284,25099,-4474,-613,-1236,-938,-277,278,221,441,-179,1,0,33,32,840,1,53298,1
2,29793,30694,31785,50285,25103,-4439,-1206,-618,-136,463,125,214,444,-174,1,0,33,32,880,1,53298,1
2,29743,30692,31783,50286,25107,-4535,-624,-679,971,680,214,210,446,-176,1,0,33,32,920,1,53298,1
2,29724,30693,31781,50287,25111,-4479,-963,-736,564,520,184,222,440,-180,1,0,33,32,960,1,53298,1
1,29737,30692,31779,50288,0,-4440,-875,-777,552,246,72,216,446,-188,1,0,33,33,0,1,53298,1
2,29711,30693,31785,50289,24511,-4518,-861,-721,529,30,92,212,436,-182,1,0,33,33,40,1,53298,1
2,29782,30692,31781,50290,24513,-4562,-822,-946,-54,-111,495,215,443,-173,1,0,33,33,80,1,53298,1
2,29798,30691,31770,50291,24516,-4418,54,-1783,-267,494,1384,207,449,-181,1,0,33,33,120,1,53298,1
2,29727,30688,31758,50292,24519,-3767,3168,-4892,891,4241,4537,202,452,-196,1,0,33,33,160,1,53298,1
2,30033,30689,31730,50293,24522,-2939,8315,-8157,1147,14581,13957,178,442,-228,1,0,33,33,200,1,53298,1
2,30370,30693,31712,50294,24525,-7461,7700,-9096,-3829,29589,29226,132,444,-264,1,0,33,33,240,1,53298,1
2,29643,30693,31687,50295,24530,-12031,5145,-6867,-6504,32767,32767,73,407,-321,1,0,33,33,280,1,53298,1
2,29521,30693,31693,50296,24535,-15843,741,-4122,-11740,32767,32767,9,375,-345,1,0,33,33,320,1,53298,1
2,29773,30689,31692,50297,24540,-8695,-2691,-2713,-15826,32767,32767,-16,312,-352,1,0,33,33,360,1,53298,1
2,30109,30686,31691,50298,24544,-4206,-1273,-1201,-2254,24427,26305,-25,269,-385,1,0,33,33,400,1,53298,1
2,30468,30686,31675,50299,24548,-3189,-729,-247,611,18579,17378,-29,243,-375,1,0,33,33,440,1,53298,1
2,30471,30684,31658,50300,24552,-2093,-1942,454,167,14889,14219,-31,211,-383,1,0,33,33,480,1,53298,1
2,30250,30681,31655,50301,24556,-361,-1141,1808,3918,10364,9260,-30,198,-382,1,0,33,33,520,1,53298,1
2,30112,30680,31652,50302,24559,761,-904,1025,-1407,3484,3634,-35,193,-393,1,0,33,33,560,1,53298,1
2,29987,30680,31655,50303,24564,1181,70,-363,-4974,-2251,-1367,-32,202,-382,1,0,33,33,600,1,53298,1
2,30012,30680,31652,50304,24568,1770,1446,-1776,-4529,-5220,-4434,-29,209,-377,1,0,33,33,640,1,53298,1
2,29748,30680,31656,50305,24572,1270,2208,-2357,-3356,-4393,-4262,-39,215,-369,1,0,33,33,680,1,53298,1
2,30500,30683,31666,50306,24576,707,2188,-2760,-3371,-3741,-4051,-43,219,-363,1,0,33,33,720,1,53298,1
2,30636,30687,31675,50307,24580,462,2736,-3081,-1195,-3612,-4163,-37,233,-361,1,0,33,33,760,1,53298,1
2,30243,30682,31668,50308,24583,102,2684,-2831,401,-2786,-3440,-43,237,-363,1,0,33,33,800,1,53298,1
2,30158,30682,31670,50309,24587,-133,2303,-2523,596,-2923,-3415,-51,243,-361,1,0,33,33,840,1,53298,1
2,30184,30681,31669,50310,24591,-291,1883,-2313,-647,-4069,-4486,-43,259,-361,1,0,33,33,880,1,53298,1
2,29844,30680,31666,50311,24595,-591,1166,-1696,-1117,-5746,-6330,-40,260,-354,1,0,33,33,920,1,53298,1
2,29796,30680,31665,50312,24598,-1144,1059,-1508,177,-9195,-10242,-30,280,-348,1,0,33,33,960,1,53298,1
1,29785,30680,31668,50313,0,-1499,1700,-2127,165,-12211,-13942,-26,310,-328,1,0,33,34,0,1,53298,1
2,29638,30680,31674,50314,23997,-1986,1268,-2261,321,-12827,-15413,-15,331,-335,1,0,33,34,40,1,53298,1
2,29574,30680,31678,50315,24000,-2688,1495,-2335,4248,-13196,-16636,0,358,-330,1,0,33,34,80,1,53298,1
2,29523,30685,31687,50316,24003,-3357,1075,-2134,6781,-14028,-17511,26,372,-332,1,0,33,34,120,1,53298,1
2,29345,30682,31695,50317,24006,-4559,1532,-2406,6841,-15827,-18986,40,392,-320,1,0,33,34,160,1,53298,1
2,29130,30682,31695,50318,24009,-4965,1763,-3009,4473,-17205,-20135,75,411,-299,1,0,33,34,200,1,53298,1
2,28908,30684,31705,50319,24012,-5683,1445,-2708,3511,-17128,-20010,95,429,-283,1,0,33,34,240,1,53298,1
2,28470,30685,31713,50320,24015,-5594,1680,-2880,4077,-16922,-19730,118,446,-264,1,0,33,34,280,1,53298,1
2,28197,30685,31722,50321,24018,-5564,1311,-2193,4709,-15833,-18477,146,450,-246,1,0,33,34,320,1,53298,1
2,28008,30686,31732,50322,24021,-5203,1365,-2311,3691,-15125,-16821,171,451,-219,1,0,33,34,360,1,53298,1
2,27747,30689,31749,50323,24024,-4493,1025,-2012,2889,-13327,-14552,185,451,-201,1,0,33,34,400,1,53298,1
2,27840,30695,31769,50324,24027,-3835,691,-1612,2341,-11574,-12188,202,450,-180,1,0,33,34,440,1,53298,1
2,27860,30690,31805,50325,24030,-3023,1012,-2097,3812,-10182,-10853,212,442,-170,1,0,33,34,480,1,53298,1
2,31255,30712,31861,50326,24034,-4162,6867,-8061,5579,-6570,-9395,217,443,-165,1,0,33,34,520,1,53298,1
2,31060,30698,31856,50327,24038,-6169,-2920,1511,-2199,1870,1290,213,443,-165,1,0,33,34,560,1,53298,1
2,31010,30701,31847,50328,24042,-4239,-178,297,1117,-398,-459,230,436,-170,1,0,33,34,600,1,53298,1
2,31087,30695,31842,50329,24046,-4112,-986,-1428,-932,-1109,132,216,440,-168,1,0,33,34,640,1,53298,1
2,31071,30695,31849,50330,24049,-4544,-1201,-377,-592,93,-201,212,440,-160,1,0,33,34,680,1,53298,1
2,31046,30694,31844,50331,24052,-4651,-781,-428,-34,263,101,221,437,-173,1,0,33,34,720,1,53298,1
2,31057,30695,31843,50332,24055,-4465,-995,-699,173,390,628,202,444,-162,1,0,33,34,760,1,53298,1
2,30998,30693,31838,50333,24059,-4745,-670,-681,917,606,1207,210,436,-164,1,0,33,34,800,1,53298,1
2,31036,30690,31827,50334,24063,-4174,-268,-1331,-537,855,2116,217,449,-169,1,0,33,34,840,1,53298,1
2,31059,30687,31807,50335,24066,-4208,863,-2081,-1244,2380,3789,205,441,-177,1,0,33,34,880,1,53298,1
2,30778,30689,31766,50336,24069,-4199,1624,-3281,-4206,5397,6711,189,453,-191,1,0,33,34,920,1,53298,1
2,30496,30683,31742,50337,24072,-3426,5004,-6773,-5315,12640,11667,184,444,-202,1,0,33,34,960,1,53298,1
1,30555,30683,31735,50338,0,-4413,9239,-9342,216,26060,23027,141,455,-239,1,0,33,35,0,1,53298,1
2,30579,30696,31715,50339,23486,-10467,9303,-8306,-704,32767,32767,63,419,-319,1,0,33,35,40,1,53298,1
2,29780,30700,31702,50340,23491,-19999,637,-4304,-12246,32767,32767,3,355,-353,1,0,33,35,80,1,53298,1
2,29435,30689,31693,50341,23495,-10400,-4055,-2233,-16120,32767,32767,-9,307,-367,1,0,33,35,120,1,53298,1
2,29961,30691,31698,50342,23499,-3528,299,-1302,-1136,22144,23911,-22,268,-362,1,0,33,35,160,1,53298,1
2,30124,30689,31673,50343,23502,-3358,-367,-1532,-3915,17546,17401,-34,240,-376,1,0,33,35,200,1,53298,1
2,31032,30694,31681,50344,23506,-2716,-1634,393,-1473,16357,16240,-35,215,-369,1,0,33,35,240,1,53298,1
2,31049,30696,31688,50345,23511,-527,-1821,1787,3542,12012,11907,-34,194,-384,1,0,33,35,280,1,53298,1
2,30970,30695,31684,50346,23515,598,-1326,2003,448,4874,5636,-38,192,-378,1,0,33,35,320,1,53298,1
2,31052,30697,31689,50347,23520,1397,-168,205,-5056,-2796,-1071,-36,200,-362,1,0,33,35,360,1,53298,1
2,31042,30702,31693,50348,23524,1829,1069,-1171,-7521,-5363,-4078,-39,201,-363,1,0,33,35,400,1,53298,1
2,31010,30702,31690,50349,23528,1168,506,-1424,-4742,-4405,-3665,-50,216,-354,1,0,33,35,440,1,53298,1
2,31047,30700,31694,50350,23531,536,1048,-1601,989,-5067,-4684,-41,221,-365,1,0,33,35,480,1,53298,1
2,31021,30696,31701,50351,23534,-108,2144,-2431,1000,-6930,-6962,-41,237,-361,1,0,33,35,520,1,53298,1
2,30953,30695,31695,50352,23537,-463,1998,-3043,-1788,-7722,-8574,-41,259,-351,1,0,33,35,560,1,53298,1
2,31000,30696,31699,50353,23540,-1076,2442,-3188,-1143,-8336,-9966,-36,268,-338,1,0,33,35,600,1,53298,1
2,30830,30693,31689,50354,23544,-1572,1939,-3163,289,-9241,-11774,-37,285,-337,1,0,33,35,640,1,53298,1
2,30831,30691,31694,50355,23547,-1982,2217,-2949,3465,-10187,-14208,-20,314,-340,1,0,33,35,680,1,53298,1
2,30997,30695,31696,50356,23550,-2090,3167,-3151,3295,-10906,-15627,-7,327,-345,1,0,33,35,720,1,53298,1
2,30960,30694,31691,50357,23553,-2449,2665,-2967,822,-10481,-15102,-5,355,-341,1,0,33,35,760,1,53298,1
2,30935,30693,31688,50358,23556,-2779,2215,-3006,1859,-10248,-14606,16,368,-334,1,0,33,35,800,1,53298,1
2,30891,30693,31695,50359,23559,-4018,1471,-2289,6215,-10738,-14788,31,383,-311,1,0,33,35,840,1,53298,1
2,30933,30693,31702,50360,23561,-3897,1850,-2630,7486,-13063,-16073,44,406,-318,1,0,33,35,880,1,53298,1
2,30781,30692,31707,50361,23564,-4681,794,-1688,5301,-13800,-16196,68,430,-302,1,0,33,35,920,1,53298,1
2,29973,30686,31705,50362,23567,-4905,961,-1979,4150,-15849,-17354,89,431,-273,1,0,33,35,960,1,53298,1
1,28910,30686,31713,50363,0,-4658,768,-1762,3448,-16318,-17743,123,449,-261,1,0,33,36,0,1,53298,1
2,29050,30689,31722,50364,22972,-4873,1070,-1871,2771,-16610,-17295,137,449,-235,1,0,33,36,40,1,53298,1
2,28667,30690,31722,50365,22975,-4282,1122,-2353,739,-15545,-16529,172,444,-212,1,0,33,36,80,1,53298,1
2,28688,30690,31737,50366,22978,-4126,601,-1933,738,-13020,-14950,184,452,-196,1,0,33,36,120,1,53298,1
2,28996,30690,31757,50367,22982,-4306,1014,-2075,2862,-11347,-14303,204,438,-190,1,0,33,36,160,1,53298,1
2,29774,30691,31808,50368,22985,-4437,2294,-3653,5156,-9725,-13385,220,440,-168,1,0,33,36,200,1,53298,1
2,31204,30702,31822,50369,22988,-4209,3680,-5699,2559,-4491,-8704,221,441,-167,1,0,33,36,240,1,53298,1
2,30821,30699,31836,50370,22992,-6344,-2711,1475,-2053,1023,896,224,446,-162,1,0,33,36,280,1,53298,1
2,30966,30700,31831,50371,22995,-4597,-142,-484,589,-1169,-484,219,433,-161,1,0,33,36,320,1,53298,1
2,31085,30700,31828,50372,22999,-3978,-1510,-1052,-159,-778,71,223,445,-173,1,0,33,36,360,1,53298,1
2,31146,30702,31840,50373,23003,-4534,-942,-231,211,160,201,217,439,-165,1,0,33,36,400,1,53298,1
2,31076,30700,31831,50374,23007,-4649,-911,-678,463,340,631,219,441,-157,1,0,33,36,440,1,53298,1
2,31062,30699,31824,50375,23009,-4444,-1015,-559,-11,511,548,222,442,-170,1,0,33,36,480,1,53298,1
2,31039,30697,31825,50376,23013,-4495,-959,-605,605,419,201,223,439,-165,1,0,33,36,520,1,53298,1
2,31001,30698,31822,50377,23016,-4538,-882,-731,249,209,34,215,439,-171,1,0,33,36,560,1,53298,1
2,31029,30698,31810,50378,23019,-4747,-457,-1411,-533,266,798,225,439,-163,1,0,33,36,600,1,53298,1
2,31059,30700,31784,50379,23022,-3124,3210,-4746,-118,4756,5128,205,447,-181,1,0,33,36,640,1,53298,1
2,31060,30701,31771,50380,23026,-3986,5873,-6441,1190,14061,14702,173,455,-217,1,0,33,36,680,1,53298,1
2,31031,30706,31755,50381,23030,-5439,6170,-7986,-5526,26252,26172,136,446,-260,1,0,33,36,720,1,53298,1
2,30917,30704,31751,50382,23034,-9930,3441,-5508,-3957,32767,32767,87,427,-305,1,0,33,36,760,1,53298,1
2,31061,30705,31750,50383,23039,-12273,2848,-4596,-5339,32767,32767,36,388,-342,1,0,33,36,800,1,53298,1
2,30977,30701,31740,50384,23043,-10117,1468,-3882,-14804,32767,32767,4,340,-348,1,0,33,36,840,1,53298,1
2,30928,30697,31722,50385,23047,-6396,-882,-4450,-22016,27524,32767,-25,295,-347,1,0,33,36,880,1,53298,1
2,30900,30694,31695,50386,23050,-4769,-440,-1668,-8044,24426,27241,-37,249,-357,1,0,33,36,920,1,53298,1
2,30852,30690,31676,50387,23054,-3162,-2649,270,5461,20799,22658,-45,215,-371,1,0,33,36,960,1,53298,1
1,30920,30691,31689,50388,0,-1352,-1294,2302,13554,14373,13845,-34,198,-380,1,0,33,37,0,1,53298,1
2,30930,30688,31682,50389,22460,-27,-1225,1983,2572,5680,5429,-41,189,-381,1,0,33,37,40,1,53298,1
2,30878,30688,31672,50390,22463,1025,-670,908,-8720,-801,-1151,-43,195,-369,1,0,33,37,80,1,53298,1
2,30777,30686,31665,50391,22467,1459,-156,-281,-9722,-3969,-3861,-46,196,-356,1,0,33,37,120,1,53298,1
2,30864,30687,31677,50392,22470,1146,650,-803,-3936,-4923,-4835,-49,211,-361,1,0,33,37,160,1,53298,1
2,30908,30688,31686,50393,22473,649,2000,-1466,-1082,-6423,-6370,-49,229,-353,1,0,33,37,200,1,53298,1
2,30793,30688,31680,50394,22476,326,2884,-2725,-4026,-7583,-7985,-42,240,-338,1,0,33,37,240,1,53298,1
2,30761,30687,31680,50395,22479,-290,3386,-2980,-4544,-6983,-8205,-55,253,-343,1,0,33,37,280,1,53298,1
2,30779,30687,31685,50396,22481,-486,3397,-3463,-2316,-6506,-7809,-42,268,-338,1,0,33,37,320,1,53298,1
2,30855,30689,31689,50397,22484,-792,3150,-3039,1767,-5588,-6988,-44,270,-328,1,0,33,37,360,1,53298,1
2,30725,30685,31683,50398,22487,-1034,3481,-2823,2978,-6280,-7364,-45,291,-337,1,0,33,37,400,1,53298,1
2,30785,30685,31686,50399,22489,-870,2446,-2822,168,-6394,-7608,-35,295,-335,1,0,33,37,440,1,53298,1
2,30702,30686,31681,50400,22491,-1850,1106,-1535,1604,-6931,-8837,-26,316,-332,1,0,33,37,480,1,53298,1
2,30683,30685,31683,50401,22492,-2362,1047,-1755,5106,-10723,-13124,-15,331,-335,1,0,33,37,520,1,53298,1
2,30390,30684,31682,50402,22494,-2790,1161,-2324,7655,-12922,-16029,1,347,-321,1,0,33,37,560,1,53298,1
2,30326,30683,31688,50403,22495,-2956,1406,-2564,8589,-13355,-16731,21,377,-321,1,0,33,37,600,1,53298,1
2,29766,30683,31692,50404,22497,-4092,906,-2167,9372,-13605,-16889,38,396,-314,1,0,33,37,640,1,53298,1
2,28899,30683,31706,50405,22499,-4919,921,-2533,7567,-16167,-18511,64,418,-308,1,0,33,37,680,1,53298,1
2,28782,30683,31706,50406,22501,-5229,783,-2124,4330,-17966,-19688,90,440,-276,1,0,33,37,720,1,53298,1
2,28286,30684,31715,50407,22503,-5416,1241,-2355,1669,-19422,-20478,130,440,-252,1,0,33,37,760,1,53298,1
2,28170,30683,31715,50408,22505,-4830,1467,-2409,-24,-18558,-20036,147,445,-225,1,0,33,37,800,1,53298,1
2,28630,30684,31721,50409,22508,-4565,1540,-2046,1188,-16267,-18313,176,442,-212,1,0,33,37,840,1,53298,1
2,28635,30685,31745,50410,22512,-4326,1739,-2029,4046,-13829,-16045,188,452,-184,1,0,33,37,880,1,53298,1
2,28994,30687,31787,50411,22514,-3963,1821,-2333,3283,-11249,-13697,209,443,-177,1,0,33,37,920,1,53298,1
2,29749,30692,31832,50412,22517,-3613,2507,-5054,4928,-8542,-11386,215,441,-173,1,0,33,37,960,1,53298,1
1,31025,30702,31834,50413,0,-6281,-3201,-357,-2375,1339,-1747,217,445,-177,1,0,33,38,0,1,53298,1
2,31072,30697,31832,50414,21946,-4391,-1404,1255,1293,973,-1772,221,439,-179,1,0,33,38,40,1,53298,1
2,31106,30704,31830,50415,21949,-3849,-623,-1273,-1343,-544,-157,224,442,-172,1,0,33,38,80,1,53298,1
2,31114,30705,31836,50416,21952,-4491,-1305,-926,939,442,119,221,439,-171,1,0,33,38,120,1,53298,1
2,31059,30696,31835,50417,21955,-4829,-693,-348,1517,839,-13,214,444,-172,1,0,33,38,160,1,53298,1
2,31061,30695,31832,50418,21957,-4390,-1048,-756,255,754,229,215,447,-179,1,0,33,38,200,1,53298,1
2,31022,30694,31825,50419,21960,-4450,-912,-643,1042,661,147,221,441,-179,1,0,33,38,240,1,53298,1
2,30981,30693,31829,50420,21961,-4658,-852,-788,885,421,-87,212,444,-182,1,0,33,38,280,1,53298,1
2,30997,30692,31819,50421,21964,-4724,-767,-1185,-355,-34,928,210,444,-176,1,0,33,38,320,1,53298,1
2,31012,30693,31797,50422,21966,-4079,1209,-3417,-1312,1541,3581,199,445,-195,1,0,33,38,360,1,53298,1
2,30691,30690,31769,50423,21968,-3789,4371,-5507,-3020,8169,9625,180,448,-194,1,0,33,38,400,1,53298,1
2,30568,30696,31731,50424,21970,-3486,7147,-8446,-7606,19136,19271,150,448,-228,1,0,33,38,440,1,53298,1
2,30521,30697,31726,50425,21973,-8298,6073,-6978,-2914,32732,32767,109,445,-281,1,0,33,38,480,1,53298,1
2,30615,30699,31730,50426,21977,-11911,3281,-4383,-4062,32767,32767,44,404,-336,1,0,33,38,520,1,53298,1
2,30638,30695,31725,50427,21981,-12648,919,-2776,-9792,32767,32767,11,357,-357,1,0,33,38,560,1,53298,1
2,30611,30687,31713,50428,21984,-6712,-116,-2620,-17945,28411,32767,-20,312,-352,1,0,33,38,600,1,53298,1
2,30671,30688,31689,50429,21987,-4194,-528,-2906,-15651,21664,25993,-39,281,-347,1,0,33,38,640,1,53298,1
2,30913,30686,31685,50430,21991,-3552,-1563,-807,-1364,19235,22469,-41,235,-359,1,0,33,38,680,1,53298,1
2,30858,30685,31691,50431,21994,-1977,-1288,770,11801,15689,17391,-35,215,-375,1,0,33,38,720,1,53298,1
2,30764,30685,31691,50432,21999,-442,-724,1678,9491,9347,9952,-29,195,-383,1,0,33,38,760,1,53298,1
2,30783,30685,31687,50433,22002,717,-265,1035,-4401,1484,2406,-43,193,-371,1,0,33,38,800,1,53298,1
2,30755,30683,31675,50434,22006,1456,159,-746,-11667,-3700,-2349,-31,199,-351,1,0,33,38,840,1,53298,1
2,30816,30682,31671,50435,22010,1770,631,-1666,-6781,-4402,-3334,-44,214,-350,1,0,33,38,880,1,53298,1
2,30735,30682,31678,50436,22014,1151,1309,-1418,1173,-3884,-2956,-43,221,-367,1,0,33,38,920,1,53298,1
2,30649,30680,31680,50437,22018,704,1987,-2392,1890,-4930,-3894,-43,221,-359,1,0,33,38,960,1,53298,1
1,30720,30681,31689,50438,0,510,2670,-2643,151,-5074,-5002,-42,232,-360,1,0,33,39,0,1,53298,1
2,30713,30681,31681,50439,21434,49,2648,-3343,-2149,-5144,-5217,-41,239,-359,1,0,33,39,40,1,53298,1
2,30745,30681,31680,50440,21437,-88,3112,-3439,-775,-4382,-5228,-37,251,-359,1,0,33,39,80,1,53298,1
2,30593,30679,31677,50441,21440,-285,3028,-3372,253,-3522,-4730,-39,259,-353,1,0,33,39,120,1,53298,1
2,30653,30680,31668,50442,21441,-276,2718,-2866,1105,-3001,-4980,-38,260,-352,1,0,33,39,160,1,53298,1
2,30701,30680,31658,50443,21442,-390,2271,-2016,416,-3804,-5471,-39,275,-355,1,0,33,39,200,1,53298,1
2,30594,30681,31660,50444,21442,-540,1486,-2286,-3906,-4786,-5760,-39,281,-337,1,0,33,39,240,1,53298,1
2,30574,30683,31661,50445,21443,-930,1375,-1733,-272,-5998,-7992,-29,293,-341,1,0,33,39,280,1,53298,1
2,30558,30683,31665,50446,21443,-1280,1534,-1805,2525,-8150,-10196,-18,314,-342,1,0,33,39,320,1,53298,1
2,30587,30684,31671,50447,21443,-1859,1401,-2229,3140,-9089,-11927,-15,327,-337,1,0,33,39,360,1,53298,1
2,30475,30685,31677,50448,21443,-2638,998,-2021,6273,-9980,-13710,5,355,-341,1,0,33,39,400,1,53298,1
2,30499,30687,31701,50449,21444,-3625,725,-1854,6592,-12266,-16182,22,370,-326,1,0,33,39,440,1,53298,1
2,30441,30687,31698,50450,21445,-4069,1318,-2497,4076,-15080,-18749,42,406,-316,1,0,33,39,480,1,53298,1
2,30340,30688,31706,50451,21447,-5018,1418,-2478,4868,-16492,-20365,63,413,-307,1,0,33,39,520,1,53298,1
2,29907,30689,31710,50452,21448,-5639,1577,-2756,2411,-17440,-20638,95,425,-289,1,0,33,39,560,1,53298,1
2,29238,30687,31714,50453,21450,-5654,1526,-2329,3175,-17475,-20280,121,441,-261,1,0,33,39,600,1,53298,1
2,28885,30696,31726,50454,21453,-5920,1125,-1816,3465,-17695,-19860,144,440,-226,1,0,33,39,640,1,53298,1
2,28720,30699,31733,50455,21455,-5335,1320,-1961,3413,-17505,-19116,169,445,-207,1,0,33,39,680,1,53298,1
2,28770,30694,31760,50456,21459,-4392,1163,-2274,2886,-15149,-17494,180,444,-186,1,0,33,39,720,1,53298,1
2,28541,30695,31797,50457,21462,-3417,1569,-2243,4301,-11918,-15324,198,440,-176,1,0,33,39,760,1,53298,1
2,29922,30701,31849,50458,21466,-2621,3412,-5429,10500,-9712,-13981,214,440,-160,1,0,33,39,800,1,53298,1
2,29659,30705,31817,50459,21469,-6746,-5054,-461,-1815,2124,-894,222,446,-178,1,0,33,39,840,1,53298,1
2,29607,30703,31819,50460,21474,-4307,-754,1398,3201,1227,-1221,219,439,-179,1,0,33,39,880,1,53298,1
2,29689,30700,31813,50461,21478,-4210,-922,-1633,-405,-498,-609,219,435,-175,1,0,33,39,920,1,53298,1
2,29769,30700,31821,50462,21481,-4396,-1382,-408,270,398,-685,223,441,-173,1,0,33,39,960,1,53298,1
1,29812,30699,31825,50463,0,-4625,-881,-624,898,439,318,224,432,-172,1,0,33,40,0,1,53298,1
2,29684,30698,31826,50464,20923,-4437,-1067,-709,104,438,451,219,439,-171,1,0,33,40,40,1,53298,1
2,29610,30705,31821,50465,20926,-4494,-969,-658,371,367,275,214,434,-170,1,0,33,40,80,1,53298,1
2,29660,30696,31829,50466,20929,-4502,-975,-708,221,279,-74,216,440,-168,1,0,33,40,120,1,53298,1
2,29648,30691,31825,50467,20932,-4613,-879,-1009,-63,61,320,221,439,-173,1,0,33,40,160,1,53298,1
2,30126,30696,31805,50468,20936,-4501,1916,-4715,-69,1802,2077,207,449,-181,1,0,33,40,200,1,53298,1
2,30108,30695,31764,50469,20938,-3332,5575,-7386,2497,12952,10673,192,452,-196,1,0,33,40,240,1,53298,1
2,30691,30700,31745,50470,20940,-6020,7367,-7945,1531,26410,23595,151,461,-253,1,0,33,40,280,1,53298,1
2,30611,30693,31719,50471,20943,-10189,4516,-7699,-10465,32767,32767,102,434,-306,1,0,33,40,320,1,53298,1
2,30107,30695,31724,50472,20947,-12849,2633,-4989,-9280,32767,32767,49,399,-353,1,0,33,40,360,1,53298,1
2,30480,30692,31731,50473,20950,-12220,-643,-2693,-12519,32767,32767,1,331,-369,1,0,33,40,400,1,53298,1
2,30697,30689,31726,50474,20953,-5750,-2672,-2733,-14650,28219,32767,-20,284,-368,1,0,33,40,440,1,53298,1
2,30712,30686,31702,50475,20955,-3936,-760,-1300,-8063,22701,21451,-31,247,-371,1,0,33,40,480,1,53298,1
2,30730,30684,31676,50476,20957,-2955,-2095,-173,-4401,18423,18044,-31,221,-361,1,0,33,40,520,1,53298,1
2,30626,30680,31682,50477,20959,-1323,-1903,1077,8333,14179,13826,-36,192,-374,1,0,33,40,560,1,53298,1
2,30495,30679,31680,50478,20961,33,-120,2088,7400,7699,6311,-40,186,-378,1,0,33,40,600,1,53298,1
2,30622,30678,31660,50479,20964,1172,-171,564,-8896,-773,-690,-33,199,-373,1,0,33,40,640,1,53298,1
2,30574,30681,31651,50480,20965,1739,1557,-1217,-8664,-5812,-5177,-42,210,-366,1,0,33,40,680,1,53298,1
2,30488,30678,31656,50481,20966,1405,1990,-2210,-1756,-6659,-5054,-40,214,-364,1,0,33,40,720,1,53298,1
2,30296,30674,31656,50482,20967,1073,2301,-2699,-221,-4416,-3214,-46,222,-368,1,0,33,40,760,1,53298,1
2,30169,30678,31654,50483,20968,342,2405,-2474,1353,-3338,-2393,-41,219,-359,1,0,33,40,800,1,53298,1
2,30232,30675,31657,50484,20969,362,2493,-3196,378,-4137,-2945,-39,235,-363,1,0,33,40,840,1,53298,1
2,30118,30677,31656,50485,20970,168,2299,-2946,181,-3507,-2871,-40,242,-362,1,0,33,40,880,1,53298,1
2,30528,30686,31662,50486,20971,-308,1586,-2525,-257,-3670,-3606,-37,237,-367,1,0,33,40,920,1,53298,1
2,30713,30681,31659,50487,20972,-381,1426,-2144,348,-5311,-5548,-31,265,-359,1,0,33,40,960,1,53298,1
1,30634,30682,31662,50488,0,-1243,71,-1441,813,-7688,-8334,-28,268,-362,1,0,33,41,0,1,53298,1
2,30598,30682,31675,50489,20409,-2121,377,-1520,1609,-12274,-13899,-25,307,-351,1,0,33,41,40,1,53298,1
2,30497,30683,31675,50490,20411,-2622,1141,-2412,2221,-16365,-18749,-8,326,-352,1,0,33,41,80,1,53298,1
2,30513,30685,31684,50491,20413,-3437,266,-2457,2107,-17154,-20938,10,360,-348,1,0,33,41,120,1,53298,1
2,30575,30686,31682,50492,20416,-4160,978,-2541,6721,-17965,-23475,36,388,-336,1,0,33,41,160,1,53298,1
2,30310,30687,31691,50493,20418,-4631,1109,-1956,10143,-19160,-24014,77,417,-319,1,0,33,41,200,1,53298,1
2,29244,30688,31710,50494,20421,-6898,572,-2191,9057,-20866,-23845,96,434,-290,1,0,33,41,240,1,53298,1
2,29491,30691,31728,50495,20424,-6466,1340,-2722,9241,-22701,-23956,135,443,-273,1,0,33,41,280,1,53298,1
2,29675,30696,31751,50496,20427,-6574,1093,-2767,6736,-21920,-22704,156,460,-228,1,0,33,41,320,1,53298,1
2,30763,30707,31798,50497,20431,-5474,2978,-6416,4845,-19450,-20344,184,448,-216,1,0,33,41,360,1,53298,1
2,30557,30702,31805,50498,20436,-5014,5694,-6381,5653,-6105,-11158,197,447,-215,1,0,33,41,400,1,53298,1
2,30840,30697,31787,50499,20440,-3191,763,-1781,3894,-987,-3137,197,451,-219,1,0,33,41,440,1,53298,1
2,30883,30702,31771,50500,20444,-4376,-1242,384,-6945,-190,176,200,446,-198,1,0,33,41,480,1,53298,1
2,30879,30698,31752,50501,20447,-4117,-2722,6,-11850,-4764,-1878,211,449,-199,1,0,33,41,520,1,53298,1
2,30966,30698,31793,50502,20449,-3781,-2929,-258,-5945,-7784,-4915,216,434,-192,1,0,33,41,560,1,53298,1
2,31009,30703,31820,50503,20451,-5654,276,-4303,-5165,-4995,-3185,215,439,-183,1,0,33,41,600,1,53298,1
2,31085,30699,31814,50504,20452,-4920,629,-1128,517,-3098,185,218,442,-176,1,0,33,41,640,1,53298,1
2,31069,30699,31812,50505,20455,-4480,-2015,563,-2741,-2457,989,211,443,-179,1,0,33,41,680,1,53298,1
2,30834,30693,31806,50506,20457,-4617,-394,-534,1619,-1347,1374,222,442,-170,1,0,33,41,720,1,53298,1
2,30746,30695,31815,50507,20460,-4388,-1097,-589,-71,-2037,-1215,219,441,-171,1,0,33,41,760,1,53298,1
2,30720,30695,31816,50508,20462,-4108,-150,-1339,189,-1512,-1752,210,446,-156,1,0,33,41,800,1,53298,1
2,30684,30700,31799,50509,20464,-4311,-363,-803,3054,39,674,216,444,-172,1,0,33,41,840,1,53298,1
2,30669,30703,31795,50510,20467,-4796,-962,-220,2274,453,1497,211,437,-169,1,0,33,41,880,1,53298,1
2,30750,30702,31791,50511,20470,-4380,-430,-1133,-696,120,969,204,440,-174,1,0,33,41,920,1,53298,1
2,30829,30710,31788,50512,20474,-4490,-526,-754,-380,643,1783,205,447,-169,1,0,33,41,960,1,53298,1
1,30872,30714,31773,50513,0,-4440,107,-1392,-1875,1196,2252,205,445,-173,1,0,33,42,0,1,53298,1
2,30704,30660,31743,50514,19899,-4438,929,-2507,-2909,3549,3584,203,443,-185,1,0,33,42,40,1,53298,1
2,30469,30645,31710,50515,19902,-3239,3675,-4462,1639,9517,6894,185,453,-209,1,0,33,42,80,1,53298,1
2,30735,30070,31707,50516,19905,-3841,5021,-5197,6919,18248,15499,151,457,-231,1,0,33,42,120,1,53298,1
2,30710,30698,31715,50517,19908,-6111,5583,-5672,6678,27459,25087,112,440,-284,1,0,33,42,160,1,53298,1
2,30866,30688,31716,50518,19911,-7457,8740,-7512,-2242,32767,32767,66,404,-330,1,0,33,42,200,1,53298,1
2,30811,30696,31714,50519,19916,-15932,4389,-6659,-18206,32767,32767,-1,349,-327,1,0,33,42,240,1,53298,1
2,30687,30693,31677,50520,19921,-11439,-4713,-4950,-25964,32767,32767,-29,305,-337,1,0,33,42,280,1,53298,1
2,30762,30691,31696,50521,19924,-4099,-366,-2722,1528,25931,29337,-34,256,-364,1,0,33,42,320,1,53298,1
2,30829,30655,31689,50522,19926,-3159,-935,37,10454,20943,17149,-32,222,-376,1,0,33,42,360,1,53298,1
2,31005,30690,31677,50523,19928,-2416,-566,694,4827,15947,12267,-19,195,-379,1,0,33,42,400,1,53298,1
2,31021,30693,31661,50524,19929,-962,-1589,2083,-5799,11046,7971,-36,200,-366,1,0,33,42,440,1,53298,1
2,31022,30690,31659,50525,19929,546,-2450,1392,-9249,2986,1945,-31,193,-357,1,0,33,42,480,1,53298,1
2,31008,30666,31665,50526,19930,1205,-121,253,-2490,-3354,-2883,-50,192,-372,1,0,33,42,520,1,53298,1
2,31022,30649,31668,50527,19931,1821,846,-1124,101,-5372,-4324,-45,211,-359,1,0,33,42,560,1,53298,1
2,31030,30641,31671,50528,19932,1467,1684,-1241,736,-4149,-3909,-45,217,-359,1,0,33,42,600,1,53298,1
2,31035,30646,31672,50529,19933,779,2143,-1515,-832,-5273,-5054,-42,216,-356,1,0,33,42,640,1,53298,1
2,31033,30644,31675,50530,19935,282,1790,-2149,-2356,-6585,-6306,-44,244,-350,1,0,33,42,680,1,53298,1
2,31022,30649,31671,50531,19936,-749,1524,-2143,-1984,-7429,-7945,-45,249,-351,1,0,33,42,720,1,53298,1
2,31015,30658,31670,50532,19938,-1225,1592,-2401,-1693,-8999,-10377,-40,268,-340,1,0,33,42,760,1,53298,1
2,31029,30650,31674,50533,19938,-1990,1014,-2048,464,-10767,-12472,-37,295,-345,1,0,33,42,800,1,53298,1
2,31005,30662,31691,50534,19939,-3287,1045,-2599,993,-13039,-16163,-27,323,-339,1,0,33,42,840,1,53298,1
2,31010,30661,31686,50535,19940,-3418,2583,-3428,3697,-15597,-20226,-6,348,-332,1,0,33,42,880,1,53298,1
2,31013,30649,31690,50536,19941,-3970,1820,-3341,5022,-15730,-20926,12,366,-320,1,0,33,42,920,1,53298,1
2,31016,30661,31700,50537,19943,-4593,2096,-3687,8229,-15351,-20908,41,385,-317,1,0,33,42,960,1,53298,1
1,30965,30649,31722,50538,0,-5429,1262,-2162,11704,-15998,-20662,66,412,-308,1,0,33,43,0,1,53298,1
2,30531,30641,31720,50539,19387,-6043,1299,-2164,7538,-19148,-21124,96,432,-286,1,0,33,43,40,1,53298,1
2,30466,30642,31729,50540,19390,-5385,1156,-2221,3828,-20558,-21591,133,439,-247,1,0,33,43,80,1,53298,1
2,30703,30653,31747,50541,19393,-4988,916,-1910,1140,-19882,-20910,154,450,-214,1,0,33,43,120,1,53298,1
2,30689,30649,31752,50542,19396,-4377,1273,-2697,868,-17857,-19563,187,447,-199,1,0,33,43,160,1,53298,1
2,30827,30648,31783,50543,19399,-3622,1591,-2743,2704,-13150,-17323,203,449,-189,1,0,33,43,200,1,53298,1
2,29989,30576,31805,50544,19402,-3574,2979,-2982,5332,-9162,-15085,218,442,-174,1,0,33,43,240,1,53298,1
2,30191,30601,31838,50545,19406,-4334,7817,-6399,5306,-4467,-12991,226,436,-184,1,0,33,43,280,1,53298,1
2,30326,30531,31851,50546,19410,-7738,-3342,1395,-3213,1234,855,233,443,-167,1,0,33,43,320,1,53298,1
2,30081,30555,31841,50547,19414,-4250,-479,-465,178,-989,-1037,225,437,-177,1,0,33,43,360,1,53298,1
2,30141,30535,31838,50548,19417,-3983,-1401,-1200,152,-946,-585,229,443,-169,1,0,33,43,400,1,53298,1
2,30158,30546,31848,50549,19421,-4186,-1396,-606,-1006,77,-495,224,446,-164,1,0,33,43,440,1,53298,1
2,30140,30551,31849,50550,19425,-4778,-965,-555,524,387,286,229,443,-181,1,0,33,43,480,1,53298,1
2,30206,30556,31842,50551,19429,-4493,-1147,-639,13,432,897,214,440,-176,1,0,33,43,520,1,53298,1
2,30085,30566,31842,50552,19432,-4399,-1112,-676,711,551,792,222,442,-184,1,0,33,43,560,1,53298,1
2,30088,30599,31843,50553,19435,-4432,-1120,-678,348,392,92,227,441,-173,1,0,33,43,600,1,53298,1
2,29951,30617,31844,50554,19439,-4517,-1057,-734,58,108,-236,218,434,-178,1,0,33,43,640,1,53298,1
2,29945,30624,31838,50555,19442,-4666,-990,-1164,-226,-11,659,226,442,-174,1,0,33,43,680,1,53298,1
2,29969,30658,31806,50556,19445,-3790,1897,-3977,-193,2199,3083,212,448,-190,1,0,33,43,720,1,53298,1
2,29888,30686,31758,50557,19447,-3408,5680,-7138,219,10947,11541,182,448,-206,1,0,33,43,760,1,53298,1
2,30191,30680,31733,50558,19450,-4556,7732,-6099,7046,21904,25202,146,460,-250,1,0,33,43,800,1,53298,1
2,30198,30678,31706,50559,19452,-9440,3260,-7469,-12941,32430,32767,95,439,-281,1,0,33,43,840,1,53298,1
2,30066,30663,31717,50560,19456,-11889,2477,-5669,-10769,32767,32767,49,405,-329,1,0,33,43,880,1,53298,1
2,30129,30646,31738,50561,19461,-12485,834,-3322,-12357,32767,32767,5,355,-353,1,0,33,43,920,1,53298,1
2,30294,30678,31725,50562,19463,-6710,-674,-3313,-20853,28266,32488,-14,314,-346,1,0,33,43,960,1,53298,1
1,30679,30659,31714,50563,0,-4387,-1236,-3223,-10517,22649,25692,-44,264,-350,1,0,33,44,0,1,53298,1
2,30506,30623,31699,50564,18876,-3193,-521,-355,4551,21333,21137,-44,234,-356,1,0,33,44,40,1,53298,1
2,30680,30362,31688,50565,18879,-1689,-1586,301,8783,16816,16073,-27,217,-383,1,0,33,44,80,1,53298,1
2,30504,30569,31684,50566,18882,-365,-562,2028,8052,11481,8724,-41,193,-391,1,0,33,44,120,1,53298,1
2,30470,30613,31675,50567,18885,759,-1027,1233,-3161,3113,1583,-42,204,-388,1,0,33,44,160,1,53298,1
2,30522,30590,31673,50568,18887,1304,-794,476,-5997,-2086,-3073,-38,202,-382,1,0,33,44,200,1,53298,1
2,30565,30575,31680,50569,18890,1319,263,-554,-4488,-3938,-4485,-43,211,-359,1,0,33,44,240,1,53298,1
2,30792,30584,31694,50570,18892,658,1101,-648,-510,-4911,-5452,-40,240,-376,1,0,33,44,280,1,53298,1
2,30700,30599,31705,50571,18895,36,1712,-1574,-1364,-7571,-7330,-37,241,-367,1,0,33,44,320,1,53298,1
2,30694,30588,31702,50572,18898,-499,2477,-2698,-3020,-9045,-8782,-41,261,-363,1,0,33,44,360,1,53298,1
2,30633,30620,31699,50573,18900,-788,3354,-2936,-2427,-9491,-9632,-35,271,-349,1,0,33,44,400,1,53298,1
2,30756,30622,31704,50574,18902,-1166,2902,-3279,-3247,-9507,-9576,-32,286,-346,1,0,33,44,440,1,53298,1
2,30832,30614,31714,50575,18904,-1992,2333,-2506,-423,-9658,-10208,-32,304,-338,1,0,33,44,480,1,53298,1
2,30807,30616,31720,50576,18906,-2863,1510,-2551,1823,-12425,-13225,-18,318,-336,1,0,33,44,520,1,53298,1
2,30703,30629,31726,50577,18907,-3371,1442,-2983,5109,-14535,-16953,-1,353,-337,1,0,33,44,560,1,53298,1
2,30666,30614,31728,50578,18908,-3744,1831,-3081,10950,-14701,-18588,16,370,-328,1,0,33,44,600,1,53298,1
2,30635,30570,31743,50579,18910,-4102,1820,-2857,13192,-15161,-18399,46,398,-330,1,0,33,44,640,1,53298,1
2,30591,30571,31760,50580,18912,-4556,1333,-2490,10425,-16651,-18080,74,412,-316,1,0,33,44,680,1,53298,1
2,30444,30555,31769,50581,18915,-5257,505,-1785,5726,-18476,-18379,104,428,-284,1,0,33,44,720,1,53298,1
2,30288,30554,31768,50582,18918,-5362,615,-2477,2958,-20689,-19329,126,434,-270,1,0,33,44,760,1,53298,1
2,30162,30546,31784,50583,18921,-5080,560,-2097,2180,-20222,-19791,142,446,-222,1,0,33,44,800,1,53298,1
2,30217,30563,31787,50584,18925,-5057,926,-2548,1341,-19013,-19272,185,449,-207,1,0,33,44,840,1,53298,1
2,30222,30563,31814,50585,18927,-4084,1452,-2689,954,-15777,-18278,198,448,-184,1,0,33,44,880,1,53298,1
2,28763,30507,31825,50586,18930,-4267,3201,-3637,1599,-12436,-16674,211,437,-159,1,0,33,44,920,1,53298,1
2,29215,30514,31834,50587,18933,-2438,6853,-7487,5141,-6466,-14895,219,443,-167,1,0,33,44,960,1,53298,1
1,29334,30510,31844,50588,0,-7405,-4789,1820,-5885,388,3999,220,448,-172,1,0,33,45,0,0,53298,1
2,29528,30526,31846,50589,18366,-4594,-312,-911,-583,-1911,-1045,222,438,-168,1,0,33,45,40,0,53298,1
2,29528,30535,31836,50590,18369,-3896,-1049,-704,1502,-1312,-39,215,439,-165,1,0,33,45,80,0,53298,1
2,29446,30534,31844,50591,18373,-4261,-1460,-349,-465,-50,-290,234,438,-168,1,0,33,45,120,0,53298,1
2,29468,30533,31843,50592,18376,-4736,-794,-540,936,540,58,228,436,-162,1,0,33,45,160,0,53298,1
2,29436,30522,31834,50593,18379,-4438,-1117,-536,763,950,536,226,434,-160,1,0,33,45,200,0,53298,1
2,29415,30536,31836,50594,18383,-4492,-1045,-554,1382,1051,402,223,439,-171,1,0,33,45,240,0,53298,1
2,29423,30522,31835,50595,18385,-4495,-1096,-556,869,660,78,221,441,-173,1,0,33,45,280,0,53298,1
2,29394,30520,31837,50596,18388,-4438,-1051,-614,255,106,-79,224,436,-170,1,0,33,45,320,0,53298,1
2,29405,30537,31836,50597,18390,-4552,-999,-614,-220,-228,59,223,435,-171,1,0,33,45,360,0,53298,1
2,29546,30508,31826,50598,18394,-4678,-1101,-717,-597,-438,1274,220,440,-172,1,0,33,45,400,0,53298,1
2,29610,30530,31811,50599,18399,-4442,-106,-1816,-1155,-79,2694,216,442,-176,1,0,33,45,440,0,53298,1
2,29733,30570,31788,50600,18404,-4256,1683,-2763,-870,2959,5990,203,453,-177,1,0,33,45,480,0,53298,1
2,29837,30504,31760,50601,18407,-5338,2737,-3901,-4583,7174,10879,194,450,-194,1,0,33,45,520,0,53298,1
2,29748,30267,31747,50602,18411,-5771,3436,-5853,-6625,13611,16522,159,453,-211,1,0,33,45,560,0,53298,1
2,29730,30605,31740,50603,18415,-6119,6402,-7413,-510,24268,24358,130,454,-270,1,0,33,45,600,0,53298,1
2,29801,30695,31734,50604,18418,-8341,5618,-6033,-731,32767,32767,75,423,-317,1,0,33,45,640,0,53298,1
2,29767,30695,31726,50605,18422,-11509,3441,-4205,-6606,32767,32767,23,379,-343,1,0,33,45,680,0,53298,1
2,29725,30697,31721,50606,18425,-12085,1166,-3209,-15798,32767,32767,-12,318,-356,1,0,33,45,720,0,53298,1
2,30144,30691,31690,50607,18430,-7460,-4384,-3297,-19814,32721,32767,-41,241,-357,1,0,33,45,760,0,53298,1
2,30600,30684,31669,50608,18433,-3738,-1776,1063,1796,25935,25579,-32,210,-362,1,0,33,45,800,0,53298,1
2,30795,30685,31674,50609,18436,-1357,-2149,1656,4744,15118,14843,-42,200,-380,1,0,33,45,840,0,53298,1
2,30884,30689,31680,50610,18440,-304,-1100,1524,2498,6363,6476,-38,196,-364,1,0,33,45,880,0,53298,1
2,30960,30687,31683,50611,18443,435,-609,1469,-5507,-624,114,-42,196,-356,1,0,33,45,920,0,53298,1
2,30876,30685,31670,50612,18446,1356,-235,-12,-13054,-5940,-5067,-57,213,-345,1,0,33,45,960,0,53298,1
1,31010,30687,31675,50613,0,1163,566,-555,-10041,-7748,-7202,-52,214,-328,1,0,33,46,0,1,53298,1
2,30984,30687,31670,50614,17854,1071,1906,-1595,-4580,-8672,-8499,-59,223,-327,1,0,33,46,40,1,53298,1
2,31054,30690,31689,50615,17857,267,2255,-1950,-961,-7335,-7728,-48,240,-320,1,0,33,46,80,1,53298,1
2,31045,30690,31695,50616,17860,-416,2279,-2104,-279,-7174,-8076,-53,259,-311,1,0,33,46,120,1,53298,1
2,31032,30690,31689,50617,17862,-968,2026,-2177,194,-7936,-9640,-42,270,-320,1,0,33,46,160,1,53298,1
2,31022,30691,31698,50618,17864,-2222,797,-1732,2509,-9562,-12436,-33,297,-325,1,0,33,46,200,1,53298,1
2,31030,30691,31708,50619,17865,-3303,1782,-2477,6574,-13078,-17683,-22,318,-316,1,0,33,46,240,1,53298,1
2,31012,30691,31698,50620,17866,-2367,3354,-3884,7009,-13595,-19354,-5,343,-311,1,0,33,46,280,1,53298,1
2,31021,30690,31698,50621,17867,-3265,2261,-2893,9371,-10606,-16139,20,362,-324,1,0,33,46,320,1,53298,1
2,30981,30695,31706,50622,17868,-3540,2131,-2734,10410,-11648,-15753,33,387,-325,1,0,33,46,360,1,53298,1
2,31004,30694,31717,50623,17869,-4942,500,-1733,10146,-13712,-16462,50,410,-312,1,0,33,46,400,1,53298,1
2,30958,30699,31728,50624,17871,-5727,989,-2192,8921,-18414,-19112,81,425,-291,1,0,33,46,440,1,53298,1
2,30863,30698,31734,50625,17873,-5546,341,-2059,4466,-20591,-21375,99,431,-271,1,0,33,46,480,1,53298,1
2,30822,30698,31748,50626,17875,-5745,977,-2334,2683,-20700,-21663,135,445,-239,1,0,33,46,520,1,53298,1
2,30900,30704,31751,50627,17878,-5187,1463,-2852,165,-19210,-21108,164,446,-204,1,0,33,46,560,1,53298,1
2,30930,30705,31771,50628,17882,-4865,1057,-2418,27,-15558,-19142,194,448,-198,1,0,33,46,600,1,53298,1
2,30764,30703,31822,50629,17885,-4325,2284,-2285,1562,-13172,-17664,209,441,-181,1,0,33,46,640,1,53298,1
2,29728,30690,31817,50630,17889,-3891,7501,-8308,2251,-10665,-17149,224,450,-176,1,0,33,46,680,1,53298,1
2,30362,30690,31806,50631,17893,-5605,-3254,1519,-3341,725,2304,214,446,-168,1,0,33,46,720,1,53298,1
2,30772,30692,31826,50632,17897,-4357,-3266,816,-3273,-841,-866,218,444,-170,1,0,33,46,760,1,53298,1
2,30785,30695,31827,50633,17900,-4523,244,-1865,438,-1793,-1725,216,436,-152,1,0,33,46,800,1,53298,1
2,30834,30701,31833,50634,17902,-4325,-1420,-351,481,515,-324,224,444,-180,1,0,33,46,840,1,53298,1
2,30823,30694,31831,50635,17904,-4569,-1169,-210,1401,1085,285,213,437,-173,1,0,33,46,880,1,53298,1
2,30879,30692,31831,50636,17907,-4605,-790,-807,1073,1166,886,221,449,-175,1,0,33,46,920,1,53298,1
2,30829,30693,31827,50637,17909,-4468,-1122,-548,964,1160,654,212,432,-170,1,0,33,46,960,1,53298,1
1,30830,30692,31829,50638,0,-4481,-932,-585,1300,793,336,207,443,-175,1,0,33,47,0,1,53298,1
2,30846,30693,31828,50639,17343,-4529,-980,-707,580,249,-250,224,444,-178,1,0,33,47,40,1,53298,1
2,30816,30698,31815,50640,17346,-4641,-769,-962,350,72,5,222,448,-168,1,0,33,47,80,1,53298,1
2,30802,30698,31800,50641,17349,-3768,681,-2533,405,1223,1594,211,447,-175,1,0,33,47,120,1,53298,1
2,30391,30687,31768,50642,17352,-3814,2792,-4165,2043,6100,6719,191,445,-191,1,0,33,47,160,1,53298,1
2,30585,30690,31755,50643,17354,-4449,3845,-5711,-1145,13766,13921,177,455,-219,1,0,33,47,200,1,53298,1
2,30720,30694,31748,50644,17357,-5189,5153,-7303,-4541,23520,22673,133,451,-255,1,0,33,47,240,1,53298,1
2,30633,30695,31744,50645,17360,-7699,5210,-6457,-765,32767,31966,95,441,-309,1,0,33,47,280,1,53298,1
2,30534,30695,31739,50646,17363,-11439,5360,-6003,-5249,32767,32767,35,383,-353,1,0,33,47,320,1,53298,1
2,30622,30695,31727,50647,17367,-13320,524,-4383,-19655,32767,32767,-16,318,-344,1,0,33,47,360,1,53298,1
2,30640,30696,31698,50648,17370,-6478,-2768,-3558,-25941,29141,32767,-37,279,-337,1,0,33,47,400,1,53298,1
2,30574,30691,31680,50649,17373,-3706,42,-1612,-6162,21573,22144,-42,248,-354,1,0,33,47,440,1,53298,1
2,30820,30687,31682,50650,17375,-2748,-1457,-602,4416,18388,18862,-36,212,-378,1,0,33,47,480,1,53298,1
2,30871,30688,31683,50651,17377,-1831,-600,1843,9139,15443,13599,-37,195,-371,1,0,33,47,520,1,53298,1
2,30841,30690,31680,50652,17380,-36,-1595,1785,-1322,7894,7098,-36,194,-366,1,0,33,47,560,1,53298,1
2,30909,30690,31677,50653,17383,827,-851,1188,-7677,1207,724,-46,202,-352,1,0,33,47,600,1,53298,1
2,30986,30691,31684,50654,17384,1633,233,77,-8008,-3434,-3499,-49,201,-353,1,0,33,47,640,1,53298,1
2,30984,30690,31685,50655,17386,1676,696,-357,-6296,-4136,-4733,-39,211,-349,1,0,33,47,680,1,53298,1
2,31011,30689,31685,50656,17388,882,770,-290,-3385,-4636,-5325,-55,221,-327,1,0,33,47,720,1,53298,1
2,31035,30690,31695,50657,17389,-58,1184,-1090,-877,-6862,-7284,-47,231,-331,1,0,33,47,760,1,53298,1
2,31045,30690,31701,50658,17391,-787,2316,-1923,745,-8999,-9520,-44,248,-338,1,0,33,47,800,1,53298,1
2,31062,30691,31705,50659,17392,-1141,2811,-2633,-1324,-10189,-10943,-47,269,-327,1,0,33,47,840,1,53298,1
2,31055,30691,31701,50660,17395,-1995,2666,-2653,-1762,-11059,-12211,-38,296,-322,1,0,33,47,880,1,53298,1
2,31071,30695,31706,50661,17396,-2390,2488,-3313,-655,-12680,-14608,-21,309,-313,1,0,33,47,920,1,53298,1
2,31060,30690,31703,50662,17396,-3086,2442,-3038,3318,-13113,-16789,-15,343,-319,1,0,33,47,960,1,53298,1
1,31074,30692,31711,50663,0,-3654,2494,-3216,6841,-13530,-18608,4,358,-316,1,0,33,48,0,0,53298,1
2,31052,30698,31720,50664,16831,-4562,2107,-2924,9434,-13886,-19421,23,391,-307,1,0,33,48,40,0,53298,1
2,31060,30701,31736,50665,16831,-4485,2033,-3060,9397,-14594,-20432,41,411,-295,1,0,33,48,80,0,53298,1
2,31061,30701,31745,50666,16833,-5694,835,-1458,7962,-15371,-20871,80,422,-280,1,0,33,48,120,0,53298,1
2,31070,30702,31741,50667,16835,-5544,702,-2359,4356,-18136,-22646,107,449,-263,1,0,33,48,160,0,53298,1
2,31090,30704,31760,50668,16836,-5267,653,-1672,4704,-18195,-23510,141,443,-235,1,0,33,48,200,0,53298,1
2,31120,30703,31760,50669,16838,-4821,1385,-2456,2675,-18142,-22284,166,448,-204,1,0,33,48,240,0,53298,1
2,31185,30708,31775,50670,16839,-3957,1667,-2409,1619,-15545,-20585,192,452,-192,1,0,33,48,280,0,53298,1
2,31239,30709,31813,50671,16841,-3476,2090,-2517,-295,-11747,-17558,214,446,-172,1,0,33,48,320,0,53298,1
2,31147,30704,31835,50672,16842,-3609,3616,-3562,2930,-8708,-16545,232,438,-168,1,0,33,48,360,0,53298,1
2,30353,30706,31820,50673,16844,-7499,-2452,-1285,-2081,-534,-3090,221,439,-165,1,0,33,48,400,0,53298,1
2,30466,30705,31823,50674,16848,-4637,-495,648,1399,-620,-453,225,443,-171,1,0,33,48,440,0,53298,1
2,30571,30704,31820,50675,16850,-4320,-761,-816,1189,-1117,-446,231,439,-171,1,0,33,48,480,0,53298,1
2,30537,30705,31823,50676,16852,-4103,-1411,-667,380,-94,-887,228,442,-174,1,0,33,48,520,0,53298,1
2,30522,30705,31823,50677,16855,-4699,-840,-300,977,622,-515,221,441,-169,1,0,33,48,560,0,53298,1
2,30566,30706,31820,50678,16856,-4552,-997,-678,1479,926,284,224,440,-172,1,0,33,48,600,0,53298,1
2,30612,30705,31823,50679,16858,-4450,-1105,-544,757,1020,511,232,434,-168,1,0,33,48,640,0,53298,1
2,30633,30706,31821,50680,16861,-4416,-1020,-636,1145,804,169,235,435,-175,1,0,33,48,680,0,53298,1
2,30640,30706,31826,50681,16863,-4494,-1091,-605,550,447,-312,230,438,-168,1,0,33,48,720,0,53298,1
2,30595,30705,31825,50682,16865,-4486,-1084,-626,397,101,-351,221,443,-179,1,0,33,48,760,0,53298,1
2,30535,30703,31824,50683,16867,-4490,-1109,-583,192,-27,-192,224,438,-174,1,0,33,48,800,0,53298,1
2,30570,30705,31819,50684,16869,-4484,-1094,-630,2,-146,180,217,437,-169,1,0,33,48,840,0,53298,1
2,30585,30705,31818,50685,16870,-4528,-1043,-706,-747,-273,583,230,440,-172,1,0,33,48,880,0,53298,1
2,30649,30705,31812,50686,16872,-4364,-631,-1434,-1041,-69,1439,234,444,-164,1,0,33,48,920,0,53298,1
2,30634,30698,31791,50687,16873,-4343,647,-2238,-223,1815,3372,202,442,-178,1,0,33,48,960,0,53298,1
1,31013,30700,31773,50688,0,-3704,5173,-5805,2892,7559,10136,195,455,-203,1,0,33,49,0,0,53298,1
2,31049,30703,31758,50689,16321,-4458,6248,-6642,255,17737,20450,152,456,-234,1,0,33,49,40,0,53298,1
2,31032,30706,31742,50690,16324,-7773,3440,-5932,-5693,27839,30606,112,442,-266,1,0,33,49,80,0,53298,1
2,31009,30703,31735,50691,16326,-9217,4849,-6162,-5021,32767,32767,66,408,-314,1,0,33,49,120,0,53298,1
2,31004,30702,31730,50692,16328,-12354,4926,-5591,-11806,32767,32767,14,364,-328,1,0,33,49,160,0,53298,1
2,31038,30702,31723,50693,16330,-11413,-1036,-4229,-24655,32767,32767,-27,307,-323,1,0,33,49,200,0,53298,1
2,31053,30699,31714,50694,16333,-4934,-1169,-3735,-14308,26801,32767,-33,259,-339,1,0,33,49,240,0,53298,1
2,31070,30694,31691,50695,16335,-3812,-374,-355,4243,23824,24889,-40,226,-362,1,0,33,49,280,0,53298,1
2,31056,30693,31687,50696,16338,-2554,-2119,1202,8969,18007,18657,-41,197,-379,1,0,33,49,320,0,53298,1
2,31060,30693,31689,50697,16340,-911,-1100,2404,8130,11003,10331,-33,185,-373,1,0,33,49,360,0,53298,1
2,31060,30694,31686,50698,16342,361,-980,1865,-4380,2946,2945,-46,180,-360,1,0,33,49,400,0,53298,1
2,31076,30693,31676,50699,16344,1302,-261,466,-12764,-2433,-2585,-44,200,-348,1,0,33,49,440,0,53298,1
2,31076,30692,31662,50700,16347,1757,337,-389,-11384,-4642,-4183,-53,201,-327,1,0,33,49,480,0,53298,1
2,31070,30692,31668,50701,16348,1328,1092,-1215,-4241,-5035,-4390,-53,207,-329,1,0,33,49,520,0,53298,1
2,31083,30692,31677,50702,16349,1015,2360,-1865,2491,-5620,-5057,-47,219,-345,1,0,33,49,560,0,53298,1
2,31094,30692,31684,50703,16351,578,3016,-2565,4332,-5550,-4875,-37,225,-341,1,0,33,49,600,0,53298,1
2,31115,30693,31686,50704,16352,134,3077,-2814,3158,-5069,-4737,-49,229,-347,1,0,33,49,640,0,53298,1
2,31109,30692,31685,50705,16352,-31,2811,-2919,2278,-4697,-4698,-37,245,-357,1,0,33,49,680,0,53298,1
2,31101,30691,31685,50706,16353,-438,2191,-2600,3098,-4616,-4638,-46,244,-348,1,0,33,49,720,0,53298,1
2,31106,30693,31686,50707,16354,-798,1486,-2302,2768,-6141,-6416,-47,267,-351,1,0,33,49,760,0,53298,1
2,31098,30692,31688,50708,16356,-1193,770,-1859,2403,-9068,-10041,-40,276,-360,1,0,33,49,800,0,53298,1
2,31100,30693,31696,50709,16357,-1925,945,-1858,2735,-12391,-14395,-24,306,-344,1,0,33,49,840,0,53298,1
2,31099,30694,31698,50710,16358,-2416,1338,-2642,1783,-14914,-17820,-7,335,-345,1,0,33,49,880,0,53298,1
2,31097,30695,31703,50711,16359,-2577,1553,-3019,2869,-14756,-18753,2,352,-326,1,0,33,49,920,0,53298,1
2,31090,30696,31710,50712,16361,-3330,1398,-2802,7393,-13926,-18286,29,377,-333,1,0,33,49,960,0,53298,1
1,31100,30698,31724,50713,0,-4298,1350,-2530,10308,-14849,-18334,47,405,-315,1,0,33,50,0,0,53298,1
2,31095,30699,31739,50714,15811,-5403,1445,-2570,8413,-16773,-18575,76,422,-296,1,0,33,50,40,0,53298,1
2,31116,30700,31748,50715,15813,-5647,1262,-2547,5160,-18387,-18927,110,436,-278,1,0,33,50,80,0,53298,1
2,31110,30702,31758,50716,15815,-5658,1345,-2449,2549,-18573,-18993,129,445,-257,1,0,33,50,120,0,53298,1
2,31141,30702,31759,50717,15819,-5500,1440,-2430,1435,-17564,-18084,150,456,-228,1,0,33,50,160,0,53298,1
2,31176,30702,31765,50718,15821,-4940,1187,-2291,523,-15332,-16464,178,442,-220,1,0,33,50,200,0,53298,1
2,31232,30705,31786,50719,15825,-4624,986,-1762,2132,-13293,-14586,192,450,-198,1,0,33,50,240,0,53298,1
2,31292,30707,31823,50720,15828,-4356,1464,-2193,2151,-11728,-12613,203,437,-181,1,0,33,50,280,0,53298,1
2,31291,30709,31853,50721,15831,-3910,3302,-5885,1103,-8853,-9080,206,426,-178,1,0,33,50,320,0,53298,1
2,31265,30705,31831,50722,15834,-4169,-425,-1700,283,-242,-1508,220,440,-170,1,0,33,50,360,0,53298,1
2,31259,30712,31848,50723,15837,-4580,-2365,1110,115,1382,-1459,211,441,-173,1,0,33,50,400,0,53298,1
2,31255,30714,31847,50724,15839,-4600,-96,-544,2347,-77,-786,211,451,-165,1,0,33,50,440,0,53298,1
2,31258,30712,31842,50725,15842,-4655,-1174,-1171,-298,303,-71,213,433,-177,1,0,33,50,480,0,53298,1
2,31256,30714,31844,50726,15845,-4398,-1057,-404,1323,587,-46,213,441,-177,1,0,33,50,520,0,53298,1
2,31250,30713,31844,50727,15848,-4555,-771,-655,836,843,458,209,445,-177,1,0,33,50,560,0,53298,1
2,31248,30712,31842,50728,15849,-4500,-1017,-824,-145,564,96,217,443,-185,1,0,33,50,600,0,53298,1
2,31250,30705,31845,50729,15851,-4503,-838,-665,416,313,-174,214,438,-176,1,0,33,50,640,0,53298,1
2,31258,30716,31842,50730,15851,-4448,-954,-771,-54,30,-237,221,439,-183,1,0,33,50,680,0,53298,1
2,31261,30715,31844,50731,15852,-4557,-815,-925,-484,-306,216,212,438,-186,1,0,33,50,720,0,53298,1
2,31203,30711,31820,50732,15853,-4757,1271,-3273,-354,623,1947,216,444,-180,1,0,33,50,760,0,53298,1
2,31120,30710,31789,50733,15855,-2894,5293,-7265,-311,9484,9034,175,459,-215,1,0,33,50,800,0,53298,1
2,31083,30709,31765,50734,15856,-5552,8017,-9092,230,22970,22115,138,452,-254,1,0,33,50,840,0,53298,1
2,31075,30709,31754,50735,15858,-9960,5496,-8284,-6554,32767,32767,93,429,-299,1,0,33,50,880,0,53298,1
2,31079,30711,31764,50736,15861,-13364,2937,-5018,-6702,32767,32767,41,391,-347,1,0,33,50,920,0,53298,1
2,31060,30707,31760,50737,15863,-12726,649,-3030,-12139,32767,32767,4,326,-360,1,0,33,50,960,0,53298,1
1,31054,30703,31735,50738,0,-6764,-2236,-3007,-21053,31604,32767,-31,275,-353,1,0,33,51,0,0,53298,1
2,31048,30701,31718,50739,15300,-4389,-1588,-1750,-13120,25064,25201,-39,227,-349,1,0,33,51,40,0,53298,1
2,31030,30696,31707,50740,15302,-3203,-2767,325,1061,20896,21252,-38,200,-370,1,0,33,51,80,0,53298,1
2,31049,30700,31720,50741,15304,-1653,-1591,2069,14407,14642,14214,-23,181,-387,1,0,33,51,120,0,53298,1
2,31051,30699,31712,50742,15306,-19,-720,2282,3400,5634,5262,-34,180,-372,1,0,33,51,160,0,53298,1
2,31056,30702,31700,50743,15308,1032,-217,126,-14283,-3003,-2522,-51,191,-353,1,0,33,51,200,0,53298,1
2,31056,30696,31695,50744,15311,1996,910,-1192,-14385,-6347,-6030,-54,200,-338,1,0,33,51,240,0,53298,1
2,31045,30695,31694,50745,15313,2123,2027,-2124,-6263,-5162,-5109,-51,205,-341,1,0,33,51,280,0,53298,1
2,31049,30699,31698,50746,15315,1370,2323,-1836,-218,-2836,-3197,-52,220,-346,1,0,33,51,320,0,53298,1
2,31034,30694,31700,50747,15318,766,2710,-2053,1361,-2716,-3181,-43,223,-349,1,0,33,51,360,0,53298,1
2,31040,30694,31703,50748,15319,458,2815,-2440,290,-2868,-3428,-52,228,-334,1,0,33,51,400,0,53298,1
2,31041,30694,31704,50749,15321,90,2590,-2322,-918,-2650,-3398,-49,229,-333,1,0,33,51,440,0,53298,1
2,31050,30696,31704,50750,15323,-204,2137,-2364,-325,-2866,-3452,-44,228,-336,1,0,33,51,480,0,53298,1
2,31047,30696,31700,50751,15326,-256,2208,-1914,1532,-3585,-4297,-51,247,-343,1,0,33,51,520,0,53298,1
2,31038,30696,31701,50752,15327,-552,959,-1475,1960,-5423,-6231,-43,267,-341,1,0,33,51,560,0,53298,1
2,31050,30696,31706,50753,15328,-1223,333,-773,3927,-9112,-10655,-36,280,-344,1,0,33,51,600,0,53298,1
2,31044,30698,31712,50754,15329,-1980,827,-1539,3420,-13973,-15908,-25,317,-337,1,0,33,51,640,0,53298,1
2,31046,30700,31707,50755,15329,-2664,864,-2361,3481,-16253,-19602,-7,335,-339,1,0,33,51,680,0,53298,1
2,31044,30702,31717,50756,15329,-3201,1372,-2767,8110,-16506,-21245,19,365,-331,1,0,33,51,720,0,53298,1
2,31038,30705,31727,50757,15328,-3660,1951,-2603,11631,-16280,-20850,35,391,-319,1,0,33,51,760,0,53298,1
2,31048,30708,31743,50758,15327,-5316,1855,-2430,9330,-17713,-19615,62,416,-310,1,0,33,51,800,0,53298,1
2,31034,30708,31744,50759,15327,-5431,1646,-3285,2959,-19531,-19826,93,421,-285,1,0,33,51,840,0,53298,1
2,31074,30701,31753,50760,15327,-5951,1106,-2445,2971,-18752,-20022,111,443,-265,1,0,33,51,880,0,53298,1
2,31105,30676,31759,50761,15327,-5771,1753,-3166,2523,-18537,-19469,136,444,-236,1,0,33,51,920,0,53298,1
2,31129,30674,31765,50762,15329,-5162,1512,-2564,2783,-15476,-18212,165,443,-225,1,0,33,51,960,0,53298,1
1,31180,30595,31775,50763,0,-5115,1360,-1901,3308,-13278,-16387,185,451,-193,1,0,33,52,0,0,53298,1
2,31206,30536,31788,50764,14790,-4505,1491,-2210,986,-11685,-14176,197,447,-189,1,0,33,52,40,0,53298,1
2,31256,30578,31830,50765,14791,-4016,1484,-2455,-13,-9363,-11655,206,436,-172,1,0,33,52,80,0,53298,1
2,31237,30594,31841,50766,14793,-4158,3014,-4051,2275,-7026,-7517,207,439,-163,1,0,33,52,120,0,53298,1
2,31261,30675,31840,50767,14794,-5048,-1820,-857,-4173,-1244,-367,217,439,-159,1,0,33,52,160,0,53298,1
2,31243,30709,31846,50768,14796,-4674,-1689,643,-3182,-1936,-505,216,434,-158,1,0,33,52,200,0,53298,1
2,31260,30715,31851,50769,14799,-4280,-79,-1250,-2661,-3178,-1341,217,425,-155,1,0,33,52,240,0,53298,1
2,31263,30713,31847,50770,14802,-4258,-789,-483,-36,-1120,207,215,449,-155,1,0,33,52,280,0,53298,1
2,31266,30714,31846,50771,14804,-4959,-1306,44,1457,326,810,224,434,-154,1,0,33,52,320,0,53298,1
2,31255,30714,31841,50772,14806,-4425,-518,-740,988,1232,-104,225,443,-163,1,0,33,52,360,0,53298,1
2,31245,30714,31839,50773,14808,-4533,-914,-325,3224,2121,154,212,438,-162,1,0,33,52,400,0,53298,1
2,31238,30715,31840,50774,14810,-4560,-1011,-484,2362,1861,-224,218,440,-166,1,0,33,52,440,0,53298,1
2,31234,30713,31840,50775,14811,-4534,-847,-731,1221,1185,-264,212,442,-178,1,0,33,52,480,0,53298,1
2,31236,30713,31838,50776,14811,-4546,-907,-765,469,589,305,217,441,-169,1,0,33,52,520,0,53298,1
2,31220,30712,31825,50777,14812,-4384,-435,-1323,-207,669,1170,212,436,-168,1,0,33,52,560,0,53298,1
2,31192,30710,31808,50778,14813,-4066,243,-1760,731,2276,3040,211,435,-177,1,0,33,52,600,0,53298,1
2,31167,30709,31796,50779,14813,-4140,746,-1753,2504,4827,5972,194,448,-186,1,0,33,52,640,0,53298,1
2,31141,30707,31786,50780,14814,-4343,887,-1966,1954,7349,7994,180,438,-200,1,0,33,52,680,0,53298,1
2,31070,30704,31773,50781,14815,-4066,1455,-3449,-2742,10920,9383,166,452,-224,1,0,33,52,720,0,53298,1
2,30975,30703,31772,50782,14816,-3768,3426,-4494,-1429,16408,13333,151,457,-247,1,0,33,52,760,0,53298,1
2,30993,30703,31773,50783,14816,-5334,3951,-4658,154,22258,20218,106,442,-290,1,0,33,52,800,0,53298,1
2,31003,30704,31768,50784,14817,-6539,5061,-5770,-3479,27872,26700,64,410,-322,1,0,33,52,840,0,53298,1
2,30990,30713,31759,50785,14819,-9399,5831,-6771,-12322,32767,32767,17,373,-333,1,0,33,52,880,0,53298,1
2,30969,30709,31743,50786,14821,-11310,-65,-5910,-25500,32767,32767,-15,335,-335,1,0,33,52,920,0,53298,1
2,30995,30703,31725,50787,14823,-5293,116,-3972,-11936,27522,32271,-28,280,-344,1,0,33,52,960,0,53298,1
1,31025,30703,31729,50788,0,-3566,563,-2163,8224,24165,25347,-32,240,-376,1,0,33,53,0,0,53298,1
2,31028,30702,31718,50789,14281,-2977,-406,583,11903,22052,19700,-21,209,-393,1,0,33,53,40,0,53298,1
2,31003,30701,31701,50790,14283,-1660,-1071,1944,2940,14633,11737,-27,195,-377,1,0,33,53,80,0,53298,1
2,30995,30690,31695,50791,14286,-123,-1514,1853,-6871,6580,5315,-37,189,-385,1,0,33,53,120,0,53298,1
2,30996,30686,31689,50792,14289,669,-416,1092,-9226,511,736,-37,183,-363,1,0,33,53,160,0,53298,1
2,30997,30690,31688,50793,14290,1291,123,-4,-9955,-2787,-1509,-49,189,-353,1,0,33,53,200,0,53298,1
2,30959,30687,31683,50794,14292,1529,646,-504,-7013,-4262,-2631,-55,199,-347,1,0,33,53,240,0,53298,1
2,30939,30684,31686,50795,14294,1289,1170,-1483,-2443,-5537,-3569,-45,213,-345,1,0,33,53,280,0,53298,1
2,30905,30688,31690,50796,14295,806,2208,-2098,2222,-6313,-4651,-47,221,-353,1,0,33,53,320,0,53298,1
2,30952,30685,31693,50797,14297,401,2454,-2340,2773,-6277,-4988,-46,228,-350,1,0,33,53,360,0,53298,1
2,31019,30692,31700,50798,14298,-227,2410,-2479,1409,-6323,-5135,-41,237,-351,1,0,33,53,400,0,53298,1
2,31007,30695,31701,50799,14299,-487,2315,-3113,916,-7164,-5944,-44,246,-348,1,0,33,53,440,0,53298,1
2,30987,30689,31707,50800,14301,-557,2738,-3060,620,-7525,-6791,-41,253,-343,1,0,33,53,480,0,53298,1
2,31020,30693,31703,50801,14302,-771,2168,-3078,-2357,-8257,-8131,-34,276,-338,1,0,33,53,520,0,53298,1
2,30986,30695,31699,50802,14302,-957,2284,-3047,-2724,-9084,-10171,-33,285,-329,1,0,33,53,560,0,53298,1
2,30991,30694,31699,50803,14302,-1466,999,-2429,-1290,-9650,-12077,-22,306,-336,1,0,33,53,600,0,53298,1
2,30999,30691,31704,50804,14303,-2546,1169,-2228,3031,-11226,-15698,-16,348,-326,1,0,33,53,640,0,53298,1
2,31001,30695,31699,50805,14304,-2689,1680,-2824,5354,-12385,-18209,7,359,-325,1,0,33,53,680,0,53298,1
2,31007,30696,31708,50806,14305,-3542,1112,-2507,9438,-11692,-18192,25,379,-329,1,0,33,53,720,0,53298,1
2,31011,30700,31717,50807,14305,-3584,1528,-2591,10922,-12494,-18422,45,397,-309,1,0,33,53,760,0,53298,1
2,31000,30703,31733,50808,14306,-4793,1289,-2295,9921,-13352,-17970,71,419,-303,1,0,33,53,800,0,53298,1
2,31004,30703,31737,50809,14307,-5421,1828,-2663,6018,-15473,-18263,96,434,-284,1,0,33,53,840,0,53298,1
2,30948,30703,31747,50810,14308,-5645,1024,-2257,1990,-15971,-18199,117,439,-267,1,0,33,53,880,0,53298,1
2,31087,30707,31759,50811,14308,-6268,1142,-2005,1700,-16885,-17672,150,446,-242,1,0,33,53,920,0,53298,1
2,31101,30708,31767,50812,14310,-5408,1138,-2195,112,-16858,-17180,165,449,-209,1,0,33,53,960,0,53298,1
1,31168,30710,31781,50813,0,-4763,805,-1800,-38,-14737,-15709,186,442,-204,1,0,33,54,0,0,53298,1
2,31227,30710,31813,50814,13770,-3693,867,-1466,1821,-13081,-14232,202,438,-188,1,0,33,54,40,0,53298,1
2,30635,30691,31856,50815,13770,-2815,2519,-3333,2146,-11521,-13210,211,439,-157,1,0,33,54,80,0,53298,1
2,30618,30691,31824,50816,13772,-3099,4346,-5554,5830,-4868,-9215,210,446,-164,1,0,33,54,120,0,53298,1
2,30997,30697,31853,50817,13775,-6755,-3646,1741,-3957,2149,2106,219,447,-173,1,0,33,54,160,0,53298,1
2,30967,30694,31825,50818,13778,-4634,20,-950,1663,-37,-548,222,442,-172,1,0,33,54,200,0,53298,1
2,31068,30691,31827,50819,13780,-3971,-1522,-897,1402,239,-59,222,440,-182,1,0,33,54,240,0,53298,1
2,31029,30696,31833,50820,13782,-4496,-868,-319,1076,692,-232,216,444,-168,1,0,33,54,280,0,53298,1
2,31074,30697,31842,50821,13784,-4634,-1074,-814,271,573,10,221,439,-179,1,0,33,54,320,0,53298,1
2,30995,30689,31837,50822,13787,-4497,-1026,-569,-138,433,25,213,443,-165,1,0,33,54,360,0,53298,1
2,30982,30688,31843,50823,13789,-4480,-1051,-645,188,208,21,215,437,-177,1,0,33,54,400,0,53298,1
2,31022,30699,31848,50824,13791,-4451,-1045,-659,-170,-86,-176,214,440,-170,1,0,33,54,440,0,53298,1
2,31024,30686,31850,50825,13792,-4513,-966,-753,-616,-279,-173,226,440,-182,1,0,33,54,480,0,53298,1
2,31071,30528,31849,50826,13794,-4446,-1070,-653,-985,-221,287,222,434,-176,1,0,33,54,520,0,53298,1
2,30997,30545,31840,50827,13795,-4568,-955,-878,-780,-92,1066,200,444,-174,1,0,33,54,560,0,53298,1
2,31014,30545,31815,50828,13797,-4072,268,-2216,356,1913,2769,206,448,-176,1,0,33,54,600,0,53298,1
2,30971,30559,31789,50829,13799,-3949,1046,-2413,3399,5696,6264,199,447,-201,1,0,33,54,640,0,53298,1
2,30963,30568,31774,50830,13800,-4394,1389,-2533,1560,8591,9089,185,453,-211,1,0,33,54,680,0,53298,1
2,30899,30574,31759,50831,13800,-4109,2364,-4147,-3301,12286,11810,169,453,-229,1,0,33,54,720,0,53298,1
2,30927,30567,31756,50832,13801,-4285,4198,-5869,-4043,18573,16837,131,443,-265,1,0,33,54,760,0,53298,1
2,30901,30575,31754,50833,13801,-5729,6209,-7026,-2739,27679,25023,86,438,-304,1,0,33,54,800,0,53298,1
2,30944,30579,31752,50834,13801,-9511,7118,-7355,-8649,32767,32767,33,381,-347,1,0,33,54,840,0,53298,1
2,30963,30571,31735,50835,13803,-15360,1056,-5036,-21234,32767,32767,-15,333,-337,1,0,33,54,880,0,53298,1
2,31019,30560,31724,50836,13805,-7279,-2930,-4084,-23590,30221,32767,-29,281,-347,1,0,33,54,920,0,53298,1
2,31005,30525,31707,50837,13806,-3369,1413,-2118,90,22303,23984,-39,253,-359,1,0,33,54,960,0,53298,1
1,31024,30527,31688,50838,0,-2969,-1166,-571,4837,19686,19864,-40,226,-382,1,0,33,55,0,0,53298,1
2,31011,30498,31684,50839,13260,-2097,-1075,1320,6263,16098,14546,-30,190,-374,1,0,33,55,40,0,53298,1
2,31012,30455,31683,50840,13260,-399,-1748,1794,-1447,9228,8375,-41,181,-369,1,0,33,55,80,0,53298,1
2,31013,30397,31675,50841,13262,557,-1240,1301,-4331,2526,2800,-37,191,-359,1,0,33,55,120,0,53298,1
2,31025,30544,31680,50842,13263,1451,-679,-158,-3201,-2180,-975,-46,188,-364,1,0,33,55,160,0,53298,1
2,31024,30594,31688,50843,13265,1737,67,-521,2405,-2997,-2217,-30,196,-380,1,0,33,55,200,0,53298,1
2,31025,30580,31692,50844,13267,1358,737,-717,5540,-4217,-3245,-45,209,-381,1,0,33,55,240,0,53298,1
2,31035,30582,31693,50845,13268,631,1310,-1486,1615,-6308,-5439,-33,225,-373,1,0,33,55,280,0,53298,1
2,31023,30595,31692,50846,13269,174,1620,-2384,-1873,-8147,-7793,-31,237,-375,1,0,33,55,320,0,53298,1
2,31013,30632,31695,50847,13269,-389,2246,-2829,-655,-8687,-8600,-33,249,-369,1,0,33,55,360,0,53298,1
2,31006,30643,31696,50848,13270,-971,1938,-3206,754,-9020,-9021,-28,266,-372,1,0,33,55,400,0,53298,1
2,30996,30642,31697,50849,13270,-1424,2736,-3102,875,-10286,-10931,-28,282,-372,1,0,33,55,440,0,53298,1
2,30981,30637,31695,50850,13270,-1685,1808,-3319,-2646,-11524,-12745,-28,312,-364,1,0,33,55,480,0,53298,1
2,30980,30640,31696,50851,13271,-2912,931,-3120,-49,-12261,-15425,-9,329,-345,1,0,33,55,520,0,53298,1
2,30961,30629,31689,50852,13271,-3141,1610,-3743,6444,-13685,-19006,12,362,-348,1,0,33,55,560,0,53298,1
2,30973,30606,31710,50853,13271,-3737,1151,-3390,13266,-13296,-19609,37,379,-351,1,0,33,55,600,0,53298,1
2,30974,30585,31725,50854,13272,-4320,1828,-2725,14503,-14267,-18822,66,406,-352,1,0,33,55,640,0,53298,1
2,30924,30542,31734,50855,13273,-5271,1297,-1770,9417,-17645,-17835,92,424,-332,1,0,33,55,680,0,53298,1
2,30914,30530,31739,50856,13275,-5466,1337,-2101,2859,-22393,-18245,123,441,-287,1,0,33,55,720,0,53298,1
2,30957,30528,31750,50857,13277,-5382,597,-2231,-1700,-23372,-17864,138,444,-254,1,0,33,55,760,0,53298,1
2,30941,30526,31756,50858,13279,-5329,1231,-2640,503,-22626,-17114,166,450,-230,1,0,33,55,800,0,53298,1
2,30947,30539,31770,50859,13281,-4785,1077,-2892,1839,-19212,-15965,185,451,-199,1,0,33,55,840,0,53298,1
2,31061,30578,31806,50860,13283,-4469,1020,-2348,4554,-14901,-14343,196,444,-190,1,0,33,55,880,0,53298,1
2,31011,30648,31863,50861,13286,-3613,2668,-3979,6828,-12325,-13137,210,440,-168,1,0,33,55,920,0,53298,1
2,31001,30650,31815,50862,13290,-3407,5962,-7462,10781,-6499,-8634,207,439,-177,1,0,33,55,960,0,53298,1
1,30865,30636,31812,50863,0,-5256,-2302,423,-5299,2441,2495,203,445,-175,1,0,33,56,0,1,53298,1
2,30705,30645,31814,50864,12751,-5128,-2010,743,2278,84,-231,206,442,-174,1,0,33,56,40,1,53298,1
2,30795,30650,31812,50865,12753,-4220,-749,-1295,-1162,-552,-234,206,448,-170,1,0,33,56,80,1,53298,1
2,30739,30646,31814,50866,12756,-4360,-1177,-424,630,129,-33,199,441,-167,1,0,33,56,120,1,53298,1
2,30744,30645,31819,50867,12759,-4626,-818,-569,506,546,562,207,443,-181,1,0,33,56,160,1,53298,1
2,30709,30642,31819,50868,12761,-4552,-961,-702,-296,674,311,203,435,-171,1,0,33,56,200,1,53298,1
2,30710,30645,31826,50869,12763,-4486,-907,-609,60,614,-133,205,431,-177,1,0,33,56,240,1,53298,1
2,30673,30639,31832,50870,12765,-4440,-976,-639,73,337,-458,212,438,-176,1,0,33,56,280,1,53298,1
2,30658,30414,31830,50871,12765,-4525,-967,-713,-224,-91,-397,206,438,-176,1,0,33,56,320,1,53298,1
2,30678,30487,31829,50872,12767,-4612,-931,-925,-663,-295,151,211,447,-175,1,0,33,56,360,1,53298,1
2,30685,30489,31805,50873,12769,-4375,-602,-1280,174,-185,1563,195,445,-185,1,0,33,56,400,1,53298,1
2,30645,30508,31775,50874,12772,-3841,2066,-3562,403,3295,5419,185,445,-189,1,0,33,56,440,1,53298,1
2,30770,30510,31755,50875,12774,-4041,3205,-4014,-185,8628,11565,175,447,-211,1,0,33,56,480,1,53298,1
2,30755,30455,31747,50876,12778,-4570,3188,-5560,-6060,15737,17628,140,452,-240,1,0,33,56,520,1,53298,1
2,30725,30639,31747,50877,12782,-5549,4182,-6090,-2515,23992,23234,112,442,-274,1,0,33,56,560,1,53298,1
2,30797,30577,31743,50878,12785,-6432,6818,-7159,-3933,32767,29411,58,418,-306,1,0,33,56,600,1,53298,1
2,30859,30626,31750,50879,12788,-13098,4382,-5791,-12803,32767,32767,9,355,-335,1,0,33,56,640,1,53298,1
2,30871,30606,31718,50880,12793,-11852,-1135,-3396,-26135,32767,32767,-35,319,-331,1,0,33,56,680,1,53298,1
2,30986,30598,31717,50881,12796,-4498,-2194,-2873,-16118,25794,30955,-38,268,-338,1,0,33,56,720,1,53298,1
2,31073,30598,31724,50882,12800,-3217,-64,-603,6414,20007,21306,-35,227,-361,1,0,33,56,760,1,53298,1
2,31079,30601,31721,50883,12803,-2624,-689,162,8656,15956,16134,-43,213,-365,1,0,33,56,800,1,53298,1
2,31082,30607,31708,50884,12805,-1209,-224,1714,1250,10708,9886,-36,200,-364,1,0,33,56,840,1,53298,1
2,31099,30600,31698,50885,12808,416,-1353,909,-10659,3230,4150,-45,201,-347,1,0,33,56,880,1,53298,1
2,31095,30604,31694,50886,12811,1324,225,-345,-12129,-2261,-1141,-50,198,-336,1,0,33,56,920,1,53298,1
2,31096,30602,31692,50887,12814,1817,727,-1180,-9563,-3332,-2311,-56,202,-322,1,0,33,56,960,1,53298,1
1,31085,30602,31693,50888,0,1452,1122,-987,-3947,-2578,-2470,-56,216,-320,1,0,33,57,0,0,53298,1
2,31109,30610,31700,50889,12242,904,1808,-1221,-606,-3234,-3636,-54,226,-326,1,0,33,57,40,0,53298,1
2,31084,30608,31703,50890,12244,382,2161,-2029,-271,-3968,-4765,-49,223,-325,1,0,33,57,80,0,53298,1
2,31038,30606,31695,50891,12247,67,3085,-2122,276,-4276,-5281,-56,238,-324,1,0,33,57,120,0,53298,1
2,31015,30614,31695,50892,12249,-169,2848,-2514,-32,-4238,-5157,-46,236,-318,1,0,33,57,160,0,53298,1
2,31024,30615,31697,50893,12251,-310,2896,-2533,1685,-3763,-4906,-49,247,-319,1,0,33,57,200,0,53298,1
2,31032,30618,31695,50894,12253,-454,2730,-2193,1369,-4061,-5378,-41,267,-327,1,0,33,57,240,0,53298,1
2,31023,30618,31699,50895,12255,-478,2244,-1952,682,-5170,-6564,-43,275,-321,1,0,33,57,280,0,53298,1
2,31025,30618,31693,50896,12256,-1325,940,-1298,1256,-7139,-8739,-26,304,-328,1,0,33,57,320,0,53298,1
2,31013,30618,31698,50897,12258,-2208,560,-1295,4722,-11208,-13937,-22,318,-322,1,0,33,57,360,0,53298,1
2,31025,30644,31706,50898,12260,-2692,1658,-2284,7248,-14580,-18455,-12,344,-318,1,0,33,57,400,0,53298,1
2,31027,30655,31716,50899,12261,-3217,1663,-3060,7873,-14384,-19357,15,373,-323,1,0,33,57,440,0,53298,1
2,31015,30674,31717,50900,12263,-3699,1819,-2984,11176,-13256,-18803,38,390,-322,1,0,33,57,480,0,53298,1
2,31024,30591,31729,50901,12264,-4568,2121,-2317,12386,-13893,-18309,41,401,-305,1,0,33,57,520,0,53298,1
2,31019,30553,31738,50902,12266,-5388,1684,-2555,6580,-16390,-18473,80,420,-290,1,0,33,57,560,0,53298,1
2,31030,30527,31741,50903,12267,-5509,1369,-2299,3029,-17984,-19023,100,432,-268,1,0,33,57,600,0,53298,1
2,31070,30611,31748,50904,12269,-5553,873,-1824,1914,-18715,-19368,120,442,-232,1,0,33,57,640,0,53298,1
2,31090,30626,31755,50905,12271,-5133,899,-2472,-60,-18215,-19336,145,443,-213,1,0,33,57,680,0,53298,1
2,31110,30635,31774,50906,12274,-4583,802,-2035,1559,-15436,-18492,170,448,-204,1,0,33,57,720,0,53298,1
2,31172,30637,31819,50907,12276,-4036,960,-1844,3115,-13254,-17484,199,431,-181,1,0,33,57,760,0,53298,1
2,30162,30620,31839,50908,12279,-4695,3549,-3650,3734,-11793,-17150,212,432,-156,1,0,33,57,800,0,53298,1
2,30352,30363,31811,50909,12282,-4503,3324,-4407,2488,-4288,-10668,212,438,-174,1,0,33,57,840,0,53298,1
2,30422,30318,31832,50910,12286,-6818,-3265,1765,-1486,1466,4093,221,433,-173,1,0,33,57,880,0,53298,1
2,30325,30367,31822,50911,12290,-4458,11,-691,168,-1045,-60,224,440,-172,1,0,33,57,920,0,53298,1
2,30274,30320,31814,50912,12292,-4082,-1375,-939,-113,-710,582,211,439,-169,1,0,33,57,960,0,53298,1
1,30291,30343,31826,50913,0,-4335,-1031,-142,-90,193,192,219,433,-169,1,0,33,58,0,1,53298,1
2,30311,30327,31821,50914,11732,-4842,-736,-628,812,631,324,211,441,-167,1,0,33,58,40,1,53298,1
2,30309,30418,31823,50915,11735,-4445,-1067,-550,231,853,148,208,440,-170,1,0,33,58,80,1,53298,1
2,30305,30431,31828,50916,11738,-4513,-899,-518,1120,781,-89,212,440,-170,1,0,33,58,120,1,53298,1
2,30311,30456,31825,50917,11741,-4469,-1020,-633,412,315,-355,202,444,-166,1,0,33,58,160,1,53298,1
2,30335,30466,31824,50918,11744,-4541,-929,-671,-127,-159,-153,213,441,-167,1,0,33,58,200,1,53298,1
2,30339,30468,31823,50919,11748,-4601,-939,-814,-673,-331,771,216,434,-160,1,0,33,58,240,1,53298,1
2,30262,30508,31790,50920,11752,-4180,456,-2772,-2039,483,2622,210,438,-168,1,0,33,58,280,1,53298,1
2,30154,30520,31761,50921,11755,-3731,1949,-4048,-1945,5491,7989,190,448,-186,1,0,33,58,320,1,53298,1
2,30239,30561,31751,50922,11757,-4461,2854,-4285,1420,11820,13142,169,459,-219,1,0,33,58,360,1,53298,1
2,30260,30509,31743,50923,11760,-5464,2029,-4728,-1512,19383,17335,147,445,-253,1,0,33,58,400,1,53298,1
2,30311,30492,31747,50924,11763,-6137,2385,-3781,2325,25881,19917,109,437,-281,1,0,33,58,440,1,53298,1
2,30359,30400,31735,50925,11767,-7016,3937,-4564,-757,29834,21873,80,418,-322,1,0,33,58,480,1,53298,1
2,30682,30466,31733,50926,11770,-6686,7129,-6661,-12334,32506,26758,40,376,-352,1,0,33,58,520,1,53298,1
2,30722,30518,31711,50927,11775,-11873,3509,-5452,-26382,32767,32767,-16,332,-348,1,0,33,58,560,1,53298,1
2,30940,30569,31691,50928,11779,-8572,-3201,-4586,-30561,30006,32767,-40,278,-344,1,0,33,58,600,1,53298,1
2,30999,30562,31702,50929,11783,-3589,-612,-1188,1171,24023,29804,-32,238,-356,1,0,33,58,640,1,53298,1
2,31005,30556,31689,50930,11787,-2257,-594,28,11315,18872,20815,-36,208,-374,1,0,33,58,680,1,53298,1
2,30973,30558,31690,50931,11791,-1429,-599,1193,7535,13557,13582,-32,186,-380,1,0,33,58,720,1,53298,1
2,30992,30557,31682,50932,11795,-203,-925,1443,-5411,7170,6996,-42,184,-364,1,0,33,58,760,1,53298,1
2,30970,30566,31675,50933,11798,775,-893,639,-13512,695,1597,-52,188,-344,1,0,33,58,800,1,53298,1
2,30971,30568,31669,50934,11801,1722,-35,-745,-12776,-3314,-2149,-54,190,-334,1,0,33,58,840,1,53298,1
2,30974,30574,31670,50935,11803,2021,398,-851,-5335,-3219,-2567,-60,194,-326,1,0,33,58,880,1,53298,1
2,30972,30577,31669,50936,11805,1384,659,-587,817,-2958,-2852,-58,206,-334,1,0,33,58,920,1,53298,1
2,30940,30581,31669,50937,11806,691,986,-843,1314,-4835,-5322,-50,212,-330,1,0,33,58,960,1,53298,1
1,30980,30576,31668,50938,0,103,1433,-1041,-959,-7198,-8502,-49,231,-323,1,0,33,59,0,0,53298,1
2,30985,30591,31673,50939,11222,-1148,54,-978,-1264,-9897,-11746,-46,250,-330,1,0,33,59,40,0,53298,1
2,30995,30590,31680,50940,11223,-2249,1321,-1663,1883,-13796,-17047,-42,278,-326,1,0,33,59,80,0,53298,1
2,30976,30595,31690,50941,11224,-3266,1300,-2479,3008,-16444,-20796,-25,321,-329,1,0,33,59,120,0,53298,1
2,30999,30596,31693,50942,11225,-3723,2917,-2996,3464,-17023,-23763,-6,342,-312,1,0,33,59,160,0,53298,1
2,31006,30591,31686,50943,11227,-3671,3448,-2841,4559,-16191,-22876,16,376,-304,1,0,33,59,200,0,53298,1
2,31017,30589,31687,50944,11229,-4078,3345,-3431,3798,-15063,-21060,33,389,-291,1,0,33,59,240,0,53298,1
2,31024,30556,31695,50945,11230,-4753,2816,-3141,7332,-13070,-19300,55,413,-277,1,0,33,59,280,0,53298,1
2,31013,30447,31711,50946,11233,-5213,2055,-2902,9923,-12667,-18031,78,426,-282,1,0,33,59,320,0,53298,1
2,30996,30424,31720,50947,11235,-5271,1416,-2314,10558,-13201,-17669,111,435,-265,1,0,33,59,360,0,53298,1
2,31027,30392,31732,50948,11238,-5138,1483,-2333,8827,-13931,-17230,132,446,-236,1,0,33,59,400,0,53298,1
2,31061,30392,31740,50949,11241,-4494,1245,-2299,5142,-13383,-15877,147,449,-233,1,0,33,59,440,0,53298,1
2,31080,30396,31749,50950,11244,-4247,1126,-2228,3535,-12216,-13707,165,439,-223,1,0,33,59,480,0,53298,1
2,31123,30409,31765,50951,11247,-4154,993,-2308,1771,-10340,-11384,179,441,-205,1,0,33,59,520,0,53298,1
2,31136,30411,31768,50952,11250,-4244,803,-1711,1419,-8445,-9361,195,443,-185,1,0,33,59,560,0,53298,1
2,31141,30389,31780,50953,11254,-4288,635,-1479,-879,-8066,-8178,191,431,-179,1,0,33,59,600,0,53298,1
2,31138,30350,31785,50954,11258,-4567,473,-1743,-3293,-7091,-6787,206,440,-170,1,0,33,59,640,0,53298,1
2,31165,30245,31786,50955,11263,-4626,686,-2393,-3033,-5337,-5000,206,442,-164,1,0,33,59,680,0,53298,1
2,31179,30214,31779,50956,11267,-4771,-233,-1166,-2370,-1531,-1220,208,434,-174,1,0,33,59,720,0,53298,1
2,31189,30216,31775,50957,11272,-4474,-1274,112,-925,-43,-217,213,441,-171,1,0,33,59,760,0,53298,1
2,31180,30230,31785,50958,11276,-4152,-896,-295,-729,-376,-626,214,440,-172,1,0,33,59,800,0,53298,1
2,31176,30224,31791,50959,11279,-4415,-363,-814,994,92,166,209,435,-157,1,0,33,59,840,0,53298,1
2,31169,30236,31785,50960,11281,-4708,-979,-585,937,830,219,215,435,-169,1,0,33,59,880,0,53298,1
2,31170,30265,31796,50961,11284,-4698,-903,-457,884,967,-208,210,442,-170,1,0,33,59,920,0,53298,1
2,31158,30280,31787,50962,11286,-4497,-630,-496,1641,715,12,210,434,-180,1,0,33,59,960,0,53298,1
1,31171,30289,31787,50963,0,-4435,-893,-604,1433,507,-74,212,446,-176,1,0,34,0,0,1,53298,1
2,31175,30308,31789,50964,10714,-4561,-772,-573,1277,281,-103,216,448,-178,1,0,34,0,40,1,53298,1
2,31176,30264,31784,50965,10718,-4618,-804,-690,560,102,39,207,439,-177,1,0,34,0,80,1,53298,1
2,31178,30336,31782,50966,10721,-4482,-655,-886,211,-10,670,201,445,-169,1,0,34,0,120,1,53298,1
2,31157,30330,31772,50967,10725,-4402,-163,-1321,11,225,1937,202,438,-178,1,0,34,0,160,1,53298,1
2,31132,30259,31766,50968,10729,-3857,1458,-3093,482,2889,4530,188,444,-190,1,0,34,0,200,1,53298,1
2,31113,30190,31745,50969,10733,-4072,3313,-4098,1039,8146,9230,172,444,-202,1,0,34,0,240,1,53298,1
2,31074,30095,31734,50970,10736,-4353,4016,-5297,-2802,15752,15102,147,455,-227,1,0,34,0,280,1,53298,1
2,31058,30657,31732,50971,10739,-6175,4823,-6089,-1533,24190,22417,108,440,-260,1,0,34,0,320,1,53298,1
2,31064,30703,31722,50972,10742,-7622,6441,-6528,-2815,32767,30669,70,420,-310,1,0,34,0,360,1,53298,1
2,31075,30691,31717,50973,10746,-12309,4611,-5580,-9262,32767,32767,1,351,-337,1,0,34,0,400,1,53298,1
2,31064,30687,31699,50974,10749,-12155,-615,-3998,-20481,32767,32767,-29,303,-343,1,0,34,0,440,1,53298,1
2,31060,30674,31688,50975,10753,-5271,-1651,-2909,-10373,28045,32767,-36,254,-362,1,0,34,0,480,1,53298,1
2,31049,30658,31665,50976,10756,-3387,-127,-585,5565,22509,23892,-37,219,-369,1,0,34,0,520,1,53298,1
2,31050,30653,31657,50977,10759,-2585,-1686,827,6401,17110,17249,-29,191,-373,1,0,34,0,560,1,53298,1
2,31043,30644,31660,50978,10762,-1022,-1392,1555,4377,10759,10011,-31,177,-377,1,0,34,0,600,1,53298,1
2,31059,30640,31654,50979,10765,276,-1095,1950,-2708,4543,4157,-41,191,-359,1,0,34,0,640,1,53298,1
2,31070,30639,31650,50980,10768,1072,-272,655,-7597,-1873,-933,-37,195,-363,1,0,34,0,680,1,53298,1
2,31047,30635,31650,50981,10770,1641,487,-997,-6904,-4828,-3015,-43,201,-363,1,0,34,0,720,1,53298,1
2,31058,30642,31647,50982,10773,1630,1189,-1340,-1604,-4920,-3174,-41,199,-363,1,0,34,0,760,1,53298,1
2,31055,30646,31652,50983,10775,1163,1838,-2168,3073,-5847,-3557,-46,208,-366,1,0,34,0,800,1,53298,1
2,31063,30652,31673,50984,10778,635,2141,-2539,6086,-5937,-3888,-32,230,-372,1,0,34,0,840,1,53298,1
2,31069,30657,31678,50985,10780,-146,2198,-3004,4918,-6232,-4531,-33,237,-367,1,0,34,0,880,1,53298,1
2,31067,30655,31676,50986,10783,-288,2062,-3101,1038,-6396,-5591,-31,239,-369,1,0,34,0,920,1,53298,1
2,31079,30666,31680,50987,10785,-912,1018,-2452,-880,-7178,-6819,-24,266,-378,1,0,34,0,960,1,53298,1
1,31066,30665,31680,50988,0,-1174,1107,-2710,-1435,-10276,-10693,-34,282,-364,1,0,34,1,0,1,53298,1
2,31060,30672,31686,50989,10204,-1663,873,-2405,-1354,-12304,-14138,-31,315,-353,1,0,34,1,40,1,53298,1
2,31068,30670,31683,50990,10205,-2472,1609,-2598,-2190,-14387,-17314,-8,338,-330,1,0,34,1,80,1,53298,1
2,31060,30672,31675,50991,10207,-2379,2038,-3374,-1909,-15229,-19083,7,357,-337,1,0,34,1,120,1,53298,1
2,31041,30675,31675,50992,10208,-3106,1930,-3381,5323,-12941,-19033,31,385,-333,1,0,34,1,160,1,53298,1
2,31042,30675,31690,50993,10209,-4223,1428,-2566,13130,-12179,-18491,54,402,-330,1,0,34,1,200,1,53298,1
2,31055,30675,31707,50994,10209,-4870,1780,-2665,11326,-14317,-17857,76,422,-314,1,0,34,1,240,1,53298,1
2,31065,30676,31727,50995,10210,-5664,922,-2338,6299,-16391,-17175,92,434,-296,1,0,34,1,280,1,53298,1
2,31093,30673,31747,50996,10210,-5630,991,-2574,3004,-18288,-17457,118,444,-274,1,0,34,1,320,1,53298,1
2,31101,30668,31753,50997,10212,-5265,737,-2285,1912,-18006,-16560,137,449,-243,1,0,34,1,360,1,53298,1
2,31120,30664,31772,50998,10214,-5185,851,-2218,2420,-17408,-15422,162,448,-230,1,0,34,1,400,1,53298,1
2,31150,30670,31780,50999,10215,-4031,1216,-2716,1682,-15387,-14759,182,448,-194,1,0,34,1,440,1,53298,1
2,31178,30667,31801,51000,10217,-3439,1031,-1997,3104,-12075,-13242,204,438,-182,1,0,34,1,480,1,53298,1
2,31244,30444,31862,51001,10219,-3060,1529,-2346,1902,-10238,-11650,201,443,-171,1,0,34,1,520,1,53298,1
2,30735,30529,31832,51002,10221,-4438,2936,-6536,-2385,-4636,-6192,214,438,-182,1,0,34,1,560,1,53298,1
2,30498,30551,31815,51003,10224,-7538,-2798,745,946,-538,-1456,216,442,-180,1,0,34,1,600,1,53298,1
2,30466,30527,31810,51004,10227,-3850,-505,152,259,-736,-200,216,440,-176,1,0,34,1,640,1,53298,1
2,30367,30533,31814,51005,10231,-4065,-1197,-1183,39,-571,268,209,439,-175,1,0,34,1,680,1,53298,1
2,30468,30527,31822,51006,10233,-4530,-1082,-454,-495,-122,-1,215,435,-181,1,0,34,1,720,1,53298,1
2,30429,30584,31821,51007,10236,-4721,-851,-698,-27,318,525,209,455,-183,1,0,34,1,760,1,53298,1
2,30520,30235,31820,51008,10239,-4443,-979,-648,8,408,427,208,448,-170,1,0,34,1,800,1,53298,1
2,30559,30664,31825,51009,10241,-4417,-968,-674,279,381,285,213,439,-173,1,0,34,1,840,1,53298,1
2,30671,30693,31833,51010,10243,-4495,-939,-689,356,232,-115,208,446,-174,1,0,34,1,880,1,53298,1
2,30731,30706,31830,51011,10245,-4513,-993,-688,4,-51,-345,223,439,-183,1,0,34,1,920,1,53298,1
2,30710,30690,31825,51012,10247,-4449,-960,-684,-125,-226,-52,199,439,-177,1,0,34,1,960,1,53298,1
1,30866,30695,31834,51013,0,-4507,-910,-706,-567,-396,401,215,443,-169,1,0,34,2,0,1,53298,1
2,30873,30701,31828,51014,9695,-4388,-987,-842,-1379,-526,1122,208,436,-178,1,0,34,2,40,1,53298,1
2,30748,30691,31816,51015,9697,-4497,-301,-1353,-1578,-168,1865,208,448,-180,1,0,34,2,80,1,53298,1
2,30442,30690,31792,51016,9698,-4318,829,-2608,-218,2064,3483,206,444,-186,1,0,34,2,120,1,53298,1
2,30486,30686,31746,51017,9700,-4095,2477,-4412,1430,7560,7358,170,452,-214,1,0,34,2,160,1,53298,1
2,30446,30687,31721,51018,9702,-3315,5119,-4968,5995,14931,13938,150,450,-238,1,0,34,2,200,1,53298,1
2,30461,30688,31699,51019,9704,-5387,4819,-7135,-6364,24879,20626,120,452,-280,1,0,34,2,240,1,53298,1
2,30509,30696,31692,51020,9707,-7618,5030,-6395,-5560,32767,29344,77,421,-325,1,0,34,2,280,1,53298,1
2,30513,30690,31703,51021,9709,-10992,4445,-5534,-12599,32767,32767,10,370,-348,1,0,34,2,320,1,53298,1
2,30540,30694,31703,51022,9712,-12543,-148,-3714,-23355,32767,32767,-20,326,-340,1,0,34,2,360,1,53298,1
2,30852,30685,31695,51023,9714,-5673,-2882,-3388,-21934,25623,32653,-39,281,-335,1,0,34,2,400,1,53298,1
2,30835,30691,31678,51024,9716,-3503,817,-1325,-1921,19119,20466,-38,254,-338,1,0,34,2,440,1,53298,1
2,30802,30685,31660,51025,9718,-2366,-1104,-670,1065,15369,16914,-51,223,-359,1,0,34,2,480,1,53298,1
2,30679,30681,31665,51026,9719,-1240,-678,585,7025,13297,13249,-30,212,-376,1,0,34,2,520,1,53298,1
2,30565,30673,31657,51027,9721,-145,-910,1032,1938,8840,7546,-50,202,-368,1,0,34,2,560,1,53298,1
2,30587,30678,31650,51028,9722,932,-1600,892,-5268,3121,1844,-47,197,-359,1,0,34,2,600,1,53298,1
2,30564,30676,31643,51029,9724,1623,407,99,-3437,-2501,-3247,-45,205,-347,1,0,34,2,640,1,53298,1
2,30464,30679,31648,51030,9725,1604,866,-870,-5285,-4225,-5221,-48,216,-350,1,0,34,2,680,1,53298,1
2,30550,30680,31645,51031,9726,777,1382,-721,-5590,-4029,-5961,-48,226,-338,1,0,34,2,720,1,53298,1
2,30476,30681,31644,51032,9727,107,1618,-1379,-4275,-6252,-7690,-61,247,-327,1,0,34,2,760,1,53298,1
2,30591,30682,31648,51033,9728,-607,2010,-1721,-513,-7894,-9418,-57,255,-331,1,0,34,2,800,1,53298,1
2,30344,30680,31646,51034,9729,-1389,2083,-1749,1370,-9526,-11508,-33,287,-327,1,0,34,2,840,1,53298,1
2,30378,30680,31646,51035,9729,-2223,1174,-1912,665,-11545,-14229,-31,303,-323,1,0,34,2,880,1,53298,1
2,30399,30681,31652,51036,9730,-3718,1561,-2775,2129,-13356,-18250,-17,329,-317,1,0,34,2,920,1,53298,1
2,30384,30682,31644,51037,9731,-3277,2080,-2967,6644,-14237,-20866,2,356,-324,1,0,34,2,960,1,53298,1
1,30395,30686,31658,51038,0,-4286,1986,-2497,12405,-14330,-20820,33,393,-309,1,0,34,3,0,1,53298,1
2,30428,30688,31672,51039,9186,-4667,2356,-2878,10866,-15593,-20574,52,412,-298,1,0,34,3,40,1,53298,1
2,30353,30693,31698,51040,9187,-5406,1690,-1961,10879,-18023,-20217,88,428,-276,1,0,34,3,80,1,53298,1
2,30522,30695,31718,51041,9188,-5642,1676,-2391,7914,-20682,-20126,110,436,-262,1,0,34,3,120,1,53298,1
2,30459,30697,31730,51042,9189,-5252,1170,-2022,5679,-21040,-19439,137,441,-235,1,0,34,3,160,1,53298,1
2,30444,30700,31739,51043,9191,-5150,1225,-2628,4212,-20093,-18366,155,441,-209,1,0,34,3,200,1,53298,1
