sensorStatus,cap1,cap2,cap3,counter,microseconds_since_last_tick,accX,accY,accZ,gyroX,gyroY,gyroZ,magnetX,magnetY,magnetZ,day,hour,min,sec,msec,sync,battery_fuel,crc_good
1,29837,30704,31814,63139,1147,-4608,-902,-255,-14,-9,18,258,520,-150,1,0,42,7,40,0,53298,1
2,29823,30700,31809,63140,1159,-4615,-896,-276,-11,-2,27,256,522,-148,1,0,42,7,80,0,53298,1
2,29820,30703,31809,63141,1170,-4618,-901,-264,-7,0,22,263,521,-151,1,0,42,7,120,0,53298,1
2,29817,30701,31797,63142,1181,-4625,-907,-255,-9,-4,19,259,525,-147,1,0,42,7,160,0,53298,1
2,29813,30702,31808,63143,1192,-4629,-907,-272,-6,-16,20,257,529,-141,1,0,42,7,200,0,53298,1
2,29800,30701,31805,63144,1204,-4631,-912,-261,-8,-21,31,256,520,-146,1,0,42,7,240,0,53298,1
2,29789,30703,31814,63145,1216,-4632,-903,-258,-6,-23,34,258,524,-144,1,0,42,7,280,0,53298,1
2,29793,30709,31807,63146,1228,-4624,-905,-269,-6,-10,25,260,518,-144,1,0,42,7,320,0,53298,1
2,29802,30706,31801,63147,1239,-4623,-893,-250,-10,-20,28,259,525,-143,1,0,42,7,360,0,53298,1
2,29799,30706,31804,63148,1250,-4628,-898,-257,-12,-15,18,259,527,-147,1,0,42,7,400,0,53298,1
2,29780,30709,31797,63149,1261,-4629,-893,-255,-7,-30,23,253,519,-139,1,0,42,7,440,0,53298,1
2,29791,30705,31812,63150,1273,-4621,-905,-278,-17,-50,32,258,520,-146,1,0,42,7,480,0,53298,1
2,29794,30705,31809,63151,1285,-4618,-900,-244,1,-38,44,259,525,-147,1,0,42,7,520,0,53298,1
2,29791,30709,31809,63152,1297,-4615,-887,-267,-23,-32,18,255,515,-135,1,0,42,7,560,0,53298,1
2,29796,30706,31792,63153,1308,-4626,-909,-244,-28,-32,7,257,511,-133,1,0,42,7,600,0,53298,1
2,29780,30702,31783,63154,1319,-4624,-904,-249,-17,-17,-11,259,519,-141,1,0,42,7,640,0,53298,1
2,29779,30710,31808,63155,1330,-4624,-904,-244,-21,15,-17,266,518,-142,1,0,42,7,680,0,53298,1
2,29770,30709,31808,63156,1341,-4611,-902,-269,-3,63,-4,265,521,-153,1,0,42,7,720,0,53298,1
2,29769,30701,31800,63157,1353,-4625,-888,-266,-9,105,5,267,523,-153,1,0,42,7,760,0,53298,1
2,29778,30707,31814,63158,1365,-4629,-905,-275,0,109,7,261,525,-143,1,0,42,7,800,0,53298,1
2,29772,30715,31820,63159,1377,-4629,-899,-267,-16,97,-8,257,533,-151,1,0,42,7,840,0,53298,1
2,29783,30715,31818,63160,1389,-4626,-902,-275,-14,53,-23,261,527,-153,1,0,42,7,880,0,53298,1
2,29765,30708,31812,63161,1401,-4620,-909,-278,-28,-14,2,259,527,-137,1,0,42,7,920,0,53298,1
2,29770,30717,31800,63162,1401,-4624,-900,-264,-23,-73,29,258,526,-136,1,0,42,7,960,0,53298,1
1,29765,30716,31825,63163,684,-4618,-903,-258,-33,-74,17,259,531,-149,1,0,42,8,0,1,53298,1
2,29773,30718,31819,63164,696,-4625,-906,-276,-17,-68,20,257,511,-147,1,0,42,8,40,1,53298,1
2,29770,30720,31826,63165,708,-4625,-904,-276,2,-55,28,258,522,-134,1,0,42,8,80,1,53298,1
2,29781,30714,31827,63166,721,-4612,-916,-258,2,-35,28,255,519,-143,1,0,42,8,120,1,53298,1
2,29793,30715,31826,63167,733,-4629,-912,-257,11,-28,49,263,527,-151,1,0,42,8,160,1,53298,1
2,29776,30718,31822,63168,745,-4629,-898,-258,22,-36,63,261,517,-147,1,0,42,8,200,1,53298,1
2,29764,30710,31818,63169,758,-4619,-901,-260,10,-5,47,260,524,-140,1,0,42,8,240,1,53298,1
2,29765,30711,31821,63170,770,-4631,-906,-257,-13,12,32,254,520,-136,1,0,42,8,280,1,53298,1
2,29761,30709,31814,63171,781,-4617,-903,-260,-8,49,7,262,522,-150,1,0,42,8,320,1,53298,1
2,29737,30709,31811,63172,793,-4625,-894,-268,-9,76,-5,257,523,-139,1,0,42,8,360,1,53298,1
2,29746,30726,31847,63173,804,-4607,-907,-277,-37,92,-34,256,518,-148,1,0,42,8,400,1,53298,1
2,29749,30715,31837,63174,815,-4627,-921,-270,-27,101,-22,261,523,-149,1,0,42,8,440,1,53298,1
2,29751,30717,31818,63175,827,-4632,-899,-280,-6,79,-1,252,528,-140,1,0,42,8,480,1,53298,1
2,29749,30730,31850,63176,838,-4623,-909,-283,-3,7,10,262,526,-148,1,0,42,8,520,1,53298,1
2,29771,30723,31849,63177,849,-4620,-910,-285,-10,-62,33,261,515,-151,1,0,42,8,560,1,53298,1
2,29754,30709,31827,63178,861,-4638,-911,-269,-4,-104,43,259,531,-145,1,0,42,8,600,1,53298,1
2,29773,30715,31816,63179,873,-4618,-899,-282,12,-120,59,265,519,-153,1,0,42,8,640,1,53298,1
2,29776,30707,31816,63180,885,-4613,-902,-275,5,-114,77,250,522,-134,1,0,42,8,680,1,53298,1
2,29771,30712,31820,63181,897,-4619,-897,-274,7,-75,76,267,527,-143,1,0,42,8,720,1,53298,1
2,29765,30703,31802,63182,908,-4618,-889,-269,6,-41,49,253,525,-133,1,0,42,8,760,1,53298,1
2,29748,30705,31812,63183,920,-4610,-903,-259,-16,-11,32,256,528,-138,1,0,42,8,800,1,53298,1
2,29747,30695,31806,63184,932,-4612,-895,-268,-23,13,14,247,525,-145,1,0,42,8,840,1,53298,1
2,29745,30704,31812,63185,943,-4615,-902,-280,-11,4,21,258,524,-142,1,0,42,8,880,1,53298,1
2,29752,30702,31808,63186,955,-4626,-899,-265,-17,-20,11,268,530,-148,1,0,42,8,920,1,53298,1
2,29745,30692,31787,63187,955,-4623,-907,-271,-33,-39,11,263,521,-149,1,0,42,8,960,1,53298,1
1,29757,30707,31799,63188,234,-4613,-897,-276,-28,-45,12,259,525,-141,1,0,42,9,0,1,53298,1
3,29735,30706,31807,63189,245,-4619,-912,-266,-12,-28,18,262,526,-146,1,0,42,9,40,1,53298,1
3,29748,30700,31820,63190,257,-4618,-900,-259,-1,-10,27,262,516,-148,1,0,42,9,80,1,53298,1
3,29735,30707,31804,63191,268,-4620,-919,-261,-7,23,40,264,526,-148,1,0,42,9,120,1,53298,1
1,29736,30698,31809,63192,280,-4609,-905,-268,2,29,31,255,521,-135,1,0,42,9,160,1,53298,1
0,29756,30706,31799,63193,291,-4609,-905,-268,2,29,31,262,520,-148,1,0,42,9,200,1,53298,1
2,29754,30694,31795,63194,303,-4624,-907,-258,-11,-20,8,262,526,-144,1,0,42,9,240,1,53298,1
2,29752,30697,31795,63195,314,-4614,-891,-273,-15,-23,16,255,515,-141,1,0,42,9,280,1,53298,1
2,29737,30700,31795,63196,326,-4619,-905,-263,-7,-31,32,258,526,-134,1,0,42,9,320,1,53298,1
2,29746,30699,31786,63197,338,-4630,-894,-262,-2,-29,40,260,522,-142,1,0,42,9,360,1,53298,1
2,29736,30700,31806,63198,350,-4608,-886,-254,-12,-14,28,258,524,-144,1,0,42,9,400,1,53298,1
2,29738,30700,31798,63199,362,-4616,-903,-254,-9,-5,25,255,521,-133,1,0,42,9,440,1,53298,1
2,29759,30709,31810,63200,374,-4621,-906,-250,-5,8,15,257,527,-149,1,0,42,9,480,1,53298,1
2,29730,30707,31800,63201,385,-4625,-906,-262,-13,6,18,252,528,-134,1,0,42,9,520,1,53298,1
2,29719,30705,31807,63202,396,-4626,-901,-262,-8,10,28,257,523,-141,1,0,42,9,560,1,53298,1
2,29724,30706,31814,63203,407,-4629,-900,-268,-15,3,28,266,530,-140,1,0,42,9,600,1,53298,1
2,29735,30707,31797,63204,419,-4623,-914,-271,0,-14,26,255,523,-149,1,0,42,9,640,1,53298,1
2,29727,30698,31791,63205,431,-4614,-901,-261,-13,-25,30,260,520,-142,1,0,42,9,680,1,53298,1
2,29709,30698,31789,63206,442,-4628,-909,-270,-4,-22,36,254,520,-144,1,0,42,9,720,1,53298,1
2,29714,30700,31800,63207,455,-4621,-899,-258,-7,-21,37,260,518,-150,1,0,42,9,760,1,53298,1
2,29712,30699,31803,63208,467,-4630,-911,-265,-12,-15,26,260,524,-144,1,0,42,9,800,1,53298,1
2,29713,30700,31786,63209,480,-4625,-902,-265,-8,-12,19,261,519,-143,1,0,42,9,840,1,53298,1
2,29729,30702,31804,63210,492,-4614,-899,-265,-18,-14,18,253,527,-147,1,0,42,9,880,1,53298,1
2,29710,30699,31798,63211,505,-4624,-904,-267,-17,-5,24,262,524,-148,1,0,42,9,920,1,53298,1
2,29717,30702,31802,63212,505,-4612,-902,-264,-9,-10,15,264,520,-146,1,0,42,9,960,1,53298,1
1,29718,30700,31801,63213,0,-4619,-897,-257,-13,-9,24,265,517,-145,1,0,42,10,0,0,53298,1
2,29712,30699,31796,63214,39795,-4623,-903,-275,-8,-22,34,262,524,-142,1,0,42,10,40,0,53298,1
2,29705,30702,31803,63215,39806,-4617,-897,-264,-11,-16,33,254,524,-136,1,0,42,10,80,0,53298,1
2,29703,30697,31786,63216,39817,-4622,-897,-268,-9,-21,29,249,521,-135,1,0,42,10,120,0,53298,1
2,29704,30699,31785,63217,39828,-4623,-903,-255,-11,-21,31,261,517,-147,1,0,42,10,160,0,53298,1
2,29702,30705,31799,63218,39840,-4627,-912,-261,-17,-14,27,260,520,-146,1,0,42,10,200,0,53298,1
2,29705,30693,31800,63219,39851,-4640,-896,-271,-17,-4,16,261,523,-147,1,0,42,10,240,0,53298,1
2,29707,30693,31790,63220,39863,-4623,-901,-258,-1,-8,23,257,531,-147,1,0,42,10,280,0,53298,1
2,29709,30696,31792,63221,39876,-4620,-909,-270,-10,-11,24,250,526,-134,1,0,42,10,320,0,53298,1
2,29705,30694,31789,63222,39887,-4625,-900,-267,-2,-19,35,253,519,-141,1,0,42,10,360,0,53298,1
2,29705,30696,31794,63223,39899,-4605,-889,-277,-10,-23,37,269,529,-145,1,0,42,10,400,0,53298,1
2,29716,30704,31803,63224,39911,-4621,-897,-274,-7,-11,31,260,524,-146,1,0,42,10,440,0,53298,1
2,29698,30702,31800,63225,39922,-4613,-897,-269,-12,-21,23,268,530,-140,1,0,42,10,480,0,53298,1
2,29706,30708,31821,63226,39934,-4631,-913,-271,-3,-24,29,256,524,-146,1,0,42,10,520,0,53298,1
2,29721,30721,31837,63227,39947,-4626,-893,-268,12,-29,49,252,534,-142,1,0,42,10,560,0,53298,1
2,29724,30720,31837,63228,39960,-4603,-890,-274,2,-40,46,251,533,-133,1,0,42,10,600,0,53298,1
2,29717,30711,31840,63229,39972,-4642,-901,-260,-17,-54,54,260,520,-146,1,0,42,10,640,0,53298,1
2,29735,30716,31824,63230,39984,-4619,-889,-245,9,-52,42,267,519,-139,1,0,42,10,680,0,53298,1
2,29722,30715,31830,63231,39996,-4614,-905,-253,-10,-27,20,256,524,-154,1,0,42,10,720,0,53298,1
1,29717,30704,31799,63232,7,-4635,-898,-269,-26,-24,17,264,514,-144,1,0,42,10,760,0,53298,1
1,29741,30713,31810,63233,19,-4616,-905,-264,-12,-13,24,266,526,-144,1,0,42,10,800,0,53298,1
1,29733,30702,31811,63234,30,-4621,-911,-258,-12,-18,35,258,526,-146,1,0,42,10,840,0,53298,1
1,29737,30710,31812,63235,42,-4616,-902,-275,-10,-26,39,261,527,-151,1,0,42,10,880,0,53298,1
1,29735,30711,31824,63236,54,-4621,-897,-269,-21,-16,45,260,520,-140,1,0,42,10,920,0,53298,1
1,29736,30734,31855,63237,66,-4632,-887,-240,-3,3,49,255,523,-137,1,0,42,10,960,0,53298,1
1,29734,30717,31815,63238,0,-4615,-885,-267,-13,36,28,260,524,-150,1,0,42,11,0,0,53298,1
2,29735,30713,31806,63239,39344,-4625,-906,-255,-12,78,-15,260,522,-148,1,0,42,11,40,0,53298,1
2,29731,30719,31825,63240,39356,-4615,-891,-263,-7,142,-41,268,524,-150,1,0,42,11,80,0,53298,1
2,29709,30712,31822,63241,39368,-4613,-905,-263,-3,251,-56,264,516,-148,1,0,42,11,120,0,53298,1
2,29703,30719,31809,63242,39380,-4611,-907,-266,33,387,-92,251,525,-139,1,0,42,11,160,0,53298,1
2,29713,30719,31811,63243,39392,-4615,-902,-286,124,522,-119,258,518,-148,1,0,42,11,200,0,53298,1
2,29696,30715,31816,63244,39406,-4615,-914,-280,226,674,-157,261,525,-147,1,0,42,11,240,0,53298,1
2,29696,30722,31810,63245,39419,-4615,-917,-323,338,808,-199,260,520,-144,1,0,42,11,280,0,53298,1
2,29698,30735,31833,63246,39431,-4608,-920,-340,327,906,-257,251,527,-141,1,0,42,11,320,0,53298,1
2,29696,30736,31831,63247,39444,-4616,-917,-366,335,939,-265,265,519,-159,1,0,42,11,360,0,53298,1
2,29696,30724,31822,63248,39456,-4611,-956,-392,328,898,-245,256,514,-138,1,0,42,11,400,0,53298,1
2,29705,30713,31820,63249,39469,-4601,-947,-416,364,849,-215,260,530,-158,1,0,42,11,440,0,53298,1
2,29700,30617,31821,63250,39481,-4608,-937,-418,424,804,-178,269,521,-165,1,0,42,11,480,0,53298,1
2,29703,30589,31835,63251,39494,-4608,-960,-433,429,767,-151,262,530,-158,1,0,42,11,520,0,53298,1
2,29699,30558,31824,63252,39507,-4599,-981,-455,397,749,-101,255,521,-163,1,0,42,11,560,0,53298,1
2,29693,30406,31813,63253,39520,-4622,-995,-484,469,758,-80,260,534,-154,1,0,42,11,600,0,53298,1
2,29677,30351,31805,63254,39533,-4602,-951,-465,594,799,-96,270,528,-158,1,0,42,11,640,0,53298,1
2,29673,30326,31802,63255,39546,-4589,-954,-499,579,838,-110,257,521,-165,1,0,42,11,680,0,53298,1
2,29686,30062,31821,63256,39559,-4592,-978,-526,532,855,-130,254,530,-168,1,0,42,11,720,0,53298,1
2,29666,29923,31781,63257,39572,-4606,-970,-543,483,830,-158,270,526,-172,1,0,42,11,760,0,53298,1
2,29650,29740,31784,63258,39584,-4576,-981,-571,502,719,-170,268,528,-172,1,0,42,11,800,0,53298,1
2,29647,29733,31765,63259,39596,-4579,-979,-572,324,561,-132,261,533,-163,1,0,42,11,840,0,53298,1
2,29646,29775,31756,63260,39608,-4591,-1002,-612,143,350,-55,262,526,-170,1,0,42,11,880,0,53298,1
2,29660,29782,31755,63261,39620,-4591,-999,-626,47,68,17,253,521,-169,1,0,42,11,920,0,53298,1
2,29650,29764,31765,63262,39632,-4592,-991,-596,-38,-215,87,266,526,-164,1,0,42,11,960,0,53298,1
1,29642,29738,31742,63263,0,-4588,-977,-584,-63,-454,154,261,521,-171,1,0,42,12,0,0,53298,1
2,29648,29741,31727,63264,38892,-4591,-990,-562,-122,-645,194,265,523,-161,1,0,42,12,40,0,53298,1
2,29660,29743,31755,63265,38904,-4603,-973,-531,-126,-817,254,266,522,-166,1,0,42,12,80,0,53298,1
2,29660,29969,31751,63266,38917,-4582,-965,-528,-197,-972,317,264,522,-164,1,0,42,12,120,0,53298,1
2,29657,30091,31737,63267,38930,-4594,-983,-505,-248,-1093,370,253,527,-165,1,0,42,12,160,0,53298,1
2,29680,30220,31747,63268,38942,-4601,-958,-477,-284,-1170,394,255,529,-159,1,0,42,12,200,0,53298,1
2,29695,29743,31780,63269,38955,-4590,-957,-438,-356,-1199,389,251,517,-157,1,0,42,12,240,0,53298,1
2,29705,29838,31783,63270,38969,-4582,-929,-415,-414,-1112,355,259,517,-149,1,0,42,12,280,0,53298,1
2,29715,30109,31799,63271,38982,-4619,-908,-373,-372,-997,297,252,532,-152,1,0,42,12,320,0,53298,1
2,29730,30365,31793,63272,38994,-4592,-935,-356,-262,-886,221,261,523,-153,1,0,42,12,360,0,53298,1
2,29698,30395,31787,63273,39006,-4620,-891,-350,-311,-728,172,258,522,-152,1,0,42,12,400,0,53298,1
2,29707,30375,31801,63274,39018,-4615,-918,-350,-302,-665,126,261,527,-153,1,0,42,12,440,0,53298,1
2,29701,30366,31790,63275,39031,-4596,-910,-361,-360,-677,111,259,521,-147,1,0,42,12,480,0,53298,1
2,29704,30434,31791,63276,39043,-4597,-915,-321,-379,-736,157,257,523,-145,1,0,42,12,520,0,53298,1
2,29711,30413,31796,63277,39055,-4610,-928,-282,-233,-696,279,261,525,-145,1,0,42,12,560,0,53298,1
2,29731,30432,31777,63278,39066,-4605,-900,-259,52,-512,389,255,523,-141,1,0,42,12,600,0,53298,1
2,29713,30441,31768,63279,39078,-4629,-887,-234,157,-256,413,266,524,-140,1,0,42,12,640,0,53298,1
2,29719,30451,31780,63280,39089,-4828,-780,-215,339,-1,517,255,519,-145,1,0,42,12,680,0,53298,1
2,29720,30394,31747,63281,39100,-5782,-619,-1624,-539,-521,1604,246,528,-148,1,0,42,12,720,0,53298,1
2,29771,30877,31743,63282,39113,-6241,596,-2189,2076,-1316,3174,245,523,-151,1,0,42,12,760,0,53298,1
2,30221,34455,31688,63283,39126,-883,10701,-7209,1730,4104,6932,237,533,-165,1,0,42,12,800,0,53298,1
2,30957,30055,31639,63284,39139,-1944,15396,-7210,-18520,18384,29631,181,541,-195,1,0,42,12,840,0,53298,1
2,30995,30807,31616,63285,39153,-15477,1862,-4623,-24313,29319,32767,52,514,-242,1,0,42,12,880,0,53298,1
2,30825,30215,31606,63286,39167,-19432,-4517,133,6207,23597,32767,-55,369,-297,1,0,42,12,920,0,53298,1
2,30818,29784,31719,63287,39180,-7389,-2095,3638,17490,16503,32767,-32,326,-338,1,0,42,12,960,0,53298,1
1,30851,30153,31714,63288,0,-4311,-1239,3007,-4507,2629,3019,-19,319,-309,1,0,42,13,0,1,53298,1
2,30834,30030,31620,63289,38443,-2838,-2373,-454,-23177,-3912,-8028,-1,329,-293,1,0,42,13,40,1,53298,1
2,30821,29899,31534,63290,38454,-569,-1986,-1767,-16038,-4183,-9109,-13,341,-265,1,0,42,13,80,1,53298,1
2,30793,29769,31519,63291,38467,-753,-1166,-1344,3925,-2337,-6323,-2,352,-278,1,0,42,13,120,1,53298,1
2,30785,29773,31550,63292,38479,-2455,-809,-1676,10469,-1187,-5558,9,361,-295,1,0,42,13,160,1,53298,1
2,30750,29747,31566,63293,38491,-3668,1193,-665,20607,-2520,-9504,-3,379,-309,1,0,42,13,200,1,53298,1
2,30774,29832,31623,63294,38502,-5310,2153,294,14198,-6892,-13551,2,404,-326,1,0,42,13,240,1,53298,1
2,30784,29867,31630,63295,38514,-5374,2152,-919,485,-11173,-17299,15,437,-313,1,0,42,13,280,1,53298,1
2,30821,29842,31650,63296,38527,-5354,1893,-1024,-4734,-13051,-19541,39,459,-295,1,0,42,13,320,1,53298,1
2,30840,29779,31635,63297,38538,-5089,2164,-1673,-4389,-13513,-19858,69,491,-275,1,0,42,13,360,1,53298,1
2,30820,29787,31628,63298,38550,-4342,1652,-1439,-1457,-12431,-18281,112,518,-228,1,0,42,13,400,1,53298,1
2,30842,29792,31646,63299,38563,-4982,782,-1224,2656,-10439,-15632,142,526,-214,1,0,42,13,440,1,53298,1
2,30842,29791,31642,63300,38574,-4725,1242,-1161,4323,-9987,-14151,179,525,-185,1,0,42,13,480,1,53298,1
2,30844,29792,31676,63301,38585,-4153,671,-1033,1192,-8525,-13435,206,522,-182,1,0,42,13,520,1,53298,1
2,30816,29887,31639,63302,38597,-4377,171,-955,-3748,-6141,-12460,235,511,-163,1,0,42,13,560,1,53298,1
2,30811,29781,31620,63303,38607,-4373,-366,-901,-4469,-4378,-11565,266,520,-136,1,0,42,13,600,1,53298,1
2,31076,30014,31701,63304,38618,-3444,4619,-4893,-5007,-1111,-9534,285,515,-141,1,0,42,13,640,1,53298,1
2,31183,30687,31795,63305,38629,-8122,4175,-64,7617,3439,-1840,286,514,-144,1,0,42,13,680,1,53298,1
2,30962,30734,31787,63306,38641,-4911,-1633,-100,2374,115,-1009,291,513,-139,1,0,42,13,720,1,53298,1
2,30858,30725,31722,63307,38651,-4093,-1249,-157,-728,-67,-650,283,511,-141,1,0,42,13,760,1,53298,1
2,30833,30725,31741,63308,38662,-3944,-1851,-134,-543,78,-163,286,508,-126,1,0,42,13,800,1,53298,1
2,30906,30714,31765,63309,38673,-5004,-925,-186,-557,904,180,289,515,-145,1,0,42,13,840,1,53298,1
2,30917,30716,31758,63310,38684,-4864,-873,-265,1412,510,324,294,516,-142,1,0,42,13,880,1,53298,1
2,30451,30714,31734,63311,38695,-4460,-1065,-116,763,75,76,280,510,-136,1,0,42,13,920,1,53298,1
2,30628,30706,31724,63312,38706,-4566,-1024,-86,-118,-154,125,283,513,-141,1,0,42,13,960,1,53298,1
1,30559,30708,31750,63313,0,-4713,-1069,-219,-112,-276,100,282,524,-148,1,0,42,14,0,0,53298,1
2,30504,30710,31746,63314,37990,-4634,-1031,-108,429,-364,-2,289,513,-139,1,0,42,14,40,0,53298,1
2,30549,30702,31745,63315,38002,-4575,-1064,-108,238,-412,18,289,519,-129,1,0,42,14,80,0,53298,1
2,30605,30698,31748,63316,38013,-4630,-1053,-89,59,-342,110,285,521,-135,1,0,42,14,120,0,53298,1
2,30586,30709,31769,63317,38023,-4652,-1022,-90,121,-227,107,281,517,-137,1,0,42,14,160,0,53298,1
2,30484,30716,31800,63318,38034,-4610,-1039,-109,28,-185,101,276,518,-130,1,0,42,14,200,0,53298,1
2,30422,30713,31781,63319,38046,-4631,-1050,-104,-26,-231,122,285,513,-143,1,0,42,14,240,0,53298,1
2,30410,30700,31770,63320,38058,-4632,-1049,-91,67,-244,133,281,515,-137,1,0,42,14,280,0,53298,1
2,30389,30704,31778,63321,38070,-4622,-1019,-51,122,-242,124,284,516,-136,1,0,42,14,320,0,53298,1
2,30616,30699,31776,63322,38081,-4638,-1027,-74,8,-228,91,285,519,-141,1,0,42,14,360,0,53298,1
2,30575,30703,31768,63323,38093,-4631,-1027,-74,12,-200,76,285,517,-139,1,0,42,14,400,0,53298,1
2,30583,30709,31778,63324,38105,-4622,-1024,-54,32,-182,71,282,530,-142,1,0,42,14,440,0,53298,1
2,30495,30699,31758,63325,38116,-4616,-1014,-39,-91,-182,58,282,522,-138,1,0,42,14,480,0,53298,1
2,30455,30695,31756,63326,38128,-4632,-1044,-105,-423,-259,59,287,513,-139,1,0,42,14,520,0,53298,1
2,30446,30701,31752,63327,38139,-4586,-1050,-85,-322,-367,109,289,513,-141,1,0,42,14,560,0,53298,1
2,30418,30689,31742,63328,38151,-4617,-1008,-28,-26,-298,106,278,518,-136,1,0,42,14,600,0,53298,1
2,30480,30699,31753,63329,38163,-4617,-1029,-39,73,-174,82,287,523,-131,1,0,42,14,640,0,53298,1
2,30401,30701,31746,63330,38175,-4624,-1006,-52,51,-74,66,280,508,-134,1,0,42,14,680,0,53298,1
2,30385,30697,31756,63331,38187,-4609,-1017,-48,58,17,21,283,521,-139,1,0,42,14,720,0,53298,1
2,30425,30703,31773,63332,38199,-4629,-1021,-50,91,79,5,283,515,-139,1,0,42,14,760,0,53298,1
2,30407,30696,31768,63333,38211,-4616,-1021,-43,58,92,10,279,515,-143,1,0,42,14,800,0,53298,1
2,30421,30708,31790,63334,38223,-4645,-1038,-62,41,92,28,287,511,-141,1,0,42,14,840,0,53298,1
2,30393,30696,31799,63335,38234,-4665,-1020,-36,83,46,78,281,517,-127,1,0,42,14,880,0,53298,1
2,30477,30691,31761,63336,38246,-5102,-747,-422,-659,-90,188,279,505,-131,1,0,42,14,920,0,53298,1
2,30309,30678,31750,63337,38258,-5820,-29,-1442,-1649,-442,833,283,517,-135,1,0,42,14,960,0,53298,1
1,30798,30314,31755,63338,0,-5194,3299,-2763,-1096,-229,3995,271,515,-137,1,0,42,15,0,0,53298,1
2,30837,30606,31723,63339,37541,-1867,12754,-6292,-5843,7580,14927,235,541,-173,1,0,42,15,40,0,53298,1
2,30960,31654,31578,63340,37554,-5508,11044,-4911,-17734,19533,32767,139,553,-215,1,0,42,15,80,0,53298,1
2,30954,31235,31610,63341,37568,-15857,689,-3528,-20593,27132,32767,6,504,-246,1,0,42,15,120,0,53298,1
2,30757,29862,31576,63342,37582,-19042,-2254,355,16087,21282,32767,-49,393,-291,1,0,42,15,160,0,53298,1
2,30770,29870,31657,63343,37594,-5320,-2805,1818,21398,17501,32767,-33,323,-335,1,0,42,15,200,0,53298,1
2,30716,31347,31673,63344,37606,-4992,-2375,4064,2837,5240,7920,-15,319,-339,1,0,42,15,240,0,53298,1
2,30747,29755,31580,63345,37618,-3202,-2739,815,-16564,-2834,-6876,-5,315,-315,1,0,42,15,280,0,53298,1
2,30753,29929,31550,63346,37630,-1231,-2666,-1328,-19575,-5492,-10537,1,331,-299,1,0,42,15,320,0,53298,1
2,30747,32028,31514,63347,37642,-525,-706,-1355,1440,-3982,-10692,6,346,-296,1,0,42,15,360,0,53298,1
2,30725,32230,31524,63348,37654,-1889,225,-867,9137,-3328,-8477,-2,356,-298,1,0,42,15,400,0,53298,1
2,30716,32488,31538,63349,37665,-3171,870,-1106,13409,-4153,-9431,3,379,-317,1,0,42,15,440,0,53298,1
2,30722,32565,31597,63350,37676,-5079,1991,-414,13466,-7242,-13269,11,399,-329,1,0,42,15,480,0,53298,1
2,30731,32051,31594,63351,37688,-6030,1977,-842,1762,-10667,-16629,10,440,-324,1,0,42,15,520,0,53298,1
2,30753,31313,31604,63352,37700,-5774,2350,-1186,-4924,-12842,-20004,27,475,-283,1,0,42,15,560,0,53298,1
2,30776,30897,31598,63353,37712,-5446,1298,-1029,-4835,-13716,-20427,65,499,-265,1,0,42,15,600,0,53298,1
2,30835,30646,31659,63354,37725,-5122,1790,-1737,-1063,-13003,-19574,107,521,-231,1,0,42,15,640,0,53298,1
2,30834,30651,31671,63355,37737,-4641,1554,-1355,3065,-11803,-17042,143,539,-195,1,0,42,15,680,0,53298,1
2,30825,30638,31677,63356,37749,-4988,1030,-1019,4664,-10130,-13884,174,534,-174,1,0,42,15,720,0,53298,1
2,30834,30643,31675,63357,37761,-4678,1200,-1102,3050,-9455,-11820,197,533,-155,1,0,42,15,760,0,53298,1
2,30831,30573,31691,63358,37773,-4346,758,-823,1132,-7653,-9632,224,512,-154,1,0,42,15,800,0,53298,1
2,30848,30566,31688,63359,37785,-4415,438,-835,594,-5385,-7310,235,509,-137,1,0,42,15,840,0,53298,1
2,30856,30710,31701,63360,37798,-4203,403,-730,972,-3679,-5715,247,505,-125,1,0,42,15,880,0,53298,1
2,30837,30635,31685,63361,37810,-4217,578,-507,2544,-1442,-3530,246,498,-114,1,0,42,15,920,0,53298,1
2,30874,30681,31720,63362,37823,-4488,-245,280,1615,-161,-1121,252,500,-120,1,0,42,15,960,0,53298,1
1,30947,30194,31710,63363,0,-5288,-2129,351,-3101,1243,-236,254,500,-126,1,0,42,16,0,0,53298,1
2,31003,30175,31767,63364,37091,-5479,-55,-833,-1944,1109,-1283,260,486,-126,1,0,42,16,40,0,53298,1
2,30728,30099,31732,63365,37102,-4654,-980,85,642,285,-1045,260,498,-126,1,0,42,16,80,0,53298,1
2,30648,29945,31734,63366,37114,-4434,-934,403,856,39,-537,262,506,-120,1,0,42,16,120,0,53298,1
2,30642,29836,31747,63367,37125,-4578,-884,119,716,179,62,262,498,-106,1,0,42,16,160,0,53298,1
2,30741,29959,31750,63368,37137,-4818,-825,15,603,312,356,257,497,-123,1,0,42,16,200,0,53298,1
2,30600,29864,31743,63369,37149,-4617,-846,85,455,301,256,253,493,-123,1,0,42,16,240,0,53298,1
2,30476,30014,31772,63370,37161,-4613,-892,67,278,298,100,259,493,-119,1,0,42,16,280,0,53298,1
2,30476,30037,31775,63371,37173,-4668,-837,58,208,281,-70,261,499,-111,1,0,42,16,320,0,53298,1
2,30435,29774,31766,63372,37185,-4661,-858,52,89,150,-256,259,503,-117,1,0,42,16,360,0,53298,1
2,30573,29785,31787,63373,37197,-4632,-900,66,-96,-10,-330,260,504,-128,1,0,42,16,400,0,53298,1
2,30487,29841,31780,63374,37209,-4627,-921,36,-109,-126,-242,254,490,-126,1,0,42,16,440,0,53298,1
2,30339,29807,31791,63375,37221,-4634,-897,49,-2,-253,-67,257,491,-115,1,0,42,16,480,0,53298,1
2,30362,29929,31776,63376,37233,-4646,-912,62,78,-360,121,257,495,-121,1,0,42,16,520,0,53298,1
2,30399,30061,31778,63377,37245,-4628,-880,94,112,-424,241,253,499,-123,1,0,42,16,560,0,53298,1
2,30249,30412,31761,63378,37256,-4627,-873,108,90,-412,230,261,501,-121,1,0,42,16,600,0,53298,1
2,30209,30296,31752,63379,37267,-4636,-870,121,64,-316,157,248,498,-112,1,0,42,16,640,0,53298,1
2,30232,29891,31787,63380,37278,-4642,-886,116,10,-194,66,255,497,-121,1,0,42,16,680,0,53298,1
2,30285,29751,31796,63381,37289,-4637,-874,104,-22,-108,19,258,496,-124,1,0,42,16,720,0,53298,1
2,30282,29864,31795,63382,37299,-4637,-887,100,-4,-91,21,260,498,-118,1,0,42,16,760,0,53298,1
2,30358,30078,31792,63383,37310,-4630,-895,107,6,-119,60,258,500,-120,1,0,42,16,800,0,53298,1
2,30278,29923,31811,63384,37321,-4626,-884,119,44,-155,124,256,502,-120,1,0,42,16,840,0,53298,1
2,30301,30045,31767,63385,37332,-4630,-858,114,95,-147,147,255,495,-115,1,0,42,16,880,0,53298,1
2,30377,29871,31810,63386,37344,-4641,-865,127,69,-100,110,252,502,-106,1,0,42,16,920,0,53298,1
2,30369,29815,31816,63387,37354,-4620,-864,126,19,-61,77,251,489,-115,1,0,42,16,960,0,53298,1
1,30369,29830,31801,63388,0,-4626,-855,135,9,0,43,257,495,-127,1,0,42,17,0,0,53298,1
2,30255,29822,31815,63389,36640,-4625,-861,124,-7,33,2,259,491,-121,1,0,42,17,40,0,53298,1
2,30248,29822,31829,63390,36651,-4654,-881,110,-29,17,-7,262,490,-104,1,0,42,17,80,0,53298,1
2,30269,29809,31853,63391,36661,-4632,-876,121,-18,-33,19,252,502,-114,1,0,42,17,120,0,53298,1
2,30287,29836,31856,63392,36673,-4629,-877,109,9,-56,58,262,496,-114,1,0,42,17,160,0,53298,1
2,30265,29832,31826,63393,36686,-4624,-871,115,36,-80,80,254,494,-116,1,0,42,17,200,0,53298,1
2,30236,29823,31816,63394,36698,-4644,-882,111,27,-80,77,257,489,-121,1,0,42,17,240,0,53298,1
2,30334,29795,31828,63395,36710,-4697,-798,110,-52,-113,115,254,494,-110,1,0,42,17,280,0,53298,1
2,30386,29828,31834,63396,36721,-4646,-892,34,-923,-294,16,251,501,-115,1,0,42,17,320,0,53298,1
2,30377,29845,31832,63397,36733,-4568,-885,190,-640,-395,121,264,496,-124,1,0,42,17,360,0,53298,1
2,30256,29792,31862,63398,36745,-4787,-695,97,-470,-456,312,249,491,-113,1,0,42,17,400,0,53298,1
2,30270,29784,31840,63399,36756,-4820,-746,-52,-1690,-719,108,252,494,-114,1,0,42,17,440,0,53298,1
2,30210,30156,31818,63400,36767,-5584,-641,-706,-2194,-717,163,264,498,-110,1,0,42,17,480,0,53298,1
2,30253,30682,31800,63401,36778,-5925,62,-1645,1314,229,1545,264,496,-118,1,0,42,17,520,0,53298,1
2,30708,30503,31804,63402,36790,-1793,4460,-3326,6283,3541,4692,243,509,-123,1,0,42,17,560,0,53298,1
2,31015,32162,31790,63403,36802,-1712,10281,-6227,-2444,14534,16451,199,523,-155,1,0,42,17,600,0,53298,1
2,31119,30076,31754,63404,36813,-5093,7452,-3734,-4618,26834,32767,102,546,-200,1,0,42,17,640,0,53298,1
2,31180,30131,31787,63405,36826,-13104,3035,-2424,-6368,31607,32767,-9,489,-277,1,0,42,17,680,0,53298,1
2,31065,29902,31781,63406,36837,-15831,10,-793,630,26936,32767,-46,388,-310,1,0,42,17,720,0,53298,1
2,30994,29775,31798,63407,36849,-5111,-1995,-1234,3121,18450,32767,-53,331,-333,1,0,42,17,760,0,53298,1
2,31002,30627,31803,63408,36860,-4408,-157,1529,6190,11335,12577,-28,306,-338,1,0,42,17,800,0,53298,1
2,31014,30560,31749,63409,36871,-3289,-433,789,-997,2975,2287,-10,300,-334,1,0,42,17,840,0,53298,1
2,31003,30507,31716,63410,36882,-1887,-1246,-653,-8893,-1651,334,-20,304,-316,1,0,42,17,880,0,53298,1
2,30999,30651,31690,63411,36895,-1342,-1476,-837,-2134,-1263,-558,-9,305,-319,1,0,42,17,920,0,53298,1
2,30990,30335,31715,63412,36906,-1965,-529,-290,4041,-1921,-3427,-5,311,-317,1,0,42,17,960,0,53298,1
1,30999,30480,31738,63413,0,-2641,96,-402,3369,-5170,-7044,-14,322,-334,1,0,42,18,0,0,53298,1
2,31061,30459,31779,63414,36190,-3871,257,-846,1105,-8681,-12497,-5,331,-325,1,0,42,18,40,0,53298,1
2,31080,30464,31801,63415,36202,-5071,692,-928,233,-12181,-18724,-10,372,-334,1,0,42,18,80,0,53298,1
2,31099,30390,31805,63416,36215,-5336,1731,-1305,139,-14672,-22981,5,415,-315,1,0,42,18,120,0,53298,1
2,31136,30333,31841,63417,36227,-5073,1977,-1273,362,-15444,-24114,25,455,-289,1,0,42,18,160,0,53298,1
2,31159,30360,31866,63418,36239,-5143,2154,-1691,-425,-15405,-22884,71,491,-257,1,0,42,18,200,0,53298,1
2,31139,30301,31866,63419,36250,-4789,1809,-1461,219,-14568,-21048,101,513,-231,1,0,42,18,240,0,53298,1
2,31162,30330,31889,63420,36262,-5106,1706,-1486,1318,-13142,-18679,145,525,-201,1,0,42,18,280,0,53298,1
2,31173,30333,31896,63421,36273,-4907,1596,-1105,1371,-11699,-16128,183,521,-177,1,0,42,18,320,0,53298,1
2,31166,30308,31894,63422,36285,-5051,1090,-793,282,-10171,-13396,209,509,-143,1,0,42,18,360,0,53298,1
2,31178,30280,31905,63423,36297,-5092,849,-982,-1338,-8777,-10957,237,515,-131,1,0,42,18,400,0,53298,1
2,31167,30288,31892,63424,36309,-4755,365,-942,-289,-6642,-8465,258,498,-120,1,0,42,18,440,0,53298,1
2,31189,30362,31919,63425,36320,-4146,-86,-735,1383,-4180,-5927,263,495,-113,1,0,42,18,480,0,53298,1
2,31185,30161,31901,63426,36330,-4194,1392,-910,2135,-316,-1971,264,490,-110,1,0,42,18,520,0,53298,1
2,31217,30174,31903,63427,36342,-4305,-578,152,-461,752,185,264,500,-116,1,0,42,18,560,0,53298,1
2,31199,29845,31915,63428,36353,-4225,-2233,1431,-818,604,140,269,499,-117,1,0,42,18,600,0,53298,1
2,31185,30515,31927,63429,36364,-3752,-1231,4,-1850,89,-1073,271,499,-121,1,0,42,18,640,0,53298,1
2,31085,29849,31999,63430,36375,-5997,-130,-353,1015,1360,-662,267,497,-105,1,0,42,18,680,0,53298,1
2,30626,30271,32029,63431,36387,-5217,-778,-202,1137,901,-587,264,500,-106,1,0,42,18,720,0,53298,1
2,30251,30233,32014,63432,36399,-4343,-1126,218,-144,907,-1076,274,500,-120,1,0,42,18,760,0,53298,1
2,30316,30368,32023,63433,36412,-4331,-1057,326,-65,841,-587,272,498,-116,1,0,42,18,800,0,53298,1
2,30243,30255,32031,63434,36424,-4776,-1001,0,-384,718,-184,272,496,-120,1,0,42,18,840,0,53298,1
2,30215,30385,32037,63435,36437,-4756,-1001,-1,208,254,-126,270,502,-124,1,0,42,18,880,0,53298,1
2,30116,30091,32035,63436,36449,-4559,-1017,164,246,-128,-82,268,496,-112,1,0,42,18,920,0,53298,1
2,30158,30358,32039,63437,36461,-4600,-1005,138,6,-229,70,271,493,-117,1,0,42,18,960,0,53298,1
1,30139,30310,32045,63438,0,-4660,-992,122,82,-185,88,267,497,-117,1,0,42,19,0,1,53298,1
2,30057,30176,32036,63439,35741,-4608,-977,152,144,-25,-6,274,500,-106,1,0,42,19,40,1,53298,1
2,30083,30234,32020,63440,35753,-4612,-996,141,-83,142,-71,268,498,-112,1,0,42,19,80,1,53298,1
2,29994,30356,32034,63441,35765,-4628,-1002,120,-126,240,-111,271,505,-113,1,0,42,19,120,1,53298,1
2,30046,30422,32030,63442,35778,-4635,-1001,128,-30,272,-153,261,489,-117,1,0,42,19,160,1,53298,1
2,30015,30461,32025,63443,35791,-4613,-1011,120,-80,232,-135,270,490,-110,1,0,42,19,200,1,53298,1
2,29973,30461,32030,63444,35802,-4627,-1024,96,-95,165,-74,266,498,-112,1,0,42,19,240,1,53298,1
2,29985,30524,32034,63445,35814,-4633,-1010,104,-2,88,-38,263,493,-103,1,0,42,19,280,1,53298,1
2,29990,30530,32022,63446,35825,-4625,-1009,105,2,21,-12,276,500,-118,1,0,42,19,320,1,53298,1
2,30046,30577,32017,63447,35835,-4627,-1016,100,-22,-34,16,279,499,-123,1,0,42,19,360,1,53298,1
2,30027,30622,32019,63448,35846,-4626,-1015,101,14,-60,30,274,500,-112,1,0,42,19,400,1,53298,1
2,30010,30631,32014,63449,35857,-4625,-1012,106,6,-62,40,266,504,-124,1,0,42,19,440,1,53298,1
2,30003,30633,32013,63450,35869,-4633,-1017,115,-8,-61,50,276,500,-118,1,0,42,19,480,1,53298,1
2,30012,30631,32006,63451,35881,-4637,-1013,123,16,-54,47,281,495,-115,1,0,42,19,520,1,53298,1
2,29987,30660,32004,63452,35893,-4625,-1014,116,3,-53,36,273,503,-123,1,0,42,19,560,1,53298,1
2,30034,30667,32010,63453,35904,-4610,-1002,114,-7,-57,38,273,505,-121,1,0,42,19,600,1,53298,1
2,30047,30654,32012,63454,35915,-4636,-1022,129,9,-47,39,277,493,-121,1,0,42,19,640,1,53298,1
2,30192,30667,32013,63455,35926,-4634,-1016,112,5,-42,46,278,496,-120,1,0,42,19,680,1,53298,1
2,30064,30679,32011,63456,35936,-4628,-1017,103,-4,-51,46,270,492,-116,1,0,42,19,720,1,53298,1
2,30080,30674,32019,63457,35948,-4627,-1020,122,7,-57,48,277,499,-121,1,0,42,19,760,1,53298,1
2,30104,30673,32020,63458,35959,-4623,-1002,113,-2,-44,52,277,491,-125,1,0,42,19,800,1,53298,1
2,30067,30677,32022,63459,35970,-4632,-1016,132,0,-51,57,279,483,-111,1,0,42,19,840,1,53298,1
2,30202,30689,32015,63460,35981,-4628,-1008,106,-9,-57,56,270,498,-116,1,0,42,19,880,1,53298,1
2,30087,30691,32020,63461,35991,-4631,-1008,132,8,-64,55,271,497,-117,1,0,42,19,920,1,53298,1
2,30105,30692,32023,63462,36002,-4641,-1022,132,2,-67,51,271,493,-111,1,0,42,19,960,1,53298,1
1,29973,30690,32022,63463,0,-4622,-1015,133,-8,-68,44,272,500,-120,1,0,42,20,0,1,53298,1
2,29950,30686,32019,63464,35291,-4635,-1012,119,-14,-66,44,269,503,-119,1,0,42,20,40,1,53298,1
2,29975,30678,32028,63465,35302,-4683,-928,155,-175,-99,36,272,500,-126,1,0,42,20,80,1,53298,1
2,30093,30741,32022,63466,35313,-5774,-148,-881,-4266,-474,-475,276,496,-120,1,0,42,20,120,1,53298,1
2,30061,30868,31994,63467,35325,-8327,-271,-2108,-8421,-888,-606,285,503,-125,1,0,42,20,160,1,53298,1
2,30325,30476,31958,63468,35337,-3527,1625,-2085,5865,1096,4621,277,497,-131,1,0,42,20,200,1,53298,1
2,31134,29852,31944,63469,35349,-805,13732,-7209,-3417,10469,17277,227,521,-161,1,0,42,20,240,1,53298,1
2,31106,29935,31868,63470,35361,-4368,8252,-4125,-14374,24106,32767,138,544,-218,1,0,42,20,280,1,53298,1
2,31176,30294,31920,63471,35372,-14497,1345,-1771,-13372,31836,32767,22,498,-264,1,0,42,20,320,1,53298,1
2,31085,30395,31902,63472,35385,-16106,-501,-97,6032,25058,32767,-31,379,-301,1,0,42,20,360,1,53298,1
2,31006,30516,31833,63473,35397,-5892,-1581,-985,11594,16021,32767,-37,325,-337,1,0,42,20,400,1,53298,1
2,30976,31014,31889,63474,35409,-4353,-1195,1180,10187,10862,16291,-24,304,-334,1,0,42,20,440,1,53298,1
2,30985,31096,31854,63475,35421,-2955,-614,1027,2623,5107,2870,1,297,-345,1,0,42,20,480,1,53298,1
2,30997,30447,31813,63476,35433,-2065,-1050,-75,-6267,81,-1778,3,301,-339,1,0,42,20,520,1,53298,1
2,30999,30696,31794,63477,35444,-1582,-1762,-490,-7065,-2486,-3625,3,303,-321,1,0,42,20,560,1,53298,1
2,30997,30577,31803,63478,35456,-1763,-1230,-342,-1449,-2980,-6600,1,313,-323,1,0,42,20,600,1,53298,1
2,30999,30792,31828,63479,35466,-2671,-47,-175,2836,-5343,-10199,3,317,-331,1,0,42,20,640,1,53298,1
2,31007,31130,31837,63480,35478,-3859,451,-350,2890,-9403,-14905,0,350,-334,1,0,42,20,680,1,53298,1
2,31036,30671,31863,63481,35489,-5263,1070,-544,-223,-13275,-19963,2,390,-328,1,0,42,20,720,1,53298,1
2,31060,30498,31886,63482,35501,-5872,1627,-911,-1127,-15729,-23995,22,424,-312,1,0,42,20,760,1,53298,1
2,31104,29840,31896,63483,35512,-5853,1663,-907,-815,-16738,-25474,47,475,-275,1,0,42,20,800,1,53298,1
2,31146,30006,31942,63484,35525,-5976,2001,-1464,-136,-16929,-24842,82,512,-250,1,0,42,20,840,1,53298,1
2,31161,29910,31948,63485,35538,-5514,1902,-1457,1201,-16312,-22900,136,538,-210,1,0,42,20,880,1,53298,1
2,31150,29887,31963,63486,35551,-5412,1679,-1545,1792,-14716,-20077,185,533,-181,1,0,42,20,920,1,53298,1
2,31147,29859,31968,63487,35563,-5021,1739,-1699,1690,-12219,-16867,215,519,-149,1,0,42,20,960,1,53298,1
1,31129,29859,31962,63488,0,-4428,1310,-1288,1947,-8960,-13520,244,506,-126,1,0,42,21,0,0,53298,1
2,31130,30354,31968,63489,34841,-3977,5190,-4968,79,-3777,-8847,272,504,-120,1,0,42,21,40,0,53298,1
2,31219,30009,32017,63490,34852,-7318,1729,-1699,3125,1911,-1998,265,493,-115,1,0,42,21,80,0,53298,1
2,30815,30377,32042,63491,34864,-5793,-1170,715,529,975,-1732,261,511,-117,1,0,42,21,120,0,53298,1
2,30730,30550,31994,63492,34876,-4385,-840,129,-218,910,-1418,275,505,-123,1,0,42,21,160,0,53298,1
2,30698,30479,31988,63493,34887,-4111,-1443,144,977,879,-705,270,496,-120,1,0,42,21,200,0,53298,1
2,30589,30644,32022,63494,34898,-4814,-715,252,-374,1109,-380,276,498,-126,1,0,42,21,240,0,53298,1
2,30580,30602,32024,63495,34909,-4914,-915,-199,405,744,-140,268,498,-126,1,0,42,21,280,0,53298,1
2,30448,30681,32020,63496,34920,-4597,-987,43,490,454,-166,274,506,-120,1,0,42,21,320,0,53298,1
2,30520,30612,32020,63497,34932,-4554,-964,100,251,309,-100,271,509,-115,1,0,42,21,360,0,53298,1
2,30507,30657,32039,63498,34944,-4658,-990,-30,139,297,-98,268,508,-124,1,0,42,21,400,0,53298,1
2,30555,30626,32039,63499,34956,-4677,-913,42,374,231,-146,273,495,-121,1,0,42,21,440,0,53298,1
2,30338,30555,32038,63500,34967,-4600,-972,26,106,199,-200,267,507,-127,1,0,42,21,480,0,53298,1
2,30248,30570,32034,63501,34979,-4621,-986,6,19,192,-183,268,506,-118,1,0,42,21,520,0,53298,1
2,30250,30587,32042,63502,34990,-4650,-976,19,107,213,-177,271,497,-131,1,0,42,21,560,0,53298,1
2,30232,30587,32048,63503,35002,-4637,-986,11,57,216,-195,271,509,-135,1,0,42,21,600,0,53298,1
2,30163,30588,32050,63504,35015,-4617,-1001,-1,-30,180,-150,277,503,-121,1,0,42,21,640,0,53298,1
2,30235,30615,32061,63505,35026,-4624,-999,-18,0,148,-121,275,509,-117,1,0,42,21,680,0,53298,1
2,30242,30639,32064,63506,35038,-4635,-1008,7,37,128,-84,281,507,-127,1,0,42,21,720,0,53298,1
2,30184,30637,32065,63507,35049,-4613,-989,-7,11,136,-54,281,501,-133,1,0,42,21,760,0,53298,1
2,30312,30667,32069,63508,35060,-4621,-1007,-33,-24,126,-23,278,514,-132,1,0,42,21,800,0,53298,1
2,30370,30695,32077,63509,35072,-4636,-1000,-30,14,103,-13,273,509,-119,1,0,42,21,840,0,53298,1
2,30287,30711,32071,63510,35084,-4635,-1006,-30,16,57,-15,275,507,-135,1,0,42,21,880,0,53298,1
2,30238,30708,32073,63511,35095,-4643,-1020,-29,-15,-19,15,270,506,-134,1,0,42,21,920,0,53298,1
2,30155,30733,32075,63512,35107,-4627,-1012,-19,12,-71,32,279,505,-133,1,0,42,21,960,0,53298,1
1,30115,30737,32081,63513,0,-4628,-1014,-12,19,-92,47,270,514,-134,1,0,42,22,0,1,53298,1
2,30122,30723,32087,63514,34392,-4629,-1006,-4,18,-69,43,280,510,-132,1,0,42,22,40,1,53298,1
2,30138,30727,32080,63515,34402,-4631,-1001,-6,-2,-34,31,270,498,-142,1,0,42,22,80,1,53298,1
2,30083,30703,32077,63516,34414,-4635,-994,-12,-6,-10,16,274,506,-126,1,0,42,22,120,1,53298,1
2,30045,30697,32082,63517,34425,-4653,-1012,-5,-11,-13,25,277,505,-131,1,0,42,22,160,1,53298,1
2,30058,30699,32087,63518,34437,-4630,-1009,-15,-1,-32,29,276,500,-132,1,0,42,22,200,1,53298,1
2,30025,30700,32088,63519,34449,-4620,-995,-13,0,-28,34,279,505,-129,1,0,42,22,240,1,53298,1
2,30092,30683,32073,63520,34460,-4615,-986,-2,-6,-24,32,281,507,-127,1,0,42,22,280,1,53298,1
2,30099,30681,32077,63521,34471,-4632,-1012,-10,-4,-12,20,265,509,-121,1,0,42,22,320,1,53298,1
2,30190,30670,32084,63522,34483,-4637,-1005,-13,-13,-14,15,277,511,-131,1,0,42,22,360,1,53298,1
2,30214,30681,32081,63523,34495,-4621,-997,-26,-10,-25,23,279,501,-127,1,0,42,22,400,1,53298,1
2,30283,30668,32077,63524,34507,-4631,-1010,-14,4,-31,33,276,498,-124,1,0,42,22,440,1,53298,1
2,30273,30677,32071,63525,34518,-4624,-1006,-14,-4,-30,32,264,502,-126,1,0,42,22,480,1,53298,1
2,30157,30655,32062,63526,34530,-4629,-1014,-16,-7,-17,43,275,501,-129,1,0,42,22,520,1,53298,1
2,30176,30653,32063,63527,34541,-4632,-1001,-19,5,-47,42,268,498,-124,1,0,42,22,560,1,53298,1
2,30087,30659,32069,63528,34552,-4628,-998,-18,3,-48,35,262,498,-110,1,0,42,22,600,1,53298,1
2,30071,30630,32073,63529,34565,-4623,-1010,-2,7,-65,43,273,507,-135,1,0,42,22,640,1,53298,1
2,30079,30627,32067,63530,34577,-4629,-997,5,11,-57,55,275,509,-123,1,0,42,22,680,1,53298,1
2,30096,30652,32070,63531,34588,-4638,-1012,-12,9,-37,62,282,504,-128,1,0,42,22,720,1,53298,1
2,30051,30655,32076,63532,34600,-4614,-978,-5,4,-78,70,278,504,-130,1,0,42,22,760,1,53298,1
2,30065,30665,32085,63533,34612,-4630,-1012,-16,4,-82,70,276,502,-128,1,0,42,22,800,1,53298,1
2,30070,30672,32081,63534,34624,-4625,-999,-6,20,-98,74,268,506,-134,1,0,42,22,840,1,53298,1
2,30096,30671,32078,63535,34636,-4627,-993,10,22,-111,69,278,508,-128,1,0,42,22,880,1,53298,1
2,30118,30681,32078,63536,34648,-4631,-1002,-9,-51,-127,85,273,501,-127,1,0,42,22,920,1,53298,1
2,30140,30677,32080,63537,34661,-4619,-995,4,-56,-199,117,270,496,-120,1,0,42,22,960,1,53298,1
1,30184,30691,32078,63538,0,-4939,-758,-88,-94,-306,259,275,511,-129,1,0,42,23,0,1,53298,1
2,30237,30772,32065,63539,33944,-5889,-457,-1586,-3349,-571,563,273,509,-121,1,0,42,23,40,1,53298,1
2,30358,30396,32043,63540,33955,-5695,945,-1788,1399,109,3451,269,517,-133,1,0,42,23,80,1,53298,1
2,30830,30565,32035,63541,33967,-1627,8085,-3985,5244,5450,10094,246,518,-140,1,0,42,23,120,1,53298,1
2,31126,30620,32005,63542,33979,-4120,8588,-5345,-11552,18121,25606,191,541,-177,1,0,42,23,160,1,53298,1
2,31129,29990,31963,63543,33992,-7163,5984,-3463,-6733,26817,32767,55,521,-235,1,0,42,23,200,1,53298,1
2,31120,29901,31982,63544,34004,-15441,2672,-1742,-3673,29215,32767,-26,434,-284,1,0,42,23,240,1,53298,1
2,31032,30353,31955,63545,34017,-13587,-1649,-1329,-2673,22922,32767,-41,345,-305,1,0,42,23,280,1,53298,1
2,30962,30053,31928,63546,34029,-4364,-1895,-801,4565,16501,29058,-26,306,-322,1,0,42,23,320,1,53298,1
2,30967,29985,31918,63547,34042,-3838,-415,977,6673,10819,10863,-17,287,-333,1,0,42,23,360,1,53298,1
2,30971,30341,31900,63548,34054,-2702,-1006,542,-49,4067,3266,-3,287,-335,1,0,42,23,400,1,53298,1
2,30982,30281,31873,63549,34066,-1308,-2128,-329,-3711,253,1021,13,285,-329,1,0,42,23,440,1,53298,1
2,30991,30161,31882,63550,34078,-1538,-1757,126,-354,-280,-2594,-4,302,-322,1,0,42,23,480,1,53298,1
2,30993,30104,31910,63551,34089,-2269,-601,706,3957,-3331,-7385,-1,303,-335,1,0,42,23,520,1,53298,1
2,30978,30060,31908,63552,34101,-3137,127,178,2209,-9182,-13006,11,321,-337,1,0,42,23,560,1,53298,1
2,31012,30146,31940,63553,34112,-4514,496,-570,-3120,-13790,-18968,-2,344,-324,1,0,42,23,600,1,53298,1
2,31037,30167,31963,63554,34124,-5062,1303,-1264,-3489,-15978,-24081,2,390,-310,1,0,42,23,640,1,53298,1
2,31062,30293,31975,63555,34136,-5181,1787,-1360,-109,-16497,-26534,10,430,-298,1,0,42,23,680,1,53298,1
2,31060,30267,31976,63556,34148,-5466,2080,-1369,2583,-16421,-26073,52,476,-278,1,0,42,23,720,1,53298,1
2,31093,30295,32011,63557,34161,-5792,2423,-1363,2020,-16469,-24271,92,514,-252,1,0,42,23,760,1,53298,1
2,31108,30331,32017,63558,34174,-5817,2147,-1265,406,-15868,-21802,133,537,-195,1,0,42,23,800,1,53298,1
2,31115,30317,32025,63559,34186,-5773,1971,-1544,-1739,-14200,-18920,168,540,-152,1,0,42,23,840,1,53298,1
2,31113,30323,32024,63560,34199,-5136,1667,-1566,-1681,-11363,-16051,220,528,-132,1,0,42,23,880,1,53298,1
2,31129,30285,32032,63561,34211,-4461,1090,-1152,-5,-7826,-12790,245,519,-123,1,0,42,23,920,1,53298,1
2,31119,29885,32044,63562,34222,-6707,2373,-3100,89,-501,-6324,259,509,-123,1,0,42,23,960,1,53298,1
1,31045,30454,32050,63563,0,-5802,-1045,112,5151,600,-1083,247,511,-125,1,0,42,24,0,0,53298,1
2,30946,30578,32045,63564,33494,-4440,-1465,727,-757,1223,-1132,264,510,-128,1,0,42,24,40,0,53298,1
2,30801,29833,32042,63565,33505,-4204,-582,252,515,872,-981,261,515,-129,1,0,42,24,80,0,53298,1
2,30850,29881,32053,63566,33516,-4546,-776,12,330,895,-314,252,514,-122,1,0,42,24,120,0,53298,1
2,30824,30170,32080,63567,33527,-5011,-659,-101,37,929,-131,255,527,-115,1,0,42,24,160,0,53298,1
2,30778,30283,32068,63568,33538,-4598,-902,-95,269,606,-288,265,509,-129,1,0,42,24,200,0,53298,1
2,30804,29828,32032,63569,33549,-4596,-797,35,354,336,-165,253,513,-111,1,0,42,24,240,0,53298,1
2,30746,29895,32053,63570,33560,-4659,-805,-36,132,222,-105,253,519,-121,1,0,42,24,280,0,53298,1
2,30711,29949,32058,63571,33571,-4665,-810,-20,264,103,-83,260,516,-124,1,0,42,24,320,0,53298,1
2,30723,29995,32064,63572,33582,-4625,-824,6,176,101,-41,247,521,-127,1,0,42,24,360,0,53298,1
2,30682,29829,32055,63573,33593,-4635,-839,-9,22,120,-14,258,512,-122,1,0,42,24,400,0,53298,1
2,30677,30113,32055,63574,33604,-4653,-815,-32,101,171,-50,260,518,-120,1,0,42,24,440,0,53298,1
2,30730,30000,32056,63575,33616,-4634,-805,-26,109,213,-114,248,504,-122,1,0,42,24,480,0,53298,1
2,30655,29849,32045,63576,33627,-4646,-831,-39,-21,173,-161,263,513,-135,1,0,42,24,520,0,53298,1
2,30623,29850,32034,63577,33638,-4636,-847,-47,-74,116,-155,263,521,-135,1,0,42,24,560,0,53298,1
2,30634,29818,32053,63578,33649,-4646,-852,-47,-2,67,-105,265,517,-131,1,0,42,24,600,0,53298,1
2,30557,29811,32061,63579,33659,-4641,-846,-38,36,54,-47,248,520,-136,1,0,42,24,640,0,53298,1
2,30558,29910,32056,63580,33670,-4630,-842,-37,-5,43,9,261,511,-125,1,0,42,24,680,0,53298,1
2,30603,30153,32061,63581,33681,-4648,-848,-32,15,21,76,259,517,-127,1,0,42,24,720,0,53298,1
2,30647,30293,32064,63582,33692,-4637,-823,-38,58,6,107,252,518,-130,1,0,42,24,760,0,53298,1
2,30672,30549,32063,63583,33704,-4651,-842,-50,71,-13,136,258,514,-126,1,0,42,24,800,0,53298,1
2,30697,30529,32067,63584,33715,-4637,-843,-38,89,-8,142,257,511,-133,1,0,42,24,840,0,53298,1
2,30682,30558,32065,63585,33726,-4635,-812,-28,125,26,135,252,514,-122,1,0,42,24,880,0,53298,1
2,30717,30592,32068,63586,33738,-4622,-817,-25,114,119,78,262,514,-120,1,0,42,24,920,0,53298,1
2,30716,30524,32065,63587,33749,-4633,-815,-46,83,198,16,256,514,-120,1,0,42,24,960,0,53298,1
1,30726,30489,32062,63588,0,-4632,-823,-65,73,235,-58,252,520,-122,1,0,42,25,0,1,53298,1
2,30718,30527,32076,63589,33045,-4636,-837,-74,49,268,-96,258,516,-134,1,0,42,25,40,1,53298,1
2,30674,30570,32073,63590,33057,-4637,-835,-63,64,296,-116,257,509,-125,1,0,42,25,80,1,53298,1
2,30701,30598,32084,63591,33069,-4636,-845,-87,65,293,-108,256,510,-134,1,0,42,25,120,1,53298,1
2,30679,30564,32088,63592,33080,-4636,-848,-86,41,238,-66,254,520,-134,1,0,42,25,160,1,53298,1
2,30698,30515,32082,63593,33091,-4622,-835,-96,47,160,-17,255,515,-131,1,0,42,25,200,1,53298,1
2,30660,30521,32077,63594,33103,-4635,-845,-111,36,76,18,254,516,-132,1,0,42,25,240,1,53298,1
2,30678,30543,32080,63595,33115,-4638,-842,-109,14,-17,22,259,509,-135,1,0,42,25,280,1,53298,1
2,30678,30517,32080,63596,33127,-4616,-832,-83,-1,-53,15,261,517,-131,1,0,42,25,320,1,53298,1
2,30644,30485,32079,63597,33139,-4643,-840,-81,-8,-36,11,257,517,-129,1,0,42,25,360,1,53298,1
2,30615,30471,32079,63598,33151,-4639,-825,-79,-6,-16,27,257,513,-131,1,0,42,25,400,1,53298,1
2,30623,30418,32080,63599,33162,-4638,-829,-83,-19,-11,21,252,520,-126,1,0,42,25,440,1,53298,1
2,30632,30312,32077,63600,33173,-4633,-851,-85,-23,-18,19,262,520,-126,1,0,42,25,480,1,53298,1
2,30611,30408,32070,63601,33184,-4639,-833,-71,0,-24,24,260,512,-130,1,0,42,25,520,1,53298,1
2,30662,30236,32067,63602,33197,-4636,-844,-73,-2,-38,15,263,515,-135,1,0,42,25,560,1,53298,1
2,30683,30326,32074,63603,33208,-4633,-844,-82,-7,-32,21,260,516,-132,1,0,42,25,600,1,53298,1
2,30683,30326,32062,63604,33221,-4642,-835,-74,4,-62,36,255,519,-123,1,0,42,25,640,1,53298,1
2,30623,30266,32060,63605,33232,-4632,-853,-96,-11,-109,37,258,518,-128,1,0,42,25,680,1,53298,1
2,30655,30291,32067,63606,33244,-4657,-839,-74,-37,-164,74,256,512,-134,1,0,42,25,720,1,53298,1
2,30653,30286,32057,63607,33255,-4628,-865,-100,-57,-220,111,261,517,-137,1,0,42,25,760,1,53298,1
2,30601,30299,32057,63608,33267,-4839,-601,105,-305,-298,136,263,521,-129,1,0,42,25,800,1,53298,1
2,30623,30426,32064,63609,33278,-5081,-449,-198,-2705,-703,21,258,520,-126,1,0,42,25,840,1,53298,1
2,30614,30470,32038,63610,33290,-5514,-449,38,-2326,-1114,742,263,511,-131,1,0,42,25,880,1,53298,1
2,30665,30456,31987,63611,33302,-5836,-908,166,-409,-2020,2703,256,518,-128,1,0,42,25,920,1,53298,1
2,30665,30597,31970,63612,33315,-5977,-3082,1409,3115,-3754,2684,245,509,-121,1,0,42,25,960,1,53298,1
1,30660,30584,31970,63613,0,-5997,-2327,1427,1426,-3784,-2045,258,490,-132,1,0,42,26,0,1,53298,1
2,30661,30577,31979,63614,32597,-5362,-573,-193,-3052,-5640,-5239,273,477,-131,1,0,42,26,40,1,53298,1
2,30652,30021,31974,63615,32609,-2917,3312,-3326,-3955,-5109,-3981,282,468,-126,1,0,42,26,80,1,53298,1
2,30816,30062,31974,63616,32622,-765,8842,-5495,-5244,4606,5167,273,467,-163,1,0,42,26,120,1,53298,1
2,30948,30040,31937,63617,32635,-2086,9942,-5959,-6182,18173,23210,239,501,-177,1,0,42,26,160,1,53298,1
2,30899,30042,31910,63618,32648,-6053,6001,-3927,-2184,29057,32767,135,515,-225,1,0,42,26,200,1,53298,1
2,30891,29910,31957,63619,32661,-13205,2967,-961,10871,32767,32767,15,437,-305,1,0,42,26,240,1,53298,1
2,30831,29975,31964,63620,32674,-17572,1034,-325,10115,29436,32767,-27,355,-335,1,0,42,26,280,1,53298,1
2,31079,29913,31902,63621,32687,-6661,-4506,-1268,-2619,18078,32767,-28,308,-332,1,0,42,26,320,1,53298,1
2,30566,29755,31375,63622,32699,-4221,-105,2100,-3937,10607,8640,-13,301,-341,1,0,42,26,360,1,53298,1
2,30575,30058,31303,63623,32710,-2961,-766,551,-13460,-1072,-3984,-12,306,-310,1,0,42,26,400,1,53298,1
2,30614,29797,31293,63624,32722,-1377,-2178,-1440,-15188,-5597,-7140,-6,306,-296,1,0,42,26,440,1,53298,1
2,30677,29706,31357,63625,32733,-1220,-609,-1271,2223,-3230,-8260,-1,323,-295,1,0,42,26,480,1,53298,1
2,30716,29691,31427,63626,32744,-1621,1118,-95,9879,-1546,-7267,-3,331,-319,1,0,42,26,520,1,53298,1
2,30707,29802,31434,63627,32754,-2526,1280,76,5778,-3401,-6636,-4,346,-326,1,0,42,26,560,1,53298,1
2,30737,29783,31449,63628,32765,-3839,735,-874,-460,-6563,-9401,-9,361,-313,1,0,42,26,600,1,53298,1
2,30787,29792,31544,63629,32776,-5292,1134,-818,758,-9459,-14908,-12,382,-318,1,0,42,26,640,1,53298,1
2,30970,29858,31659,63630,32787,-5762,2080,-1103,982,-12656,-20086,7,421,-307,1,0,42,26,680,1,53298,1
2,31270,29966,31993,63631,32799,-5240,2184,-1196,201,-14422,-22415,22,468,-292,1,0,42,26,720,1,53298,1
2,31292,29948,32004,63632,32811,-5284,2152,-1550,207,-14049,-21757,62,496,-250,1,0,42,26,760,1,53298,1
2,31317,29930,32013,63633,32823,-4822,2032,-1405,623,-12968,-19866,107,521,-221,1,0,42,26,800,1,53298,1
2,31340,29949,32037,63634,32834,-5102,1261,-672,2327,-11548,-17190,141,533,-193,1,0,42,26,840,1,53298,1
2,31325,30005,32034,63635,32847,-5163,1374,-857,1044,-11642,-15467,172,524,-166,1,0,42,26,880,1,53298,1
2,31300,30229,32012,63636,32859,-4713,1130,-1182,223,-10692,-14126,209,515,-137,1,0,42,26,920,1,53298,1
2,31230,30090,31967,63637,32871,-4192,830,-951,773,-8706,-12153,225,505,-125,1,0,42,26,960,1,53298,1
1,31219,32274,31991,63638,0,-232,-946,-2362,3549,-6868,-10326,242,498,-110,1,0,42,27,0,1,53298,1
2,31235,30763,32070,63639,32146,-1748,3422,-192,2229,3059,-3562,253,505,-121,1,0,42,27,40,1,53298,1
2,30665,30851,32155,63640,32157,-8038,-380,1163,-3355,2503,-525,250,508,-116,1,0,42,27,80,1,53298,1
2,30439,30924,32117,63641,32169,-4043,-998,-426,-746,1374,-1781,248,506,-124,1,0,42,27,120,1,53298,1
2,30321,30916,32069,63642,32180,-4031,-968,28,600,1008,-1821,264,510,-126,1,0,42,27,160,1,53298,1
2,30211,30915,32088,63643,32190,-4251,-876,492,344,1012,-838,252,510,-124,1,0,42,27,200,1,53298,1
2,30244,30921,32107,63644,32201,-4990,-838,-188,-350,939,-303,265,503,-125,1,0,42,27,240,1,53298,1
2,30128,30919,32107,63645,32212,-4731,-898,-154,351,457,-272,256,510,-116,1,0,42,27,280,1,53298,1
2,30134,30919,32100,63646,32223,-4526,-879,142,260,121,-190,262,512,-128,1,0,42,27,320,1,53298,1
2,30170,30923,32106,63647,32234,-4608,-896,5,-139,167,-67,260,500,-116,1,0,42,27,360,1,53298,1
2,30185,30926,32118,63648,32244,-4682,-858,5,-4,281,-117,268,504,-136,1,0,42,27,400,1,53298,1
2,30204,30929,32125,63649,32255,-4628,-857,9,107,412,-274,275,507,-121,1,0,42,27,440,1,53298,1
2,30192,30938,32126,63650,32266,-4611,-890,19,-174,537,-377,262,504,-136,1,0,42,27,480,1,53298,1
2,30194,30933,32121,63651,32277,-4637,-898,-26,-261,573,-393,264,502,-134,1,0,42,27,520,1,53298,1
2,30087,30936,32122,63652,32288,-4650,-924,-56,-61,542,-408,255,503,-121,1,0,42,27,560,1,53298,1
2,30111,30936,32117,63653,32298,-4640,-913,-48,27,440,-381,262,510,-120,1,0,42,27,600,1,53298,1
2,29998,30935,32118,63654,32308,-4643,-955,-54,-82,349,-285,262,512,-136,1,0,42,27,640,1,53298,1
2,30054,30940,32119,63655,32319,-4622,-946,-59,-65,251,-170,270,506,-124,1,0,42,27,680,1,53298,1
2,30038,30941,32127,63656,32330,-4643,-942,-66,29,193,-79,257,511,-127,1,0,42,27,720,1,53298,1
2,30036,30941,32131,63657,32340,-4626,-924,-62,55,153,-24,260,506,-126,1,0,42,27,760,1,53298,1
2,29973,30931,32129,63658,32350,-4634,-939,-79,7,116,-14,263,509,-135,1,0,42,27,800,1,53298,1
2,29920,30935,32133,63659,32361,-4631,-934,-68,-4,82,-33,269,509,-139,1,0,42,27,840,1,53298,1
2,29998,30933,32127,63660,32372,-4631,-950,-60,-1,73,-44,269,511,-129,1,0,42,27,880,1,53298,1
2,29988,30928,32127,63661,32381,-4622,-938,-71,-32,60,-48,271,501,-131,1,0,42,27,920,1,53298,1
2,29987,30927,32125,63662,32392,-4622,-943,-68,-34,51,-24,273,509,-133,1,0,42,27,960,1,53298,1
1,29948,30924,32120,63663,0,-4630,-955,-65,-22,58,39,269,505,-131,1,0,42,28,0,0,53298,1
2,29985,30920,32114,63664,31699,-4643,-939,-87,6,70,44,265,511,-123,1,0,42,28,40,0,53298,1
2,29975,30925,32125,63665,31710,-4635,-936,-75,-1,67,-22,260,504,-128,1,0,42,28,80,0,53298,1
2,29944,30921,32126,63666,31721,-4622,-942,-71,-28,51,-86,269,507,-133,1,0,42,28,120,0,53298,1
2,30049,30923,32123,63667,31731,-4626,-963,-82,-48,46,-105,260,506,-126,1,0,42,28,160,0,53298,1
2,30000,30925,32122,63668,31741,-4633,-963,-69,-32,42,-70,257,497,-135,1,0,42,28,200,0,53298,1
2,29973,30926,32124,63669,31752,-4630,-958,-76,-3,28,4,267,507,-135,1,0,42,28,240,0,53298,1
2,30010,30918,32112,63670,31763,-4631,-951,-91,9,25,67,264,512,-138,1,0,42,28,280,0,53298,1
2,30019,30920,32111,63671,31772,-4633,-939,-76,16,29,84,262,506,-140,1,0,42,28,320,0,53298,1
2,30019,30919,32112,63672,31782,-4633,-939,-86,17,43,66,266,500,-134,1,0,42,28,360,0,53298,1
2,30064,30922,32120,63673,31793,-4619,-945,-85,-17,41,1,265,509,-135,1,0,42,28,400,0,53298,1
2,30029,30921,32116,63674,31804,-4633,-955,-85,-35,9,-18,261,513,-131,1,0,42,28,440,0,53298,1
2,30046,30920,32115,63675,31815,-4629,-955,-97,-18,-13,-13,261,501,-123,1,0,42,28,480,0,53298,1
2,29995,30920,32114,63676,31827,-4634,-960,-69,-9,-9,-20,259,511,-129,1,0,42,28,520,0,53298,1
2,29956,30915,32106,63677,31838,-4632,-946,-67,-17,18,-15,275,509,-137,1,0,42,28,560,0,53298,1
2,29967,30919,32109,63678,31849,-4637,-964,-91,-17,50,-5,274,508,-128,1,0,42,28,600,0,53298,1
2,29975,30924,32123,63679,31860,-4631,-947,-103,-1,53,-3,266,502,-138,1,0,42,28,640,0,53298,1
2,29953,30921,32108,63680,31871,-4647,-966,-100,-7,47,19,273,513,-139,1,0,42,28,680,0,53298,1
2,29970,30920,32118,63681,31882,-4632,-957,-108,-2,13,23,270,504,-134,1,0,42,28,720,0,53298,1
2,29995,30920,32117,63682,31893,-4633,-953,-95,2,-9,20,279,507,-133,1,0,42,28,760,0,53298,1
2,29992,30916,32106,63683,31904,-4646,-967,-97,0,-29,19,272,502,-142,1,0,42,28,800,0,53298,1
2,30000,30912,32103,63684,31915,-4625,-963,-90,-7,-30,31,266,510,-138,1,0,42,28,840,0,53298,1
2,30005,30915,32117,63685,31926,-4630,-942,-89,-5,-39,16,270,508,-142,1,0,42,28,880,0,53298,1
2,29994,30915,32110,63686,31937,-4642,-958,-90,-7,-30,38,264,510,-142,1,0,42,28,920,0,53298,1
2,29969,30918,32120,63687,31948,-4644,-959,-82,3,-25,54,256,496,-126,1,0,42,28,960,0,53298,1
1,29988,30919,32127,63688,0,-4619,-940,-93,12,-23,53,263,511,-129,1,0,42,29,0,1,53298,1
2,29965,30921,32115,63689,31250,-4651,-962,-87,-10,-20,24,269,507,-131,1,0,42,29,40,1,53298,1
2,30002,30922,32123,63690,31261,-4632,-956,-76,-19,-20,4,261,503,-141,1,0,42,29,80,1,53298,1
2,30035,30919,32117,63691,31272,-4624,-947,-91,-7,4,15,267,509,-129,1,0,42,29,120,1,53298,1
2,30064,30922,32120,63692,31284,-4621,-960,-87,-10,22,25,261,511,-131,1,0,42,29,160,1,53298,1
2,30065,30921,32124,63693,31295,-4638,-959,-94,-8,31,29,265,503,-129,1,0,42,29,200,1,53298,1
2,30095,30924,32130,63694,31306,-4634,-954,-111,11,3,35,262,504,-140,1,0,42,29,240,1,53298,1
2,30089,30923,32123,63695,31317,-4633,-960,-110,22,-45,37,269,501,-133,1,0,42,29,280,1,53298,1
2,30110,30925,32124,63696,31329,-4647,-958,-70,18,-90,58,263,509,-133,1,0,42,29,320,1,53298,1
2,30128,30921,32120,63697,31339,-4646,-954,-99,74,-150,83,261,505,-135,1,0,42,29,360,1,53298,1
2,30166,30923,32119,63698,31351,-4695,-946,-66,139,-211,157,264,498,-132,1,0,42,29,400,1,53298,1
2,30269,30925,32115,63699,31362,-4750,-830,-178,-545,-365,175,268,502,-124,1,0,42,29,440,1,53298,1
2,30247,30928,32107,63700,31373,-4556,-1052,-71,-1134,-708,180,267,511,-135,1,0,42,29,480,1,53298,1
2,30254,30930,32104,63701,31384,-4550,-1008,-140,-440,-851,501,275,507,-131,1,0,42,29,520,1,53298,1
2,30220,30929,32108,63702,31396,-4565,-982,-62,527,-879,689,266,504,-124,1,0,42,29,560,1,53298,1
2,30245,30931,32117,63703,31407,-4604,-865,44,1069,-841,735,266,508,-134,1,0,42,29,600,1,53298,1
2,30239,30932,32121,63704,31419,-4631,-865,13,964,-741,649,259,505,-125,1,0,42,29,640,1,53298,1
2,30190,30931,32119,63705,31430,-4631,-845,81,548,-553,423,255,509,-121,1,0,42,29,680,1,53298,1
2,30217,30927,32117,63706,31441,-4643,-865,78,228,-285,210,262,508,-132,1,0,42,29,720,1,53298,1
2,30230,30926,32115,63707,31452,-4639,-835,46,142,-70,79,258,508,-128,1,0,42,29,760,1,53298,1
2,30047,30926,32120,63708,31463,-4636,-852,44,38,60,-26,262,502,-132,1,0,42,29,800,1,53298,1
2,30059,30928,32118,63709,31473,-4653,-877,4,-64,72,-4,258,500,-116,1,0,42,29,840,1,53298,1
2,30067,30923,32112,63710,31484,-4720,-845,50,-79,-44,59,260,508,-116,1,0,42,29,880,1,53298,1
2,30088,30925,32105,63711,31495,-4893,-763,-73,-1681,-358,-31,266,502,-122,1,0,42,29,920,1,53298,1
2,30140,30930,32091,63712,31505,-5146,-843,64,-2707,-919,144,263,505,-123,1,0,42,29,960,1,53298,1
1,30209,30930,32078,63713,0,-6168,-921,922,-2667,-2340,926,265,499,-127,1,0,42,30,0,1,53298,1
2,30300,30952,32071,63714,30803,-6369,-3844,2301,-6535,-5179,-371,270,494,-128,1,0,42,30,40,1,53298,1
2,30334,30736,32067,63715,30816,-6080,-2905,-196,-14341,-7798,-5015,287,473,-125,1,0,42,30,80,1,53298,1
2,30260,30431,32088,63716,30829,-2909,1876,-3338,-5906,-7369,-8112,309,465,-135,1,0,42,30,120,1,53298,1
2,30426,30318,32042,63717,30840,-1612,3395,-3388,-366,2239,2891,298,468,-138,1,0,42,30,160,1,53298,1
2,30555,30393,32037,63718,30852,-1524,7728,-3497,8787,10989,11504,281,483,-153,1,0,42,30,200,1,53298,1
2,30633,30403,32020,63719,30863,-3634,7052,-3749,-3949,21086,27551,220,502,-200,1,0,42,30,240,1,53298,1
2,30641,30409,32010,63720,30874,-5699,5634,-3051,2507,27884,32767,114,522,-244,1,0,42,30,280,1,53298,1
2,30639,30467,32054,63721,30885,-11729,3283,-1118,8639,31314,32767,-2,448,-328,1,0,42,30,320,1,53298,1
2,30582,30186,32037,63722,30897,-15471,1284,-311,4733,28077,32767,-29,353,-337,1,0,42,30,360,1,53298,1
2,30507,30101,31992,63723,30908,-6996,-3288,-2099,-5128,18440,32767,-34,318,-330,1,0,42,30,400,1,53298,1
2,30442,30020,32005,63724,30919,-3783,-1782,1504,-3649,10147,10967,-14,294,-332,1,0,42,30,440,1,53298,1
2,30441,29960,31948,63725,30929,-2623,-1008,914,-3346,1282,-3685,-2,298,-324,1,0,42,30,480,1,53298,1
2,30459,29876,31930,63726,30941,-2078,-1684,-405,-6663,-5003,-7786,-6,320,-316,1,0,42,30,520,1,53298,1
2,30474,29879,31941,63727,30952,-1783,-1315,-655,1214,-4928,-9528,-3,325,-325,1,0,42,30,560,1,53298,1
2,30501,30048,31966,63728,30963,-2472,469,137,6242,-4439,-10613,1,339,-341,1,0,42,30,600,1,53298,1
2,30483,30074,31987,63729,30974,-3194,1276,161,3101,-7509,-11833,-8,356,-336,1,0,42,30,640,1,53298,1
2,30485,29966,31993,63730,30985,-4303,1025,-629,-2523,-10715,-14690,-9,381,-331,1,0,42,30,680,1,53298,1
2,30504,29955,32010,63731,30996,-5785,1312,-1005,-6,-12488,-18940,-5,425,-309,1,0,42,30,720,1,53298,1
2,30514,29959,32023,63732,31007,-5958,1999,-1372,2235,-14292,-22329,24,464,-294,1,0,42,30,760,1,53298,1
2,30526,29990,32056,63733,31019,-5801,2216,-1168,3294,-15178,-23010,66,502,-268,1,0,42,30,800,1,53298,1
2,30561,29948,32071,63734,31031,-5697,2136,-1496,982,-15445,-21520,114,530,-224,1,0,42,30,840,1,53298,1
2,30589,30044,32066,63735,31042,-5036,1630,-1386,-133,-14536,-19538,145,537,-191,1,0,42,30,880,1,53298,1
2,30620,30040,32092,63736,31053,-4883,895,-1212,-221,-12532,-17177,185,531,-151,1,0,42,30,920,1,53298,1
2,30595,29977,32060,63737,31064,-4581,1026,-1209,887,-10720,-15393,232,516,-134,1,0,42,30,960,1,53298,1
1,30555,30069,32061,63738,0,-3934,924,-986,1703,-8352,-13158,256,508,-124,1,0,42,31,0,1,53298,1
2,30664,30223,32118,63739,30353,-6618,329,-2598,-525,-356,-6750,262,498,-126,1,0,42,31,40,1,53298,1
2,30530,30722,32170,63740,30365,-7413,317,-63,3536,1091,-1433,248,508,-122,1,0,42,31,80,1,53298,1
2,30341,30903,32120,63741,30375,-4015,-726,120,-425,1345,-1795,264,504,-112,1,0,42,31,120,1,53298,1
2,30329,30933,32100,63742,30387,-4169,-995,207,1874,1330,-1114,267,505,-129,1,0,42,31,160,1,53298,1
2,30355,30929,32117,63743,30399,-4253,-1026,235,602,1190,-416,258,500,-110,1,0,42,31,200,1,53298,1
2,30399,30934,32134,63744,30410,-5122,-652,-56,208,1255,-114,262,516,-122,1,0,42,31,240,1,53298,1
2,30380,30934,32128,63745,30422,-4656,-993,-141,334,940,-395,269,505,-129,1,0,42,31,280,1,53298,1
2,30406,30934,32130,63746,30433,-4533,-904,65,499,682,-329,264,496,-126,1,0,42,31,320,1,53298,1
2,30383,30936,32130,63747,30445,-4650,-876,3,24,689,-303,260,502,-124,1,0,42,31,360,1,53298,1
2,30320,30925,32127,63748,30456,-4685,-917,-86,145,647,-366,264,512,-132,1,0,42,31,400,1,53298,1
2,30283,30924,32123,63749,30467,-4636,-896,-46,235,536,-328,262,500,-132,1,0,42,31,440,1,53298,1
2,30300,30921,32122,63750,30478,-4602,-911,-47,8,445,-260,260,508,-132,1,0,42,31,480,1,53298,1
2,30303,30931,32142,63751,30490,-4650,-911,-51,10,458,-308,268,514,-132,1,0,42,31,520,1,53298,1
2,30183,30927,32145,63752,30502,-4661,-939,-70,78,505,-356,254,496,-126,1,0,42,31,560,1,53298,1
2,30219,30926,32146,63753,30514,-4626,-940,-107,-79,434,-336,263,509,-127,1,0,42,31,600,1,53298,1
2,30228,30919,32139,63754,30526,-4634,-965,-91,-145,293,-280,266,512,-130,1,0,42,31,640,1,53298,1
2,30285,30917,32147,63755,30538,-4646,-975,-120,-57,163,-224,265,503,-139,1,0,42,31,680,1,53298,1
2,30305,30913,32154,63756,30549,-4621,-957,-116,41,17,-117,261,511,-129,1,0,42,31,720,1,53298,1
2,30311,30918,32157,63757,30561,-4642,-965,-92,6,-87,11,268,500,-140,1,0,42,31,760,1,53298,1
2,30235,30925,32155,63758,30573,-4633,-967,-91,-4,-129,69,264,504,-132,1,0,42,31,800,1,53298,1
2,30261,30918,32155,63759,30586,-4625,-949,-92,56,-147,69,270,504,-128,1,0,42,31,840,1,53298,1
2,30247,30917,32156,63760,30599,-4633,-954,-72,33,-96,20,256,508,-122,1,0,42,31,880,1,53298,1
2,30233,30926,32162,63761,30611,-4629,-948,-89,-16,-8,-18,266,512,-132,1,0,42,31,920,1,53298,1
2,30114,30919,32160,63762,30623,-4621,-954,-82,-30,65,-53,261,509,-143,1,0,42,31,960,1,53298,1
1,30249,30921,32165,63763,0,-4642,-952,-84,-41,117,-62,263,495,-139,1,0,42,32,0,1,53298,1
2,30181,30921,32156,63764,29906,-4643,-970,-103,-52,139,-65,267,507,-139,1,0,42,32,40,1,53298,1
2,30129,30924,32160,63765,29919,-4639,-967,-86,-37,149,-81,273,501,-133,1,0,42,32,80,1,53298,1
2,30110,30926,32160,63766,29931,-4636,-987,-109,-26,159,-78,271,503,-135,1,0,42,32,120,1,53298,1
2,30124,30935,32160,63767,29943,-4640,-980,-109,-20,164,-87,274,514,-140,1,0,42,32,160,1,53298,1
2,30132,30934,32158,63768,29954,-4631,-968,-111,-33,149,-110,272,496,-134,1,0,42,32,200,1,53298,1
2,30146,30932,32159,63769,29966,-4624,-980,-123,-46,108,-102,271,507,-133,1,0,42,32,240,1,53298,1
2,30138,30937,32166,63770,29978,-4630,-989,-113,-21,68,-52,270,506,-136,1,0,42,32,280,1,53298,1
2,30180,30939,32168,63771,29990,-4621,-983,-120,5,35,27,264,504,-134,1,0,42,32,320,1,53298,1
2,30183,30938,32169,63772,30003,-4630,-968,-115,13,-33,77,269,507,-137,1,0,42,32,360,1,53298,1
2,30153,30939,32172,63773,30015,-4640,-971,-109,15,-69,85,269,505,-143,1,0,42,32,400,1,53298,1
2,30140,30940,32165,63774,30028,-4625,-961,-117,-6,-102,45,268,504,-146,1,0,42,32,440,1,53298,1
2,30090,30938,32164,63775,30040,-4627,-970,-113,-13,-101,11,273,505,-131,1,0,42,32,480,1,53298,1
2,30065,30938,32160,63776,30052,-4629,-982,-114,-20,-76,2,272,506,-142,1,0,42,32,520,1,53298,1
2,30153,30938,32163,63777,30064,-4634,-991,-111,-8,-52,27,270,502,-142,1,0,42,32,560,1,53298,1
2,30147,30939,32165,63778,30076,-4628,-975,-110,11,-29,72,267,507,-139,1,0,42,32,600,1,53298,1
2,30182,30940,32164,63779,30089,-4631,-980,-111,24,-12,80,261,501,-131,1,0,42,32,640,1,53298,1
2,30171,30938,32156,63780,30102,-4636,-974,-117,9,-19,62,266,506,-134,1,0,42,32,680,1,53298,1
2,30171,30940,32157,63781,30114,-4634,-976,-126,-1,-24,29,266,504,-140,1,0,42,32,720,1,53298,1
2,30160,30936,32162,63782,30127,-4629,-974,-112,-21,-53,22,276,516,-134,1,0,42,32,760,1,53298,1
2,30174,30935,32159,63783,30139,-4630,-973,-95,-7,-48,15,268,508,-130,1,0,42,32,800,1,53298,1
2,30118,30936,32162,63784,30151,-4636,-969,-108,-8,-24,25,268,504,-132,1,0,42,32,840,1,53298,1
2,30135,30934,32156,63785,30163,-4629,-970,-101,11,-22,36,268,508,-132,1,0,42,32,880,1,53298,1
2,30143,30935,32150,63786,30176,-4645,-982,-95,10,-68,87,267,507,-137,1,0,42,32,920,1,53298,1
2,30134,30939,32161,63787,30188,-4636,-995,-140,8,-189,148,268,502,-144,1,0,42,32,960,1,53298,1
1,30133,30946,32165,63788,0,-4652,-963,-114,63,-371,213,267,507,-139,1,0,42,33,0,1,53298,1
2,30130,30936,32153,63789,29459,-4649,-975,-92,188,-490,269,260,510,-136,1,0,42,33,40,1,53298,1
2,30131,30922,32137,63790,29470,-4634,-923,-52,190,-461,246,257,499,-125,1,0,42,33,80,1,53298,1
2,30172,30922,32127,63791,29481,-4641,-952,-62,190,-431,293,264,512,-134,1,0,42,33,120,1,53298,1
2,30178,30951,32146,63792,29493,-5134,-381,-292,-512,-502,467,267,503,-131,1,0,42,33,160,1,53298,1
2,30202,30936,32129,63793,29504,-5954,-919,-2278,-3514,-392,811,268,500,-136,1,0,42,33,200,1,53298,1
2,30221,30585,32110,63794,29515,-5960,458,-1965,5954,913,3619,246,514,-128,1,0,42,33,240,1,53298,1
2,31165,30575,32123,63795,29528,-65,9444,-5075,11608,6141,10436,216,526,-150,1,0,42,33,280,1,53298,1
2,31396,30035,32081,63796,29542,-2353,10998,-6547,-7119,20116,28398,145,543,-197,1,0,42,33,320,1,53298,1
2,31378,29940,32052,63797,29555,-9617,5065,-4349,-6564,32397,32767,19,517,-261,1,0,42,33,360,1,53298,1
2,31337,30009,32040,63798,29568,-19866,1458,-1981,-363,32767,32767,-56,408,-312,1,0,42,33,400,1,53298,1
2,31242,29916,31972,63799,29581,-8934,-2867,-1361,-2296,27467,32767,-56,320,-326,1,0,42,33,440,1,53298,1
2,31210,29840,31925,63800,29593,-5171,63,1937,-1925,17117,15511,-22,290,-338,1,0,42,33,480,1,53298,1
2,31250,29827,31899,63801,29606,-3371,-136,700,-10869,2421,3095,-17,289,-303,1,0,42,33,520,1,53298,1
2,31228,29823,31857,63802,29618,-1855,-2042,-1410,-11158,-1753,2483,-17,295,-305,1,0,42,33,560,1,53298,1
2,31226,29854,31878,63803,29631,-1198,-1805,-785,3548,894,2645,-2,296,-316,1,0,42,33,600,1,53298,1
2,31230,29845,31915,63804,29643,-1572,-423,470,12499,802,398,-2,302,-328,1,0,42,33,640,1,53298,1
2,31235,29919,31929,63805,29656,-2352,-281,615,7516,-3609,-4227,5,297,-325,1,0,42,33,680,1,53298,1
2,31243,29861,31918,63806,29668,-3497,-153,-312,-341,-8608,-11532,-7,317,-329,1,0,42,33,720,1,53298,1
2,31266,29841,31925,63807,29681,-5256,286,-657,-3250,-13819,-19621,-17,349,-329,1,0,42,33,760,1,53298,1
2,31287,29925,31941,63808,29693,-5936,895,-852,-1615,-17744,-26037,-11,391,-315,1,0,42,33,800,1,53298,1
2,31336,30101,31989,63809,29706,-6106,1327,-990,123,-19217,-28859,12,446,-288,1,0,42,33,840,1,53298,1
2,31377,30133,31998,63810,29719,-5802,2072,-1348,975,-19695,-29302,50,486,-256,1,0,42,33,880,1,53298,1
2,31395,30214,32025,63811,29732,-5560,2491,-1347,2122,-19110,-27673,106,512,-220,1,0,42,33,920,1,53298,1
2,31399,30201,32039,63812,29744,-5005,2603,-1542,1217,-17070,-24799,151,519,-173,1,0,42,33,960,1,53298,1
1,31400,30220,32043,63813,0,-4677,1993,-1136,1006,-14552,-21009,211,513,-137,1,0,42,34,0,0,53298,1
2,31405,30598,32124,63814,29012,-4502,-877,1402,-198,-12322,-17386,253,509,-115,1,0,42,34,40,0,53298,1
2,31436,30217,32160,63815,29023,-6119,9201,-5387,2311,906,-6755,245,503,-101,1,0,42,34,80,0,53298,1
2,30970,30139,32105,63816,29035,-4152,-2265,-820,1793,1392,-2129,251,509,-123,1,0,42,34,120,0,53298,1
2,30862,30769,32070,63817,29047,-4015,-1701,1705,2082,1541,-1797,248,510,-120,1,0,42,34,160,0,53298,1
2,30867,30865,32074,63818,29060,-3439,-1081,437,925,832,-1061,255,507,-131,1,0,42,34,200,0,53298,1
2,30903,30898,32137,63819,29071,-5370,-454,-170,-485,1627,-129,242,504,-114,1,0,42,34,240,0,53298,1
2,30898,30898,32135,63820,29084,-5039,-855,-476,239,1156,208,254,516,-124,1,0,42,34,280,0,53298,1
2,30865,30917,32123,63821,29098,-4458,-949,-9,288,410,-211,248,514,-124,1,0,42,34,320,0,53298,1
2,30805,30912,32124,63822,29111,-4500,-882,81,477,229,-45,256,514,-126,1,0,42,34,360,0,53298,1
2,30788,30916,32129,63823,29122,-4719,-883,-75,233,357,-52,257,509,-125,1,0,42,34,400,0,53298,1
2,30672,30925,32128,63824,29134,-4697,-842,-50,525,273,-216,264,508,-130,1,0,42,34,440,0,53298,1
2,30599,30927,32123,63825,29146,-4589,-897,30,89,270,-357,252,500,-128,1,0,42,34,480,0,53298,1
2,30600,30930,32127,63826,29159,-4599,-936,-51,-341,399,-286,250,510,-124,1,0,42,34,520,0,53298,1
2,30599,30931,32130,63827,29171,-4677,-940,-106,-1,438,-193,250,506,-116,1,0,42,34,560,0,53298,1
2,30524,30930,32130,63828,29183,-4628,-906,-70,245,377,-148,251,501,-131,1,0,42,34,600,0,53298,1
2,30610,30930,32128,63829,29196,-4618,-906,-48,0,312,-143,254,502,-136,1,0,42,34,640,0,53298,1
2,30510,30922,32121,63830,29208,-4650,-949,-128,-161,280,-125,249,513,-125,1,0,42,34,680,0,53298,1
2,30491,30928,32129,63831,29220,-4629,-928,-95,15,181,-133,255,501,-123,1,0,42,34,720,0,53298,1
2,30442,30928,32130,63832,29232,-4614,-923,-76,73,107,-99,256,506,-120,1,0,42,34,760,0,53298,1
2,30467,30926,32129,63833,29245,-4636,-943,-103,-47,96,-63,256,504,-120,1,0,42,34,800,0,53298,1
2,30507,30929,32131,63834,29257,-4635,-941,-97,-25,62,-37,255,509,-127,1,0,42,34,840,0,53298,1
2,30474,30931,32134,63835,29270,-4635,-944,-89,5,32,-22,260,512,-132,1,0,42,34,880,0,53298,1
2,30466,30931,32135,63836,29281,-4635,-932,-94,-10,19,11,255,509,-137,1,0,42,34,920,0,53298,1
2,30497,30929,32133,63837,29293,-4631,-946,-101,0,17,20,253,511,-133,1,0,42,34,960,0,53298,1
1,30475,30931,32137,63838,0,-4641,-950,-97,-1,0,29,250,512,-122,1,0,42,35,0,0,53298,1
2,30460,30934,32137,63839,28563,-4648,-944,-87,-15,-22,34,251,509,-119,1,0,42,35,40,0,53298,1
2,30474,30930,32132,63840,28576,-4623,-940,-100,0,-49,36,251,505,-127,1,0,42,35,80,0,53298,1
2,30445,30937,32144,63841,28587,-4636,-945,-93,1,-53,39,253,511,-127,1,0,42,35,120,0,53298,1
2,30447,30930,32135,63842,28600,-4641,-950,-87,-7,-41,34,259,507,-133,1,0,42,35,160,0,53298,1
2,30433,30937,32140,63843,28612,-4629,-941,-97,2,-30,33,257,507,-127,1,0,42,35,200,0,53298,1
2,30439,30942,32151,63844,28623,-4638,-946,-86,-7,-9,33,250,510,-128,1,0,42,35,240,0,53298,1
2,30433,30942,32147,63845,28634,-4636,-950,-103,2,8,28,253,511,-119,1,0,42,35,280,0,53298,1
2,30403,30939,32141,63846,28646,-4621,-934,-89,-9,16,17,250,500,-128,1,0,42,35,320,0,53298,1
2,30373,30934,32134,63847,28658,-4621,-938,-88,-11,15,2,254,512,-138,1,0,42,35,360,0,53298,1
2,30366,30937,32140,63848,28671,-4643,-948,-97,-14,15,6,241,513,-125,1,0,42,35,400,0,53298,1
2,30336,30935,32137,63849,28684,-4638,-949,-87,-11,6,13,259,515,-131,1,0,42,35,440,0,53298,1
2,30319,30935,32140,63850,28696,-4621,-944,-98,-12,-24,32,256,512,-136,1,0,42,35,480,0,53298,1
2,30316,30932,32135,63851,28708,-4643,-945,-96,-5,-51,41,257,509,-127,1,0,42,35,520,0,53298,1
2,30329,30937,32142,63852,28720,-4647,-941,-90,5,-76,48,256,516,-134,1,0,42,35,560,0,53298,1
2,30301,30935,32138,63853,28731,-4642,-948,-94,2,-79,42,255,505,-129,1,0,42,35,600,0,53298,1
2,30270,30930,32131,63854,28743,-4643,-943,-85,-3,-72,45,250,500,-120,1,0,42,35,640,0,53298,1
2,30286,30933,32137,63855,28756,-4641,-939,-67,-3,-63,51,256,510,-136,1,0,42,35,680,0,53298,1
2,30260,30926,32119,63856,28769,-4633,-930,-81,-73,-89,66,252,498,-128,1,0,42,35,720,0,53298,1
2,30270,30932,32136,63857,28780,-4684,-791,62,-250,-189,43,261,505,-135,1,0,42,35,760,0,53298,1
2,30252,30931,32126,63858,28791,-4796,-426,478,-1795,-793,-147,260,508,-120,1,0,42,35,800,0,53298,1
2,30270,30939,32114,63859,28804,-4680,-816,139,-4196,-1299,-73,264,494,-128,1,0,42,35,840,0,53298,1
2,30311,30936,32106,63860,28815,-4434,-1303,-368,-4461,-1438,64,262,496,-120,1,0,42,35,880,0,53298,1
2,30183,30940,32114,63861,28827,-4482,-1353,-586,-2334,-603,91,252,498,-124,1,0,42,35,920,0,53298,1
2,30002,30934,32099,63862,28839,-4611,-925,-87,358,141,166,267,501,-127,1,0,42,35,960,0,53298,1
1,29960,30932,32100,63863,0,-4598,-927,-81,968,245,93,269,497,-137,1,0,42,36,0,0,53298,1
2,29907,30932,32119,63864,28115,-4630,-947,-88,545,317,-108,261,495,-123,1,0,42,36,40,0,53298,1
2,29972,30939,32127,63865,28127,-4900,-786,4,321,-29,95,258,498,-120,1,0,42,36,80,0,53298,1
2,29939,30905,32101,63866,28138,-5300,-655,-785,-524,-382,732,260,508,-120,1,0,42,36,120,0,53298,1
2,30126,30924,32061,63867,28149,-6050,612,-1195,1760,-1549,3607,251,503,-127,1,0,42,36,160,0,53298,1
2,30538,30882,32073,63868,28162,-1984,6357,-3665,255,-1896,8347,231,517,-129,1,0,42,36,200,0,53298,1
2,30833,30888,32043,63869,28174,-2324,10194,-6243,-5987,9855,22621,162,526,-146,1,0,42,36,240,0,53298,1
2,30838,30577,32047,63870,28186,-7018,7897,-4506,-2252,25311,32767,52,524,-204,1,0,42,36,280,0,53298,1
2,30836,30584,32092,63871,28198,-16047,4784,-2264,-925,32767,32767,-46,444,-268,1,0,42,36,320,0,53298,1
2,30790,30572,32031,63872,28211,-15782,-156,-756,-9476,28882,32767,-58,336,-288,1,0,42,36,360,0,53298,1
2,30717,30744,31945,63873,28223,-5365,-2705,-685,-11078,17629,31322,-43,307,-287,1,0,42,36,400,0,53298,1
2,30727,30695,31959,63874,28235,-4189,-1473,535,-1771,10427,14281,-25,293,-281,1,0,42,36,440,0,53298,1
2,30714,30356,31929,63875,28247,-3266,-1774,553,4150,4230,6601,-13,287,-295,1,0,42,36,480,0,53298,1
2,30740,30274,31931,63876,28259,-1521,-2103,-79,6936,1196,3475,-1,293,-311,1,0,42,36,520,0,53298,1
2,30752,30757,31956,63877,28271,-1417,-1578,540,8038,831,-295,-1,291,-319,1,0,42,36,560,0,53298,1
2,30765,30691,31964,63878,28283,-1883,-404,1298,8904,-2065,-5252,2,296,-328,1,0,42,36,600,0,53298,1
2,30760,30587,31966,63879,28295,-2846,-7,784,1978,-8232,-11458,-9,317,-317,1,0,42,36,640,0,53298,1
2,30775,30640,31973,63880,28307,-4488,230,-286,-4221,-13813,-18467,-11,341,-313,1,0,42,36,680,0,53298,1
2,30791,30653,32009,63881,28318,-5824,769,-750,-4624,-17652,-25164,-21,387,-297,1,0,42,36,720,0,53298,1
2,30817,30668,32026,63882,28331,-5832,1713,-1672,-1570,-19285,-29327,17,431,-283,1,0,42,36,760,0,53298,1
2,30845,30638,32033,63883,28345,-5543,2066,-1287,3203,-18366,-29680,48,486,-256,1,0,42,36,800,0,53298,1
2,30865,30651,32048,63884,28357,-6207,2553,-1462,4039,-17451,-27301,100,516,-218,1,0,42,36,840,0,53298,1
2,30868,30670,32076,63885,28371,-5977,2583,-1224,1873,-16926,-24761,141,525,-165,1,0,42,36,880,0,53298,1
2,30862,30628,32058,63886,28383,-5752,2105,-1277,-1096,-14977,-21071,184,506,-138,1,0,42,36,920,0,53298,1
2,30823,30654,32065,63887,28396,-5398,1890,-1519,-1792,-12526,-17548,225,505,-105,1,0,42,36,960,0,53298,1
1,30818,30316,32080,63888,0,-8593,4193,-4346,500,-3619,-9705,243,501,-111,1,0,42,37,0,0,53298,1
2,30869,30280,32098,63889,27668,-6183,2541,-1990,8464,-135,-2550,248,510,-108,1,0,42,37,40,0,53298,1
2,30644,29864,32083,63890,27681,-5066,-2882,1309,-536,1673,-1831,239,487,-113,1,0,42,37,80,0,53298,1
2,30631,30217,32080,63891,27693,-3877,-374,739,410,1594,-1865,248,506,-108,1,0,42,37,120,0,53298,1
2,30664,30283,32098,63892,27705,-4613,-678,-157,593,1683,-1046,245,505,-117,1,0,42,37,160,0,53298,1
2,30634,30110,32106,63893,27718,-4928,-903,-128,-545,1686,-885,251,501,-121,1,0,42,37,200,0,53298,1
2,30555,29890,32091,63894,27731,-4672,-835,-1,-319,1092,-707,252,496,-116,1,0,42,37,240,0,53298,1
2,30481,29828,32094,63895,27743,-4552,-911,-10,311,730,-523,248,502,-124,1,0,42,37,280,0,53298,1
2,30398,29867,32080,63896,27755,-4667,-785,32,480,504,-286,255,499,-127,1,0,42,37,320,0,53298,1
2,30402,29884,32100,63897,27768,-4690,-840,-39,301,169,-183,254,502,-120,1,0,42,37,360,0,53298,1
2,30343,29837,32100,63898,27781,-4629,-850,23,130,-113,-58,254,504,-116,1,0,42,37,400,0,53298,1
2,30255,29851,32100,63899,27793,-4624,-869,0,44,-205,61,243,507,-111,1,0,42,37,440,0,53298,1
2,30252,29838,32102,63900,27806,-4651,-840,13,198,-186,160,252,502,-118,1,0,42,37,480,0,53298,1
2,30197,30050,32107,63901,27818,-4655,-813,41,206,-145,145,240,498,-116,1,0,42,37,520,0,53298,1
2,30181,30172,32103,63902,27830,-4632,-825,37,0,-88,57,247,503,-123,1,0,42,37,560,0,53298,1
2,30107,30289,32109,63903,27842,-4630,-850,8,-62,-61,-10,252,504,-124,1,0,42,37,600,0,53298,1
2,30081,30490,32112,63904,27854,-4645,-841,48,-1,-68,-24,258,506,-120,1,0,42,37,640,0,53298,1
2,30108,30569,32111,63905,27866,-4623,-830,49,10,-38,-41,251,495,-115,1,0,42,37,680,0,53298,1
2,30133,30612,32114,63906,27878,-4629,-841,33,-45,28,-31,241,505,-113,1,0,42,37,720,0,53298,1
2,30112,30650,32106,63907,27890,-4636,-843,26,-43,90,-39,248,510,-112,1,0,42,37,760,0,53298,1
2,30132,30669,32111,63908,27902,-4641,-860,14,-34,101,-45,249,503,-119,1,0,42,37,800,0,53298,1
2,30119,30637,32100,63909,27913,-4643,-842,29,-35,80,-36,251,505,-121,1,0,42,37,840,0,53298,1
2,30060,30632,32106,63910,27925,-4644,-857,13,-16,46,-18,249,507,-125,1,0,42,37,880,0,53298,1
2,30078,30560,32103,63911,27937,-4643,-841,8,-16,10,6,246,506,-122,1,0,42,37,920,0,53298,1
2,30036,30544,32107,63912,27949,-4634,-839,20,-14,-8,20,238,504,-112,1,0,42,37,960,0,53298,1
1,30087,30569,32108,63913,0,-4636,-838,9,1,-16,17,254,504,-118,1,0,42,38,0,1,53298,1
2,30058,30552,32113,63914,27220,-4645,-845,18,-2,-8,8,250,500,-124,1,0,42,38,40,1,53298,1
2,30043,30540,32105,63915,27232,-4641,-853,25,-16,-28,19,252,510,-116,1,0,42,38,80,1,53298,1
2,30041,30506,32098,63916,27244,-4635,-852,26,0,-40,24,252,506,-128,1,0,42,38,120,1,53298,1
2,30039,30489,32100,63917,27256,-4636,-849,24,5,-33,31,240,504,-116,1,0,42,38,160,1,53298,1
2,30017,30372,32094,63918,27267,-4630,-849,23,-4,-40,45,244,504,-124,1,0,42,38,200,1,53298,1
2,29977,30270,32090,63919,27279,-4648,-844,28,-2,-59,48,256,504,-124,1,0,42,38,240,1,53298,1
2,29974,30270,32088,63920,27290,-4638,-844,15,-1,-69,45,247,505,-129,1,0,42,38,280,1,53298,1
2,29934,30128,32080,63921,27302,-4642,-853,44,1,-81,61,251,505,-117,1,0,42,38,320,1,53298,1
2,29928,30270,32096,63922,27314,-4634,-851,5,2,-89,71,249,507,-113,1,0,42,38,360,1,53298,1
2,29928,30292,32093,63923,27327,-4644,-848,31,12,-111,77,235,505,-123,1,0,42,38,400,1,53298,1
2,29935,30264,32087,63924,27339,-4619,-840,6,4,-145,109,244,504,-126,1,0,42,38,440,1,53298,1
2,29948,30249,32084,63925,27351,-4638,-830,38,22,-240,171,240,504,-120,1,0,42,38,480,1,53298,1
2,29951,30242,32081,63926,27363,-4660,-826,59,-63,-373,227,254,504,-124,1,0,42,38,520,1,53298,1
2,30051,30380,32090,63927,27374,-4831,-692,87,-1176,-627,119,248,494,-122,1,0,42,38,560,1,53298,1
2,30125,30717,32109,63928,27386,-5962,503,-50,-6843,-1585,-787,266,502,-120,1,0,42,38,600,1,53298,1
2,30069,30813,32101,63929,27399,-7759,621,-1054,-16709,-3679,-1464,269,495,-119,1,0,42,38,640,1,53298,1
2,30368,30368,32066,63930,27412,-5358,-788,-607,-2612,-1688,3048,267,491,-129,1,0,42,38,680,1,53298,1
2,30552,30689,32075,63931,27425,-1674,4249,-3621,-9695,1826,9084,250,490,-152,1,0,42,38,720,1,53298,1
2,30547,30631,32039,63932,27438,-2211,5377,-3709,-12921,12755,19666,197,507,-189,1,0,42,38,760,1,53298,1
2,30556,30625,32028,63933,27450,-4036,5727,-2463,3815,20356,32767,108,524,-228,1,0,42,38,800,1,53298,1
2,30570,30734,32013,63934,27462,-7701,4592,-893,10623,25375,32767,22,476,-288,1,0,42,38,840,1,53298,1
2,30555,30521,32040,63935,27474,-13376,3005,-243,11077,23951,32767,-29,381,-319,1,0,42,38,880,1,53298,1
2,30467,30273,31975,63936,27487,-10879,-1521,-1340,1933,18944,32767,-41,327,-329,1,0,42,38,920,1,53298,1
2,30441,30300,31905,63937,27500,-3666,471,693,-4031,13362,22362,-34,298,-332,1,0,42,38,960,1,53298,1
1,30427,30486,31848,63938,0,-3602,-645,-300,-7990,6393,4783,-22,294,-314,1,0,42,39,0,1,53298,1
2,30488,30827,31864,63939,26774,-2586,-1573,-357,-4843,-2329,-194,-11,305,-299,1,0,42,39,40,1,53298,1
2,30515,30836,31912,63940,26787,-1598,-2018,-541,-3309,-5294,-2848,-10,310,-310,1,0,42,39,80,1,53298,1
2,30506,30805,31921,63941,26800,-1732,-733,-582,3137,-2569,-6809,2,306,-308,1,0,42,39,120,1,53298,1
2,30523,30792,31937,63942,26811,-2200,95,-327,9786,-2473,-9592,-4,326,-328,1,0,42,39,160,1,53298,1
2,30530,30745,31966,63943,26823,-3125,1322,-45,6441,-5492,-11994,-5,347,-331,1,0,42,39,200,1,53298,1
2,30507,30722,31981,63944,26835,-4310,1367,-228,592,-10383,-15645,-5,365,-321,1,0,42,39,240,1,53298,1
2,30566,30664,32002,63945,26847,-4827,1554,-989,-3268,-13469,-19625,6,408,-310,1,0,42,39,280,1,53298,1
2,30566,30587,32026,63946,26860,-5145,1834,-1257,-2042,-14503,-22331,17,447,-283,1,0,42,39,320,1,53298,1
2,30760,30554,32052,63947,26874,-5510,2219,-1092,311,-14848,-22512,49,489,-257,1,0,42,39,360,1,53298,1
2,30715,30492,32079,63948,26887,-5463,2008,-1045,-426,-14809,-21177,80,514,-228,1,0,42,39,400,1,53298,1
2,30768,30422,32096,63949,26902,-5645,1294,-948,182,-14176,-19548,123,517,-187,1,0,42,39,440,1,53298,1
2,30816,30425,32109,63950,26916,-5375,1570,-1075,993,-13444,-18114,163,517,-169,1,0,42,39,480,1,53298,1
2,30823,30393,32129,63951,26930,-4865,1562,-944,850,-11246,-15979,205,503,-135,1,0,42,39,520,1,53298,1
2,30637,30464,32118,63952,26946,-4768,1164,-892,344,-9324,-13552,220,502,-110,1,0,42,39,560,1,53298,1
2,30522,30360,32061,63953,26960,-4521,1396,-1250,917,-7195,-10957,245,485,-107,1,0,42,39,600,1,53298,1
2,30565,30178,32057,63954,26972,-7385,3609,-3287,2196,73,-5351,261,479,-109,1,0,42,39,640,1,53298,1
2,30648,30028,32105,63955,26984,-5730,-744,-887,-63,1007,-1491,252,490,-112,1,0,42,39,680,1,53298,1
2,30568,30675,32147,63956,26996,-5056,-2785,1340,8,1265,-866,252,482,-112,1,0,42,39,720,1,53298,1
2,30597,30801,32168,63957,27009,-5575,325,-364,-533,2097,-1552,262,494,-122,1,0,42,39,760,1,53298,1
2,30354,30642,32177,63958,27021,-5266,-800,-206,2380,961,-778,261,491,-105,1,0,42,39,800,1,53298,1
2,30236,30791,32175,63959,27034,-4455,-1052,325,-158,733,-846,258,484,-114,1,0,42,39,840,1,53298,1
2,30237,30659,32173,63960,27047,-4499,-1003,183,-93,528,-288,259,479,-117,1,0,42,39,880,1,53298,1
2,30239,30029,32182,63961,27059,-4737,-902,84,185,390,200,244,490,-110,1,0,42,39,920,1,53298,1
2,30189,30915,32188,63962,27072,-4725,-803,111,657,74,281,258,486,-122,1,0,42,39,960,1,53298,1
1,30172,30921,32182,63963,0,-4597,-868,184,477,-223,170,257,493,-113,1,0,42,40,0,1,53298,1
2,30207,30933,32191,63964,26327,-4631,-837,189,116,-374,165,259,487,-121,1,0,42,40,40,1,53298,1
2,30189,30950,32195,63965,26339,-4638,-880,148,54,-368,62,252,494,-114,1,0,42,40,80,1,53298,1
2,30158,30953,32193,63966,26353,-4625,-846,201,177,-271,14,258,494,-112,1,0,42,40,120,1,53298,1
2,30154,30960,32183,63967,26365,-4622,-842,214,32,-205,6,263,491,-109,1,0,42,40,160,1,53298,1
2,30109,30968,32198,63968,26378,-4631,-860,185,-70,-160,-16,258,486,-114,1,0,42,40,200,1,53298,1
2,30067,30975,32204,63969,26390,-4635,-866,188,-13,-132,-26,255,489,-115,1,0,42,40,240,1,53298,1
2,30021,30987,32209,63970,26402,-4629,-854,193,16,-101,6,252,492,-116,1,0,42,40,280,1,53298,1
2,30032,30977,32208,63971,26413,-4634,-869,211,5,-109,5,246,484,-104,1,0,42,40,320,1,53298,1
2,30057,30980,32209,63972,26425,-4642,-867,210,0,-83,-25,261,489,-113,1,0,42,40,360,1,53298,1
2,30110,30977,32203,63973,26438,-4647,-867,211,-12,-32,-35,255,493,-115,1,0,42,40,400,1,53298,1
2,30088,30965,32210,63974,26450,-4620,-866,201,-34,2,-40,262,486,-118,1,0,42,40,440,1,53298,1
2,30072,30978,32197,63975,26462,-4634,-871,191,-35,28,-49,256,488,-114,1,0,42,40,480,1,53298,1
2,30015,30970,32197,63976,26474,-4624,-865,198,-20,41,-35,249,481,-109,1,0,42,40,520,1,53298,1
2,30010,30975,32204,63977,26487,-4631,-873,186,-17,43,-2,255,483,-115,1,0,42,40,560,1,53298,1
2,30011,30950,32165,63978,26499,-4626,-861,201,-10,21,16,261,485,-109,1,0,42,40,600,1,53298,1
2,29980,30894,32084,63979,26511,-4634,-881,193,1,3,28,255,489,-113,1,0,42,40,640,1,53298,1
2,29931,30861,32043,63980,26523,-4639,-877,185,-3,-11,35,254,488,-114,1,0,42,40,680,1,53298,1
2,29926,30817,31964,63981,26534,-4627,-866,182,-2,-10,13,248,492,-108,1,0,42,40,720,1,53298,1
2,29868,30806,31948,63982,26547,-4630,-869,194,2,19,-22,262,488,-112,1,0,42,40,760,1,53298,1
2,29845,30806,31939,63983,26560,-4638,-883,189,-13,59,-45,266,488,-112,1,0,42,40,800,1,53298,1
2,29903,30794,31921,63984,26572,-4633,-873,188,-30,29,-35,248,500,-100,1,0,42,40,840,1,53298,1
2,29912,30784,31913,63985,26584,-4626,-881,177,-25,-11,-14,263,487,-119,1,0,42,40,880,1,53298,1
2,29910,30789,31905,63986,26596,-4653,-896,186,-10,-71,30,253,487,-109,1,0,42,40,920,1,53298,1
2,29905,30779,31905,63987,26610,-4629,-863,192,12,-128,65,261,497,-117,1,0,42,40,960,1,53298,1
1,29937,30782,31909,63988,0,-4631,-862,197,34,-173,68,256,482,-112,1,0,42,41,0,1,53298,1
2,29942,30775,31887,63989,25879,-4630,-874,197,24,-181,69,252,486,-108,1,0,42,41,40,1,53298,1
2,29908,30772,31890,63990,25892,-4653,-859,224,24,-173,64,254,482,-122,1,0,42,41,80,1,53298,1
2,29897,30781,31877,63991,25903,-4842,-617,-3,-1108,-184,-189,268,496,-112,1,0,42,41,120,1,53298,1
2,29991,30781,31850,63992,25916,-5474,-1444,-1169,-3782,-260,-640,265,489,-127,1,0,42,41,160,1,53298,1
2,29975,30799,31861,63993,25928,-6326,-699,-1545,3367,1682,-157,250,494,-120,1,0,42,41,200,1,53298,1
2,30379,33308,31810,63994,25941,-4550,246,-945,12211,3714,1972,252,502,-122,1,0,42,41,240,1,53298,1
2,31080,30412,31823,63995,25954,-563,7428,-3927,14285,9500,7183,218,518,-150,1,0,42,41,280,1,53298,1
2,31137,29840,31836,63996,25967,-2671,9329,-5155,-6605,21266,21732,143,537,-205,1,0,42,41,320,1,53298,1
2,31172,29883,31801,63997,25980,-6802,5708,-3355,-10295,29645,32767,51,517,-257,1,0,42,41,360,1,53298,1
2,31166,29810,31817,63998,25993,-15474,2559,-2263,-11375,29415,32767,-42,420,-290,1,0,42,41,400,1,53298,1
2,31080,29844,31777,63999,26007,-14199,-2452,-2191,-10224,21136,32767,-57,335,-303,1,0,42,41,440,1,53298,1
2,31014,29761,31768,64000,26021,-3938,-1692,-454,388,14959,26010,-44,304,-308,1,0,42,41,480,1,53298,1
2,31024,29827,31739,64001,26034,-4115,335,998,4589,8996,6787,-29,309,-313,1,0,42,41,520,1,53298,1
2,31048,29856,31697,64002,26047,-2896,-420,299,-146,1591,83,-20,310,-312,1,0,42,41,560,1,53298,1
2,31034,29763,31677,64003,26059,-1474,-1279,-663,-3475,-682,-41,-7,301,-303,1,0,42,41,600,1,53298,1
2,31035,29750,31712,64004,26072,-1828,-988,-105,1534,-363,-1716,-11,309,-305,1,0,42,41,640,1,53298,1
2,31046,29779,31738,64005,26085,-2433,151,497,3886,-2839,-5009,-3,313,-315,1,0,42,41,680,1,53298,1
2,31051,29758,31743,64006,26098,-3337,162,168,681,-7935,-10264,-12,336,-316,1,0,42,41,720,1,53298,1
2,31051,29779,31738,64007,26109,-4573,44,-406,-2658,-12051,-16862,-20,362,-300,1,0,42,41,760,1,53298,1
2,31078,29885,31743,64008,26121,-5369,671,-849,-1808,-14524,-22587,7,405,-293,1,0,42,41,800,1,53298,1
2,31099,29853,31760,64009,26134,-5318,1240,-939,1320,-16130,-25999,33,449,-277,1,0,42,41,840,1,53298,1
2,31098,29870,31737,64010,26147,-5497,1941,-1016,3169,-16918,-26211,61,487,-243,1,0,42,41,880,1,53298,1
2,31060,29937,31696,64011,26161,-5477,2242,-1385,1386,-17141,-24943,113,505,-207,1,0,42,41,920,1,53298,1
2,31082,29990,31715,64012,26173,-5463,1802,-1416,-429,-15790,-22667,162,516,-170,1,0,42,41,960,1,53298,1
1,31092,30102,31724,64013,0,-5369,1890,-1501,-1213,-13445,-19858,200,510,-142,1,0,42,42,0,1,53298,1
2,31083,30056,31722,64014,25433,-4871,1863,-1192,-426,-10610,-16640,228,496,-128,1,0,42,42,40,1,53298,1
2,31114,29875,31748,64015,25446,-4313,1021,-846,-1684,-7877,-12892,256,494,-108,1,0,42,42,80,1,53298,1
2,31154,30129,31767,64016,25457,-4923,3170,-2603,-44,-157,-4892,263,497,-109,1,0,42,42,120,1,53298,1
2,30682,29760,31792,64017,25469,-6753,-2563,866,2401,1204,-1193,268,498,-108,1,0,42,42,160,1,53298,1
2,30384,29823,31745,64018,25481,-4362,-837,248,-848,623,-1524,264,490,-110,1,0,42,42,200,1,53298,1
2,30376,29965,31755,64019,25493,-4056,-1344,264,2133,568,-757,261,493,-115,1,0,42,42,240,1,53298,1
2,30326,30020,31781,64020,25504,-4268,-1015,718,121,714,-325,270,498,-118,1,0,42,42,280,1,53298,1
2,30345,29965,31794,64021,25515,-5230,-705,4,38,505,143,272,490,-118,1,0,42,42,320,1,53298,1
2,30393,30515,31791,64022,25526,-4713,-1102,-21,277,46,82,268,492,-120,1,0,42,42,360,1,53298,1
2,30311,30562,31798,64023,25537,-4501,-952,328,512,-380,166,274,498,-108,1,0,42,42,400,1,53298,1
2,30181,30202,31777,64024,25549,-4591,-989,185,297,-491,326,266,490,-114,1,0,42,42,440,1,53298,1
2,30130,29785,31775,64025,25561,-4719,-915,214,490,-586,386,263,483,-113,1,0,42,42,480,1,53298,1
2,30134,29831,31767,64026,25573,-4622,-935,270,460,-538,215,268,488,-110,1,0,42,42,520,1,53298,1
2,30078,29879,31770,64027,25584,-4577,-930,279,81,-355,98,263,491,-115,1,0,42,42,560,1,53298,1
2,30062,30122,31790,64028,25596,-4648,-940,272,-23,-132,22,261,499,-99,1,0,42,42,600,1,53298,1
2,30023,29941,31793,64029,25608,-4645,-936,277,-179,53,-121,265,497,-101,1,0,42,42,640,1,53298,1
2,29982,30041,31780,64030,25620,-4606,-899,274,-457,158,-220,266,494,-114,1,0,42,42,680,1,53298,1
2,29949,30171,31787,64031,25632,-4622,-990,225,-790,195,-282,269,495,-103,1,0,42,42,720,1,53298,1
2,29912,30238,31778,64032,25644,-4626,-1000,206,-591,192,-220,274,496,-110,1,0,42,42,760,1,53298,1
2,29920,30259,31786,64033,25656,-4631,-993,218,-206,215,-138,263,485,-111,1,0,42,42,800,1,53298,1
2,29913,30159,31785,64034,25668,-4629,-940,245,-113,186,-121,271,487,-115,1,0,42,42,840,1,53298,1
2,29931,30133,31775,64035,25679,-4626,-1009,211,-266,145,-161,270,490,-112,1,0,42,42,880,1,53298,1
2,29977,30082,31771,64036,25690,-4636,-998,212,-222,113,-108,267,489,-115,1,0,42,42,920,1,53298,1
2,29961,29948,31758,64037,25702,-4631,-998,217,-47,75,-53,268,486,-112,1,0,42,42,960,1,53298,1
1,29937,30061,31768,64038,0,-4631,-984,220,28,-6,13,266,482,-98,1,0,42,43,0,0,53298,1
2,29952,30098,31767,64039,24986,-4632,-995,208,-6,-56,62,260,490,-120,1,0,42,43,40,0,53298,1
2,29958,30127,31754,64040,24997,-4631,-996,214,20,-98,73,278,488,-116,1,0,42,43,80,0,53298,1
2,29940,30111,31741,64041,25008,-4630,-988,204,17,-95,63,268,500,-108,1,0,42,43,120,0,53298,1
2,29972,30099,31742,64042,25018,-4624,-975,230,-33,-82,45,267,489,-121,1,0,42,43,160,0,53298,1
2,29944,30090,31738,64043,25029,-4638,-994,221,-18,-59,41,273,497,-117,1,0,42,43,200,0,53298,1
2,29952,30174,31732,64044,25040,-4616,-986,227,4,-35,16,273,493,-109,1,0,42,43,240,0,53298,1
2,30022,30175,31732,64045,25051,-4607,-992,208,-62,-20,8,272,494,-116,1,0,42,43,280,0,53298,1
2,30024,30265,31746,64046,25062,-4635,-975,229,-16,-35,24,263,489,-115,1,0,42,43,320,0,53298,1
2,30056,30286,31747,64047,25074,-4617,-1000,222,-14,-39,24,260,486,-110,1,0,42,43,360,0,53298,1
2,30128,30297,31740,64048,25085,-4630,-989,211,9,-51,49,267,495,-111,1,0,42,43,400,0,53298,1
2,30013,30335,31743,64049,25096,-4630,-987,225,25,-45,62,265,491,-109,1,0,42,43,440,0,53298,1
2,30054,30431,31751,64050,25108,-4634,-990,224,19,-56,75,263,487,-115,1,0,42,43,480,0,53298,1
2,29976,30418,31746,64051,25120,-4630,-979,222,31,-76,74,263,491,-121,1,0,42,43,520,0,53298,1
2,29911,30450,31735,64052,25131,-4633,-989,214,43,-81,60,261,489,-113,1,0,42,43,560,0,53298,1
2,29932,30492,31742,64053,25143,-4627,-977,235,49,-74,72,260,488,-110,1,0,42,43,600,0,53298,1
2,29907,30503,31748,64054,25154,-4631,-987,229,47,-58,89,272,500,-106,1,0,42,43,640,0,53298,1
2,29893,30532,31742,64055,25166,-4868,-991,95,-505,-149,15,270,490,-114,1,0,42,43,680,0,53298,1
2,30043,30721,31749,64056,25177,-6765,-247,-1319,-4555,-997,-589,278,498,-110,1,0,42,43,720,0,53298,1
2,30084,30710,31703,64057,25189,-7581,912,-877,-746,572,1058,268,490,-112,1,0,42,43,760,0,53298,1
2,30565,30089,31629,64058,25202,-2341,2774,-1115,12054,3126,6358,251,495,-119,1,0,42,43,800,0,53298,1
2,30786,29749,31641,64059,25214,-2782,10225,-6222,-8158,12408,17852,200,510,-170,1,0,42,43,840,0,53298,1
2,30772,29810,31607,64060,25226,-2928,7934,-5005,-11817,22009,32767,102,514,-216,1,0,42,43,880,0,53298,1
2,30730,29741,31623,64061,25238,-10302,4209,-1849,-3678,29905,32767,-1,449,-265,1,0,42,43,920,0,53298,1
2,30719,29790,31627,64062,25250,-17774,1856,-1200,4114,28291,32767,-39,349,-297,1,0,42,43,960,0,53298,1
1,30675,29768,31582,64063,0,-8617,-3635,-2913,-376,21764,32767,-38,298,-304,1,0,42,44,0,1,53298,1
2,30693,29845,31568,64064,24540,-4757,-506,1878,6188,17407,16801,-17,293,-317,1,0,42,44,40,1,53298,1
2,30705,29754,31540,64065,24551,-3122,602,1262,-592,4725,2513,-10,290,-312,1,0,42,44,80,1,53298,1
2,30697,30820,31502,64066,24562,-1563,-1786,-1291,-11195,-1216,609,0,290,-310,1,0,42,44,120,1,53298,1
2,30700,30685,31515,64067,24574,-1240,-1367,-525,106,1139,-58,0,294,-308,1,0,42,44,160,1,53298,1
2,30699,30855,31532,64068,24587,-1429,78,777,6022,663,-1676,-1,289,-317,1,0,42,44,200,1,53298,1
2,30729,30861,31556,64069,24598,-1756,-48,514,3351,-3763,-4502,-1,303,-309,1,0,42,44,240,1,53298,1
2,30758,30566,31570,64070,24610,-3080,-472,-142,34,-7506,-10181,-7,317,-319,1,0,42,44,280,1,53298,1
2,30770,30624,31595,64071,24623,-4985,497,-131,-66,-12173,-18186,-7,337,-311,1,0,42,44,320,1,53298,1
2,30802,30990,31617,64072,24636,-5672,1348,-752,-1861,-16988,-25441,-7,391,-289,1,0,42,44,360,1,53298,1
2,30824,31042,31638,64073,24650,-5069,1957,-1622,-2427,-18495,-28992,27,431,-279,1,0,42,44,400,1,53298,1
2,30849,31062,31656,64074,24663,-5121,2267,-1562,156,-17132,-28120,49,467,-239,1,0,42,44,440,1,53298,1
2,30883,31064,31681,64075,24677,-5355,2761,-1422,2247,-15977,-25841,92,498,-210,1,0,42,44,480,1,53298,1
2,30884,31174,31686,64076,24690,-5763,2182,-925,1313,-14644,-23017,136,514,-188,1,0,42,44,520,1,53298,1
2,30899,30862,31688,64077,24703,-6140,1887,-1087,-1130,-13847,-20271,186,518,-144,1,0,42,44,560,1,53298,1
2,30883,30982,31676,64078,24717,-5396,1892,-1342,-2154,-11899,-17880,217,511,-129,1,0,42,44,600,1,53298,1
2,30847,31154,31649,64079,24730,-4580,1182,-1220,-2183,-8496,-14459,243,485,-117,1,0,42,44,640,1,53298,1
2,30869,31727,31658,64080,24743,-4171,807,-770,193,-5315,-11385,264,476,-98,1,0,42,44,680,1,53298,1
2,30885,32666,31678,64081,24756,-5017,3128,-1321,4420,1162,-3901,258,486,-110,1,0,42,44,720,1,53298,1
2,30663,31640,31713,64082,24769,-6546,-2103,1238,2788,1473,-1272,264,492,-110,1,0,42,44,760,1,53298,1
2,30527,30768,31671,64083,24782,-4580,-701,427,-807,734,-1488,272,480,-108,1,0,42,44,800,1,53298,1
2,30485,30197,31675,64084,24796,-4162,-1255,107,619,339,-813,263,477,-107,1,0,42,44,840,1,53298,1
2,30446,30003,31708,64085,24808,-4492,-967,592,89,467,-201,260,484,-116,1,0,42,44,880,1,53298,1
2,30405,29806,31730,64086,24821,-4996,-845,81,623,318,129,269,489,-101,1,0,42,44,920,1,53298,1
2,30281,29855,31721,64087,24834,-4665,-1030,169,481,-22,21,270,484,-108,1,0,42,44,960,1,53298,1
1,30220,30140,31721,64088,0,-4537,-941,389,264,-249,43,258,484,-110,1,0,42,45,0,1,53298,1
2,30122,30277,31725,64089,24093,-4626,-1016,219,69,-205,103,261,487,-113,1,0,42,45,40,1,53298,1
2,30075,30380,31737,64090,24106,-4672,-928,291,298,-172,66,269,489,-105,1,0,42,45,80,1,53298,1
2,30003,30453,31727,64091,24118,-4606,-962,296,148,-103,-25,262,490,-106,1,0,42,45,120,1,53298,1
2,30001,30418,31734,64092,24130,-4612,-975,275,-35,-48,-27,262,476,-106,1,0,42,45,160,1,53298,1
2,30001,30438,31731,64093,24142,-4638,-961,283,65,21,-34,266,476,-104,1,0,42,45,200,1,53298,1
2,30014,30507,31730,64094,24154,-4637,-973,284,77,85,-69,267,479,-107,1,0,42,45,240,1,53298,1
2,29943,30487,31730,64095,24166,-4618,-970,291,-20,125,-83,268,492,-108,1,0,42,45,280,1,53298,1
2,29901,30511,31730,64096,24178,-4628,-970,261,13,156,-67,261,485,-103,1,0,42,45,320,1,53298,1
2,29849,30577,31733,64097,24189,-4626,-969,270,49,167,-61,259,483,-105,1,0,42,45,360,1,53298,1
2,29814,30635,31736,64098,24200,-4633,-977,246,14,138,-46,269,481,-117,1,0,42,45,400,1,53298,1
2,29822,30637,31740,64099,24212,-4635,-989,255,1,87,-21,260,478,-116,1,0,42,45,440,1,53298,1
2,29811,30633,31734,64100,24223,-4639,-974,260,42,18,0,267,479,-99,1,0,42,45,480,1,53298,1
2,29783,30633,31731,64101,24233,-4626,-978,250,32,-25,8,259,483,-105,1,0,42,45,520,1,53298,1
2,29780,30633,31730,64102,24245,-4627,-985,257,20,-54,18,255,481,-107,1,0,42,45,560,1,53298,1
2,29762,30639,31726,64103,24255,-4623,-977,265,25,-74,30,267,487,-111,1,0,42,45,600,1,53298,1
2,29804,30621,31717,64104,24265,-4634,-983,263,26,-83,50,271,485,-105,1,0,42,45,640,1,53298,1
2,29796,30626,31711,64105,24276,-4619,-971,281,27,-76,51,267,493,-115,1,0,42,45,680,1,53298,1
2,29778,30639,31722,64106,24287,-4623,-973,270,20,-43,33,272,486,-116,1,0,42,45,720,1,53298,1
2,29780,30637,31716,64107,24298,-4630,-970,266,5,15,-1,269,481,-103,1,0,42,45,760,1,53298,1
2,29761,30640,31720,64108,24309,-4624,-985,259,-29,36,-19,261,493,-107,1,0,42,45,800,1,53298,1
2,29750,30654,31715,64109,24321,-4628,-986,247,-11,29,-14,265,493,-109,1,0,42,45,840,1,53298,1
2,29726,30662,31725,64110,24332,-4631,-986,265,-2,20,1,272,484,-106,1,0,42,45,880,1,53298,1
2,29750,30647,31718,64111,24343,-4623,-981,249,-8,-4,6,267,479,-111,1,0,42,45,920,1,53298,1
2,29742,30645,31709,64112,24353,-4624,-994,263,-3,-15,17,264,482,-106,1,0,42,45,960,1,53298,1
1,29755,30645,31720,64113,0,-4630,-984,269,3,-22,33,267,483,-115,1,0,42,46,0,1,53298,1
2,29756,30650,31707,64114,23646,-4632,-977,267,20,-47,47,263,483,-101,1,0,42,46,40,1,53298,1
2,29725,30649,31711,64115,23657,-4634,-969,259,-17,-76,57,265,491,-99,1,0,42,46,80,1,53298,1
2,29698,30645,31710,64116,23668,-4617,-986,284,-136,-125,41,269,485,-117,1,0,42,46,120,1,53298,1
2,29709,30645,31701,64117,23679,-4613,-992,259,-82,-145,77,265,489,-107,1,0,42,46,160,1,53298,1
2,29718,30648,31705,64118,23690,-4651,-974,282,57,-192,117,268,480,-112,1,0,42,46,200,1,53298,1
2,29694,30646,31705,64119,23702,-4655,-951,240,-44,-237,139,262,484,-112,1,0,42,46,240,1,53298,1
2,29764,30535,31694,64120,23713,-5002,-457,-82,-1136,-295,31,272,482,-114,1,0,42,46,280,1,53298,1
2,29759,30635,31678,64121,23725,-5562,-870,-549,-3567,-628,-479,269,489,-113,1,0,42,46,320,1,53298,1
2,29778,30710,31653,64122,23737,-6611,-1140,-963,-2140,-105,207,268,478,-110,1,0,42,46,360,1,53298,1
2,30045,30150,31623,64123,23749,-5257,-2350,-613,3839,398,1567,267,489,-129,1,0,42,46,400,1,53298,1
2,30364,29792,31610,64124,23763,-3144,-1272,925,12144,2477,157,258,492,-132,1,0,42,46,440,1,53298,1
2,30604,30155,31648,64125,23776,-2536,4476,-3166,450,5403,3596,258,496,-144,1,0,42,46,480,1,53298,1
2,30715,29965,31645,64126,23788,-1284,8084,-4319,-308,12974,12621,207,525,-175,1,0,42,46,520,1,53298,1
2,30739,29873,31597,64127,23801,-3490,7643,-3794,-5700,23954,27660,137,537,-229,1,0,42,46,560,1,53298,1
2,30716,29779,31588,64128,23813,-8441,4824,-2931,-5037,30902,32767,14,502,-294,1,0,42,46,600,1,53298,1
2,30674,29730,31594,64129,23826,-16275,2541,-1793,-2685,30087,32767,-46,402,-322,1,0,42,46,640,1,53298,1
2,30621,29732,31572,64130,23838,-12097,-3189,-2821,-8078,23487,32767,-56,328,-320,1,0,42,46,680,1,53298,1
2,30611,29719,31570,64131,23849,-4524,200,779,811,15435,19532,-32,302,-334,1,0,42,46,720,1,53298,1
2,30591,29842,31482,64132,23860,-3113,926,930,904,4874,4498,-22,300,-326,1,0,42,46,760,1,53298,1
2,30616,29852,31476,64133,23872,-2127,-319,-948,-9514,-955,3180,-17,291,-309,1,0,42,46,800,1,53298,1
2,30620,29767,31474,64134,23884,-1634,-1439,-1270,-6785,120,4439,-7,285,-297,1,0,42,46,840,1,53298,1
2,30611,29728,31507,64135,23896,-1748,-548,-303,6401,1780,2113,-10,304,-314,1,0,42,46,880,1,53298,1
2,30625,29749,31536,64136,23907,-2109,394,455,7301,-1334,-1067,-19,297,-327,1,0,42,46,920,1,53298,1
2,30641,29796,31530,64137,23919,-2882,209,-239,173,-6378,-6798,-14,318,-306,1,0,42,46,960,1,53298,1
1,30648,30081,31522,64138,0,-3808,108,-753,-2598,-10343,-13990,-17,335,-297,1,0,42,47,0,0,53298,1
2,30660,30411,31531,64139,23199,-5056,656,-840,-1480,-13460,-20584,-17,369,-317,1,0,42,47,40,0,53298,1
2,30697,30696,31554,64140,23211,-5618,1110,-767,1026,-16737,-25650,-7,417,-287,1,0,42,47,80,0,53298,1
2,30726,30813,31580,64141,23224,-5684,1344,-1005,2187,-18603,-27287,31,455,-265,1,0,42,47,120,0,53298,1
2,30752,30948,31598,64142,23237,-5364,2060,-1330,1405,-18448,-26874,67,499,-215,1,0,42,47,160,0,53298,1
2,30772,31025,31613,64143,23250,-5764,1762,-1100,777,-16852,-25013,121,511,-195,1,0,42,47,200,0,53298,1
2,30792,30924,31629,64144,23262,-5834,2255,-1422,-1718,-15296,-23031,176,502,-140,1,0,42,47,240,0,53298,1
2,30789,30765,31630,64145,23274,-5252,2011,-1533,-2989,-12569,-20643,217,505,-125,1,0,42,47,280,0,53298,1
2,30753,30863,31624,64146,23286,-4542,1410,-1341,-2802,-9588,-17344,259,493,-111,1,0,42,47,320,0,53298,1
2,30777,32322,31668,64147,23298,-8197,2201,-3476,-3451,-2700,-9464,267,487,-117,1,0,42,47,360,0,53298,1
2,30556,29752,31702,64148,23308,-6604,345,453,8900,312,-1949,255,497,-103,1,0,42,47,400,0,53298,1
2,30415,29849,31675,64149,23320,-4271,-959,739,-787,926,-1709,267,495,-111,1,0,42,47,440,0,53298,1
2,30282,29730,31651,64150,23332,-4101,-1112,475,1573,785,-1306,261,479,-113,1,0,42,47,480,0,53298,1
2,30308,29755,31683,64151,23343,-4165,-1166,388,12,810,-437,259,489,-111,1,0,42,47,520,0,53298,1
2,30261,29733,31693,64152,23355,-5211,-740,-25,-181,975,131,258,498,-120,1,0,42,47,560,0,53298,1
2,30140,29779,31686,64153,23366,-4767,-1070,-52,410,236,76,261,493,-127,1,0,42,47,600,0,53298,1
2,30103,30260,31680,64154,23377,-4504,-992,250,667,-313,47,268,492,-110,1,0,42,47,640,0,53298,1
2,30045,30191,31672,64155,23389,-4587,-941,213,218,-401,138,254,486,-112,1,0,42,47,680,0,53298,1
2,29964,30248,31674,64156,23400,-4713,-952,159,207,-409,102,256,494,-112,1,0,42,47,720,0,53298,1
2,29926,30311,31665,64157,23411,-4623,-941,243,324,-346,13,261,499,-113,1,0,42,47,760,0,53298,1
2,29884,30440,31669,64158,23422,-4590,-977,214,18,-218,2,262,492,-106,1,0,42,47,800,0,53298,1
2,29904,30448,31671,64159,23434,-4638,-984,184,2,-119,32,258,498,-108,1,0,42,47,840,0,53298,1
2,29878,30467,31660,64160,23445,-4652,-950,199,135,-46,22,259,487,-105,1,0,42,47,880,0,53298,1
2,29898,30511,31663,64161,23455,-4614,-974,189,39,-22,-13,267,493,-121,1,0,42,47,920,0,53298,1
2,29930,30523,31671,64162,23466,-4633,-972,183,-36,4,2,262,496,-110,1,0,42,47,960,0,53298,1
1,29906,30566,31670,64163,0,-4638,-969,195,34,-6,5,266,492,-116,1,0,42,48,0,1,53298,1
2,29839,30560,31669,64164,22753,-4616,-954,226,53,-11,19,264,484,-110,1,0,42,48,40,1,53298,1
2,29838,30527,31665,64165,22764,-4646,-970,176,0,2,19,254,494,-108,1,0,42,48,80,1,53298,1
2,29846,30523,31664,64166,22776,-4627,-959,198,17,-32,21,262,480,-124,1,0,42,48,120,1,53298,1
2,29817,30511,31665,64167,22787,-4626,-960,208,30,-42,17,258,492,-120,1,0,42,48,160,1,53298,1
2,29803,30532,31668,64168,22800,-4636,-966,201,9,-42,29,261,493,-103,1,0,42,48,200,1,53298,1
2,29814,30576,31666,64169,22812,-4632,-968,220,29,-51,54,265,493,-107,1,0,42,48,240,1,53298,1
2,29821,30596,31680,64170,22824,-4631,-962,205,35,-51,68,263,491,-109,1,0,42,48,280,1,53298,1
2,29812,30602,31679,64171,22836,-4628,-965,203,36,-73,74,262,484,-118,1,0,42,48,320,1,53298,1
2,29809,30595,31673,64172,22849,-4633,-972,199,25,-87,61,258,486,-110,1,0,42,48,360,1,53298,1
2,29796,30582,31666,64173,22861,-4629,-966,199,25,-71,28,264,494,-112,1,0,42,48,400,1,53298,1
2,29777,30540,31668,64174,22873,-4617,-973,211,6,-34,11,262,492,-108,1,0,42,48,440,1,53298,1
2,29792,30509,31667,64175,22885,-4635,-966,210,-7,12,-3,253,495,-101,1,0,42,48,480,1,53298,1
2,29779,30517,31674,64176,22897,-4645,-971,206,-24,32,-14,265,487,-113,1,0,42,48,520,1,53298,1
2,29746,30512,31669,64177,22909,-4623,-964,205,-26,27,5,267,489,-113,1,0,42,48,560,1,53298,1
2,29781,30506,31671,64178,22921,-4630,-962,207,-3,2,19,268,482,-114,1,0,42,48,600,1,53298,1
2,29812,30530,31666,64179,22933,-4644,-976,207,-44,-39,28,262,488,-114,1,0,42,48,640,1,53298,1
2,29793,30537,31668,64180,22945,-4656,-941,216,-285,-125,31,259,483,-119,1,0,42,48,680,1,53298,1
2,29823,30543,31675,64181,22956,-4598,-1026,172,-398,-272,76,263,479,-113,1,0,42,48,720,1,53298,1
2,29824,30527,31673,64182,22967,-4626,-968,211,-66,-306,138,259,487,-111,1,0,42,48,760,1,53298,1
2,29797,30540,31665,64183,22979,-4631,-966,203,96,-323,170,265,483,-105,1,0,42,48,800,1,53298,1
2,29787,30537,31665,64184,22991,-4632,-944,258,114,-353,176,259,495,-121,1,0,42,48,840,1,53298,1
2,29788,30552,31670,64185,23002,-4649,-925,252,-71,-368,172,265,487,-107,1,0,42,48,880,1,53298,1
2,29815,30561,31665,64186,23013,-4648,-963,200,-324,-410,142,266,490,-102,1,0,42,48,920,1,53298,1
2,29804,30564,31654,64187,23025,-4599,-990,293,-140,-481,171,264,492,-110,1,0,42,48,960,1,53298,1
1,29823,30571,31653,64188,0,-4619,-944,272,86,-518,246,254,488,-102,1,0,42,49,0,0,53298,1
2,29835,30576,31652,64189,22307,-4652,-931,271,144,-561,274,269,481,-103,1,0,42,49,40,0,53298,1
2,29797,30579,31647,64190,22319,-4609,-944,302,98,-587,261,260,488,-112,1,0,42,49,80,0,53298,1
2,29854,30603,31643,64191,22330,-4809,-806,294,-220,-598,243,273,487,-109,1,0,42,49,120,0,53298,1
2,29857,30108,31636,64192,22343,-5844,-663,-1111,-3671,-618,-285,263,491,-107,1,0,42,49,160,0,53298,1
2,29978,30490,31593,64193,22355,-6565,-194,-1336,871,1196,172,259,487,-111,1,0,42,49,200,0,53298,1
2,30508,29772,31587,64194,22368,-3739,1230,-1163,11318,3643,3711,243,499,-125,1,0,42,49,240,0,53298,1
2,30802,30280,31617,64195,22381,-2542,8499,-5970,6510,12878,9952,214,506,-152,1,0,42,49,280,0,53298,1
2,30794,30401,31577,64196,22393,-2923,9547,-5275,-2456,24053,25371,124,528,-208,1,0,42,49,320,0,53298,1
2,30760,33021,31453,64197,22406,-7683,7551,-2859,-5790,32767,32767,25,485,-271,1,0,42,49,360,0,53298,1
2,30792,30222,31470,64198,22419,-18500,2025,-2663,-14896,32747,32767,-34,396,-288,1,0,42,49,400,0,53298,1
2,30733,29781,31453,64199,22432,-14489,-5164,-3290,-21892,21906,32767,-52,310,-282,1,0,42,49,440,0,53298,1
2,30677,29840,31482,64200,22444,-3105,-3271,-1151,1187,18034,26788,-27,289,-305,1,0,42,49,480,0,53298,1
2,30670,30154,31434,64201,22456,-3786,1696,1887,23894,11699,7010,-11,283,-337,1,0,42,49,520,0,53298,1
2,30662,30112,31393,64202,22468,-2848,365,1091,10668,-129,1100,8,298,-338,1,0,42,49,560,0,53298,1
2,30672,30844,31379,64203,22480,-1258,-1391,-234,-2318,-4352,653,12,292,-332,1,0,42,49,600,0,53298,1
2,30672,30363,31390,64204,22492,-1143,-1241,189,-9032,-2040,-2861,1,287,-333,1,0,42,49,640,0,53298,1
2,30687,29837,31397,64205,22505,-1630,-551,492,-7999,-1441,-6043,2,306,-310,1,0,42,49,680,0,53298,1
2,30706,29889,31426,64206,22517,-2838,493,-353,-4491,-5462,-10351,-10,314,-312,1,0,42,49,720,0,53298,1
2,30717,30854,31433,64207,22528,-4462,-91,-788,-8,-11654,-15964,-14,342,-304,1,0,42,49,760,0,53298,1
2,30733,29711,31471,64208,22540,-5624,880,-1153,5370,-14992,-23109,-1,369,-313,1,0,42,49,800,0,53298,1
2,30727,30567,31480,64209,22553,-5711,2065,-870,6439,-17983,-27381,16,424,-282,1,0,42,49,840,0,53298,1
2,30760,30331,31492,64210,22565,-5323,2490,-1036,-511,-18925,-27570,50,464,-260,1,0,42,49,880,0,53298,1
2,30791,30548,31503,64211,22578,-5324,2242,-1315,-4514,-17667,-25876,91,497,-223,1,0,42,49,920,0,53298,1
2,30816,30980,31512,64212,22591,-5487,1721,-1047,-3297,-16353,-23808,145,509,-185,1,0,42,49,960,0,53298,1
1,30803,30801,31508,64213,0,-5469,2191,-1447,-957,-14820,-21483,177,507,-153,1,0,42,50,0,1,53298,1
2,30768,30883,31499,64214,21860,-5224,2225,-1313,1092,-12638,-18361,220,486,-122,1,0,42,50,40,1,53298,1
2,30748,30377,31460,64215,21872,-4938,2031,-2139,-1213,-9910,-14401,257,481,-113,1,0,42,50,80,1,53298,1
2,30817,30235,31527,64216,21885,-8178,7533,-4782,-4156,-1938,-7949,266,488,-120,1,0,42,50,120,1,53298,1
2,30855,31419,31566,64217,21897,-5502,2668,-1567,3007,1579,-3145,266,486,-118,1,0,42,50,160,1,53298,1
2,30739,29899,31609,64218,21908,-5578,-2263,2109,1928,1306,-2091,256,492,-116,1,0,42,50,200,1,53298,1
2,30711,30665,31632,64219,21921,-5329,636,334,1017,1298,-1783,271,493,-119,1,0,42,50,240,1,53298,1
2,30596,30677,31632,64220,21933,-5022,-1041,-422,1215,394,-1073,265,493,-117,1,0,42,50,280,1,53298,1
2,30456,30676,31618,64221,21946,-4570,-1120,252,-1007,789,-1265,262,486,-116,1,0,42,50,320,1,53298,1
2,30367,30678,31617,64222,21958,-4517,-1142,133,-385,606,-578,263,493,-115,1,0,42,50,360,1,53298,1
2,30280,30481,31621,64223,21970,-4682,-1044,94,392,564,27,275,481,-119,1,0,42,50,400,1,53298,1
2,30190,30678,31627,64224,21983,-4710,-911,134,727,295,295,268,494,-112,1,0,42,50,440,1,53298,1
2,30157,30677,31628,64225,21995,-4632,-997,113,357,-63,333,267,485,-107,1,0,42,50,480,1,53298,1
2,30174,30676,31620,64226,22007,-4640,-953,177,167,-222,264,272,494,-114,1,0,42,50,520,1,53298,1
2,30166,30671,31617,64227,22020,-4662,-973,149,186,-151,99,263,495,-109,1,0,42,50,560,1,53298,1
2,30074,30672,31618,64228,22033,-4619,-931,183,279,-56,-46,262,492,-116,1,0,42,50,600,1,53298,1
2,30036,30671,31616,64229,22045,-4629,-967,203,84,55,-108,265,481,-119,1,0,42,50,640,1,53298,1
2,30052,30661,31613,64230,22058,-4641,-1006,171,-38,188,-104,269,495,-117,1,0,42,50,680,1,53298,1
2,30039,30670,31611,64231,22070,-4641,-998,139,68,237,-46,274,484,-120,1,0,42,50,720,1,53298,1
2,29959,30656,31611,64232,22082,-4628,-993,134,144,197,20,254,484,-114,1,0,42,50,760,1,53298,1
2,29939,30662,31609,64233,22094,-4634,-972,153,119,126,74,265,491,-113,1,0,42,50,800,1,53298,1
2,29944,30666,31608,64234,22107,-4639,-984,135,71,65,89,259,487,-109,1,0,42,50,840,1,53298,1
2,29928,30637,31611,64235,22119,-4653,-975,142,79,16,127,269,495,-121,1,0,42,50,880,1,53298,1
2,29915,30619,31608,64236,22132,-4628,-969,164,162,-75,141,266,500,-120,1,0,42,50,920,1,53298,1
2,29935,30650,31601,64237,22145,-4658,-952,159,176,-122,124,261,489,-113,1,0,42,50,960,1,53298,1
1,29937,30670,31605,64238,0,-4636,-980,114,32,-206,83,263,491,-121,1,0,42,51,0,0,53298,1
2,29937,30666,31608,64239,21415,-4633,-977,132,-42,-377,75,266,494,-114,1,0,42,51,40,0,53298,1
2,29902,30660,31600,64240,21428,-4647,-975,150,12,-526,95,270,492,-112,1,0,42,51,80,0,53298,1
2,29904,30653,31608,64241,21440,-4632,-979,172,40,-583,79,270,492,-122,1,0,42,51,120,0,53298,1
2,29912,30653,31606,64242,21451,-4611,-955,204,30,-543,96,266,492,-118,1,0,42,51,160,0,53298,1
2,29900,30650,31605,64243,21462,-4620,-963,226,-5,-395,120,260,498,-106,1,0,42,51,200,0,53298,1
2,29923,30651,31610,64244,21474,-4624,-943,236,-44,-172,114,264,494,-108,1,0,42,51,240,0,53298,1
2,29906,30656,31611,64245,21486,-4620,-965,214,-92,-43,91,264,486,-114,1,0,42,51,280,0,53298,1
2,29898,30655,31614,64246,21498,-4628,-957,192,-92,-80,108,261,489,-113,1,0,42,51,320,0,53298,1
2,29882,30656,31609,64247,21510,-4639,-959,196,-29,-159,113,258,492,-100,1,0,42,51,360,0,53298,1
2,29838,30650,31602,64248,21520,-4644,-941,214,11,-256,97,265,489,-113,1,0,42,51,400,0,53298,1
2,29853,30657,31606,64249,21532,-4662,-943,198,-265,-347,96,265,489,-107,1,0,42,51,440,0,53298,1
2,29893,30660,31603,64250,21545,-5241,-131,-433,-1380,-417,-11,268,494,-100,1,0,42,51,480,0,53298,1
2,29907,30667,31572,64251,21557,-6629,-423,-1076,-3478,-531,-293,266,494,-108,1,0,42,51,520,0,53298,1
2,30287,30449,31544,64252,21570,-6082,168,-902,2699,358,1655,262,494,-116,1,0,42,51,560,0,53298,1
2,30673,30350,31533,64253,21582,-314,4917,-3050,8198,3636,6321,241,505,-125,1,0,42,51,600,0,53298,1
2,30818,29765,31515,64254,21595,-1990,9008,-5773,-7549,13329,18279,170,536,-168,1,0,42,51,640,0,53298,1
2,30771,31015,31468,64255,21608,-4565,7687,-4472,-8214,24708,32767,64,540,-216,1,0,42,51,680,0,53298,1
2,30798,29732,31469,64256,21620,-14064,3852,-2431,-5926,31383,32767,-32,450,-272,1,0,42,51,720,0,53298,1
2,30720,30021,31418,64257,21634,-16871,558,-967,-3930,27500,32767,-56,356,-308,1,0,42,51,760,0,53298,1
2,30641,31748,31420,64258,21646,-4336,-2391,-2147,2156,19335,32767,-45,315,-319,1,0,42,51,800,0,53298,1
2,30643,29818,31421,64259,21658,-4931,1205,946,11351,13147,14319,-22,298,-330,1,0,42,51,840,0,53298,1
2,30630,29702,31376,64260,21669,-2736,1314,876,7695,5518,5693,-3,287,-339,1,0,42,51,880,0,53298,1
2,30643,29728,31380,64261,21680,-1924,-1148,-477,-7716,1365,6441,-2,294,-326,1,0,42,51,920,0,53298,1
2,30631,29710,31359,64262,21690,-1422,-1995,-261,-9861,2000,5303,-1,287,-319,1,0,42,51,960,0,53298,1
1,30625,30118,31362,64263,0,-1393,-1179,350,-1067,1506,266,0,294,-320,1,0,42,52,0,1,53298,1
2,30621,30297,31390,64264,20968,-1948,-16,534,3325,-3368,-4514,-3,299,-317,1,0,42,52,40,1,53298,1
2,30639,30580,31397,64265,20979,-2769,220,-436,699,-9119,-10163,-14,306,-318,1,0,42,52,80,1,53298,1
2,30633,31071,31404,64266,20991,-4040,718,-728,-311,-12544,-17013,-6,344,-304,1,0,42,52,120,1,53298,1
2,30665,30489,31431,64267,21003,-5136,1289,-426,-2502,-15883,-23128,-14,382,-292,1,0,42,52,160,1,53298,1
2,30698,30987,31438,64268,21014,-5651,1717,-1025,-4795,-17830,-26212,16,416,-274,1,0,42,52,200,1,53298,1
2,30735,30560,31466,64269,21026,-5203,1578,-1425,-2607,-17876,-27042,40,452,-242,1,0,42,52,240,1,53298,1
2,30753,30184,31484,64270,21039,-5338,2127,-1415,1374,-16112,-25856,76,494,-214,1,0,42,52,280,1,53298,1
2,30784,30266,31504,64271,21051,-5203,2186,-876,3582,-14377,-23514,120,514,-176,1,0,42,52,320,1,53298,1
2,30780,30270,31501,64272,21065,-5871,2127,-985,1095,-13082,-21006,166,502,-142,1,0,42,52,360,1,53298,1
2,30772,30235,31493,64273,21078,-5213,1824,-1282,-1097,-11501,-19069,211,497,-131,1,0,42,52,400,1,53298,1
2,30738,30035,31473,64274,21090,-4464,1111,-1523,-1204,-8636,-16567,237,487,-107,1,0,42,52,440,1,53298,1
2,30781,30190,31520,64275,21101,-1353,-4052,-600,4183,-6238,-13761,239,487,-111,1,0,42,52,480,1,53298,1
2,30519,30273,31578,64276,21112,-6447,6423,-1815,4014,4083,-2129,251,497,-103,1,0,42,52,520,1,53298,1
2,30127,29805,31533,64277,21123,-5908,-1014,280,1849,1346,-2198,253,489,-105,1,0,42,52,560,1,53298,1
2,29957,30613,31518,64278,21133,-4304,-1190,326,-673,616,-2004,252,486,-108,1,0,42,52,600,1,53298,1
2,30022,30490,31538,64279,21144,-4003,-1329,358,889,332,-1111,249,493,-109,1,0,42,52,640,1,53298,1
2,30104,30514,31574,64280,21156,-4824,-742,474,-331,461,-198,256,492,-118,1,0,42,52,680,1,53298,1
2,30076,30529,31573,64281,21166,-5003,-793,-229,336,13,300,248,500,-114,1,0,42,52,720,1,53298,1
2,30005,30547,31567,64282,21177,-4580,-920,193,503,-458,268,257,487,-101,1,0,42,52,760,1,53298,1
2,29986,30556,31565,64283,21187,-4538,-825,375,322,-566,406,253,487,-107,1,0,42,52,800,1,53298,1
2,30076,30562,31570,64284,21198,-4685,-888,116,84,-429,397,252,494,-106,1,0,42,52,840,1,53298,1
2,30198,30536,31574,64285,21210,-4686,-813,233,190,-458,184,253,493,-111,1,0,42,52,880,1,53298,1
2,30198,30552,31570,64286,21221,-4606,-869,220,-12,-495,49,251,489,-107,1,0,42,52,920,1,53298,1
2,29992,30560,31570,64287,21232,-4621,-882,229,-139,-546,66,244,490,-108,1,0,42,52,960,1,53298,1
1,30034,30561,31572,64288,0,-4650,-856,252,38,-535,97,257,485,-109,1,0,42,53,0,1,53298,1
2,30010,30548,31565,64289,20522,-4619,-850,263,97,-463,118,249,489,-107,1,0,42,53,40,1,53298,1
2,30065,30576,31574,64290,20533,-4607,-853,296,-38,-336,129,246,478,-104,1,0,42,53,80,1,53298,1
2,29987,30550,31576,64291,20544,-4634,-860,261,-11,-185,122,254,488,-106,1,0,42,53,120,1,53298,1
2,30057,30570,31574,64292,20556,-4632,-826,289,49,-34,69,255,485,-103,1,0,42,53,160,1,53298,1
2,30103,30542,31573,64293,20567,-4633,-852,260,-54,66,21,254,492,-114,1,0,42,53,200,1,53298,1
2,30119,30560,31574,64294,20579,-4638,-865,246,-52,30,-4,250,484,-102,1,0,42,53,240,1,53298,1
2,30125,30563,31575,64295,20590,-4644,-861,270,8,-4,-2,257,485,-117,1,0,42,53,280,1,53298,1
2,30105,30554,31578,64296,20601,-4633,-867,278,16,-30,1,247,497,-109,1,0,42,53,320,1,53298,1
2,30109,30551,31577,64297,20612,-4625,-861,259,-8,-35,4,254,480,-110,1,0,42,53,360,1,53298,1
2,30095,30597,31574,64298,20624,-4640,-861,270,7,-27,25,249,487,-93,1,0,42,53,400,1,53298,1
2,30086,30592,31578,64299,20635,-4623,-845,276,19,32,42,252,492,-108,1,0,42,53,440,1,53298,1
2,30095,30597,31580,64300,20646,-4640,-850,263,-1,53,42,250,482,-112,1,0,42,53,480,1,53298,1
2,30086,30597,31580,64301,20658,-4637,-850,267,-22,44,20,252,490,-104,1,0,42,53,520,1,53298,1
2,30068,30602,31578,64302,20669,-4626,-848,253,-37,20,-3,245,479,-115,1,0,42,53,560,1,53298,1
2,30092,30591,31574,64303,20680,-4636,-850,268,-27,-38,4,254,486,-114,1,0,42,53,600,1,53298,1
2,30067,30613,31575,64304,20691,-4645,-858,263,-1,-54,38,256,484,-104,1,0,42,53,640,1,53298,1
2,30090,30625,31562,64305,20701,-4816,-669,76,-631,-119,17,247,481,-101,1,0,42,53,680,1,53298,1
2,30021,30667,31558,64306,20712,-5250,-443,-278,-1933,-26,-132,252,490,-108,1,0,42,53,720,1,53298,1
2,29747,30664,31519,64307,20723,-6939,-1430,-2569,762,1248,1139,252,498,-112,1,0,42,53,760,1,53298,1
2,30218,30324,31494,64308,20735,-5251,794,-2125,13988,3719,2297,238,504,-130,1,0,42,53,800,1,53298,1
2,30804,29890,31565,64309,20747,-260,11369,-7814,11124,13520,7537,194,526,-170,1,0,42,53,840,1,53298,1
2,30726,31866,31432,64310,20759,-2600,13873,-6636,-10562,30190,28151,91,537,-233,1,0,42,53,880,1,53298,1
2,30715,30665,31422,64311,20770,-13487,6220,-3577,-19086,32767,32767,-29,437,-287,1,0,42,53,920,1,53298,1
2,30423,30508,31417,64312,20783,-23495,-1714,-3199,-19517,32767,32767,-49,327,-295,1,0,42,53,960,1,53298,1
1,30414,30633,31442,64313,0,-4574,-6133,-3092,4675,23154,32767,-37,287,-337,1,0,42,54,0,1,53298,1
2,30436,30474,31420,64314,20076,-4880,1863,4190,22719,16734,12393,-12,278,-348,1,0,42,54,40,1,53298,1
2,30448,30884,31378,64315,20088,-3645,-962,531,-7960,-1249,609,-1,283,-317,1,0,42,54,80,1,53298,1
2,30435,30828,31356,64316,20100,-1306,-2391,-1319,-13031,-3385,-3331,0,294,-318,1,0,42,54,120,1,53298,1
2,30445,30587,31379,64317,20111,-1362,-858,229,295,-911,-4067,11,291,-325,1,0,42,54,160,1,53298,1
2,30445,30480,31392,64318,20122,-1579,-304,241,5327,-3211,-4848,3,305,-323,1,0,42,54,200,1,53298,1
2,30409,30504,31392,64319,20133,-2050,-539,-525,2210,-6122,-8131,-2,314,-336,1,0,42,54,240,1,53298,1
2,30418,30957,31414,64320,20145,-4011,90,-436,3480,-9026,-13743,-3,341,-331,1,0,42,54,280,1,53298,1
2,30482,31934,31443,64321,20156,-5737,678,-333,2379,-14130,-20177,11,365,-329,1,0,42,54,320,1,53298,1
2,30500,30903,31466,64322,20169,-6005,1510,-1054,262,-18638,-26034,24,426,-310,1,0,42,54,360,1,53298,1
2,30522,30781,31481,64323,20180,-5552,2343,-1159,-722,-20281,-28487,49,471,-285,1,0,42,54,400,1,53298,1
2,30546,31003,31482,64324,20192,-5139,2782,-1502,-2890,-20055,-27213,102,498,-252,1,0,42,54,440,1,53298,1
2,30551,31050,31494,64325,20205,-4747,2573,-1480,-3503,-18208,-24567,147,507,-211,1,0,42,54,480,1,53298,1
2,30553,31070,31485,64326,20217,-4519,2004,-1505,-2544,-15588,-21283,198,514,-170,1,0,42,54,520,1,53298,1
2,30542,31013,31482,64327,20229,-4571,1496,-1239,-411,-12827,-17834,225,499,-137,1,0,42,54,560,1,53298,1
2,30501,30611,31451,64328,20240,-4401,1371,-1222,-682,-10787,-14964,247,487,-123,1,0,42,54,600,1,53298,1
2,30631,30675,31564,64329,20251,-1074,-8212,-778,3371,-9081,-12465,258,490,-106,1,0,42,54,640,1,53298,1
2,30256,30609,31613,64330,20263,-9221,1271,-704,-635,4901,777,251,489,-109,1,0,42,54,680,1,53298,1
2,30175,30663,31532,64331,20274,-3753,-630,89,228,1025,-2696,254,492,-116,1,0,42,54,720,1,53298,1
2,30233,30661,31499,64332,20285,-3985,-1096,621,3179,1466,-1227,260,488,-124,1,0,42,54,760,1,53298,1
2,30241,30660,31530,64333,20297,-3293,-1845,960,1356,1018,-789,264,490,-120,1,0,42,54,800,1,53298,1
2,30240,30665,31580,64334,20308,-5156,-635,42,-185,1509,-17,255,491,-119,1,0,42,54,840,1,53298,1
2,30175,30665,31575,64335,20318,-5285,-539,-703,1446,510,617,257,495,-113,1,0,42,54,880,1,53298,1
2,30206,30665,31558,64336,20328,-4476,-933,217,569,-450,22,252,486,-106,1,0,42,54,920,1,53298,1
2,30241,30664,31558,64337,20338,-4367,-888,392,417,-614,165,251,495,-111,1,0,42,54,960,1,53298,1
1,30230,30667,31565,64338,0,-4723,-890,75,22,-318,298,258,490,-110,1,0,42,55,0,0,53298,1
2,30230,30665,31564,64339,19630,-4759,-810,93,335,-367,132,253,481,-113,1,0,42,55,40,0,53298,1
2,30240,30666,31565,64340,19641,-4553,-932,209,193,-476,-23,254,494,-102,1,0,42,55,80,0,53298,1
2,30246,30665,31562,64341,19651,-4606,-858,201,-36,-407,119,247,495,-107,1,0,42,55,120,0,53298,1
2,30249,30665,31567,64342,19662,-4667,-874,139,71,-302,156,250,494,-108,1,0,42,55,160,0,53298,1
2,30192,30665,31562,64343,19672,-4637,-858,202,207,-265,128,260,498,-112,1,0,42,55,200,0,53298,1
2,30224,30666,31565,64344,19683,-4615,-873,212,-22,-236,104,251,495,-105,1,0,42,55,240,0,53298,1
2,30253,30665,31562,64345,19693,-4657,-876,169,-27,-187,78,259,499,-113,1,0,42,55,280,0,53298,1
2,30260,30666,31564,64346,19704,-4628,-863,206,114,-129,31,253,491,-117,1,0,42,55,320,0,53298,1
2,30249,30666,31562,64347,19716,-4607,-848,213,6,-35,-5,259,495,-107,1,0,42,55,360,0,53298,1
2,30230,30666,31563,64348,19727,-4637,-874,176,-64,-3,-6,247,505,-111,1,0,42,55,400,0,53298,1
2,30268,30665,31565,64349,19739,-4643,-873,197,21,-13,-12,258,482,-114,1,0,42,55,440,0,53298,1
2,30338,30665,31569,64350,19750,-4628,-874,214,16,11,-8,251,497,-97,1,0,42,55,480,0,53298,1
2,30400,30667,31573,64351,19761,-4637,-875,193,-11,40,-5,250,492,-106,1,0,42,55,520,0,53298,1
2,30420,30668,31574,64352,19771,-4618,-862,200,4,53,-8,260,484,-114,1,0,42,55,560,0,53298,1
2,30440,30661,31571,64353,19782,-4638,-867,184,-20,58,-3,253,503,-113,1,0,42,55,600,0,53298,1
2,30433,30667,31572,64354,19794,-4632,-878,189,-25,21,10,248,496,-108,1,0,42,55,640,0,53298,1
2,30409,30665,31571,64355,19806,-4642,-880,186,7,-29,31,254,496,-106,1,0,42,55,680,0,53298,1
2,30408,30665,31570,64356,19817,-4621,-863,170,17,-70,44,253,497,-103,1,0,42,55,720,0,53298,1
2,30378,30664,31568,64357,19829,-4639,-883,189,13,-80,44,252,492,-114,1,0,42,55,760,0,53298,1
2,30378,30663,31571,64358,19840,-4635,-867,194,24,-59,40,255,497,-105,1,0,42,55,800,0,53298,1
2,30342,30664,31570,64359,19852,-4632,-875,206,7,-31,25,255,493,-111,1,0,42,55,840,0,53298,1
2,30344,30664,31570,64360,19863,-4637,-881,188,-7,-2,31,257,497,-115,1,0,42,55,880,0,53298,1
2,30285,30663,31569,64361,19874,-4632,-882,196,5,9,25,256,496,-104,1,0,42,55,920,0,53298,1
2,30250,30666,31572,64362,19886,-4635,-880,194,5,-7,36,255,497,-109,1,0,42,55,960,0,53298,1
1,30218,30662,31570,64363,0,-4623,-870,185,14,-25,34,247,483,-105,1,0,42,56,0,1,53298,1
2,30231,30664,31570,64364,19185,-4641,-867,197,17,-47,29,243,501,-101,1,0,42,56,40,1,53298,1
2,30174,30660,31564,64365,19196,-4641,-868,173,-43,-49,39,255,503,-111,1,0,42,56,80,1,53298,1
2,30147,30662,31570,64366,19209,-4624,-876,194,-80,-67,37,251,489,-109,1,0,42,56,120,1,53298,1
2,30177,30661,31565,64367,19222,-4639,-893,179,-41,-87,55,255,489,-109,1,0,42,56,160,1,53298,1
