sensorStatus,cap1,cap2,cap3,counter,microseconds_since_last_tick,accX,accY,accZ,gyroX,gyroY,gyroZ,magnetX,magnetY,magnetZ,day,hour,min,sec,msec,sync,battery_fuel,crc_good
2,31719,30442,32225,34244,25387,-4035,1170,-860,12,-1,14,25,489,-171,1,0,22,51,240,1,53298,1
2,31725,30500,32234,34245,25402,-4036,1177,-863,37,-2,23,34,486,-166,1,0,22,51,280,1,53298,1
2,31729,30479,32234,34246,25415,-4042,1165,-867,26,-1,23,22,484,-166,1,0,22,51,320,1,53298,1
2,31682,30217,32190,34247,25429,-4033,1179,-839,-9,8,18,15,485,-159,1,0,22,51,360,1,53298,1
2,31659,30229,32157,34248,25443,-4029,1175,-874,7,6,17,28,476,-172,1,0,22,51,400,1,53298,1
2,31583,33489,32053,34249,25457,-4033,1172,-855,16,-9,13,25,479,-167,1,0,22,51,440,1,53298,1
2,31540,33484,32035,34250,25471,-4033,1175,-861,16,-14,15,26,484,-166,1,0,22,51,480,1,53298,1
2,31587,30588,32098,34251,25485,-4024,1174,-860,12,0,20,20,484,-160,1,0,22,51,520,1,53298,1
2,31632,30372,32108,34252,25500,-4026,1181,-847,6,4,29,23,483,-163,1,0,22,51,560,1,53298,1
1,31682,30257,32190,34264,24845,-4025,1180,-867,9,-1,13,29,485,-169,1,0,22,52,40,0,53298,1
2,31696,30334,32205,34265,24859,-4034,1175,-873,6,-3,16,24,488,-166,1,0,22,52,80,0,53298,1
2,31697,30345,32201,34266,24873,-4023,1178,-865,11,-10,18,21,471,-169,1,0,22,52,120,0,53298,1
2,31699,30333,32205,34267,24887,-4032,1165,-851,7,-7,14,27,493,-169,1,0,22,52,160,0,53298,1
2,31695,30341,32206,34268,24900,-4038,1175,-868,18,-5,23,32,484,-172,1,0,22,52,200,0,53298,1
2,31714,30324,32219,34269,24913,-4033,1171,-858,17,-3,16,16,486,-156,1,0,22,52,240,0,53298,1
2,31705,30341,32215,34270,24927,-4030,1167,-860,17,2,23,27,489,-163,1,0,22,52,280,0,53298,1
2,31703,30332,32206,34271,24941,-4042,1173,-860,16,-1,18,28,486,-166,1,0,22,52,320,0,53298,1
2,31703,30332,32207,34272,24955,-4037,1179,-867,6,-6,8,26,478,-162,1,0,22,52,360,0,53298,1
2,31707,30355,32207,34273,24969,-4033,1171,-851,17,-8,16,28,486,-170,1,0,22,52,400,0,53298,1
2,31693,30303,32206,34274,24983,-4031,1173,-870,14,-4,24,26,486,-168,1,0,22,52,440,0,53298,1
2,31681,30257,32186,34275,24997,-4046,1165,-851,6,-8,27,23,481,-167,1,0,22,52,480,0,53298,1
2,31660,30175,32166,34276,25011,-4022,1180,-864,13,-5,13,15,475,-171,1,0,22,52,520,0,53298,1
2,31658,30184,32158,34277,25025,-4030,1178,-865,9,-5,17,27,479,-167,1,0,22,52,560,0,53298,1
2,31648,30180,32130,34278,25040,-4041,1163,-863,12,3,10,22,486,-164,1,0,22,52,600,0,53298,1
2,31599,30585,32093,34279,25054,-4029,1165,-873,11,-9,9,27,485,-169,1,0,22,52,640,0,53298,1
2,31635,30230,32139,34280,25069,-4030,1172,-862,17,-4,25,28,484,-162,1,0,22,52,680,0,53298,1
2,31644,30180,32151,34281,25083,-4034,1179,-857,-1,-9,25,30,478,-176,1,0,22,52,720,0,53298,1
2,31659,30190,32154,34282,25098,-4027,1173,-868,5,-7,25,20,482,-170,1,0,22,52,760,0,53298,1
2,31666,30197,32164,34283,25112,-4040,1182,-858,19,-10,17,24,486,-162,1,0,22,52,800,0,53298,1
2,31672,30205,32172,34284,25127,-4031,1174,-847,13,-2,19,21,485,-165,1,0,22,52,840,0,53298,1
2,31665,30214,32179,34285,25141,-4032,1166,-856,4,3,12,32,494,-160,1,0,22,52,880,0,53298,1
2,31654,30195,32155,34286,25154,-4030,1164,-872,19,-3,15,20,482,-162,1,0,22,52,920,0,53298,1
2,31650,30193,32146,34287,25167,-4034,1171,-869,14,-8,17,30,480,-174,1,0,22,52,960,0,53298,1
1,31618,30288,32115,34288,0,-4034,1168,-848,18,-4,19,31,479,-169,1,0,22,53,0,0,53298,1
2,31589,30523,32095,34289,24377,-4041,1176,-865,23,4,14,20,484,-164,1,0,22,53,40,0,53298,1
2,31615,30248,32117,34290,24392,-4024,1173,-862,18,-6,14,24,488,-166,1,0,22,53,80,0,53298,1
2,31629,30209,32150,34291,24406,-4033,1173,-873,16,3,7,14,488,-172,1,0,22,53,120,0,53298,1
2,31665,30220,32167,34292,24420,-4039,1175,-860,17,-2,23,23,487,-163,1,0,22,53,160,0,53298,1
2,31673,30250,32173,34293,24435,-4034,1167,-862,16,6,19,22,482,-168,1,0,22,53,200,0,53298,1
2,31671,30245,32174,34294,24450,-4043,1162,-862,12,5,22,30,482,-170,1,0,22,53,240,0,53298,1
2,31661,30227,32164,34295,24465,-4020,1169,-862,15,-9,16,27,481,-167,1,0,22,53,280,0,53298,1
2,31649,30176,32146,34296,24481,-4038,1172,-860,8,-10,18,17,479,-173,1,0,22,53,320,0,53298,1
2,31648,30184,32156,34297,24496,-4043,1174,-868,5,-10,15,27,481,-167,1,0,22,53,360,0,53298,1
2,31616,30358,32117,34298,24511,-4027,1184,-848,9,-11,20,16,478,-160,1,0,22,53,400,0,53298,1
2,31589,30616,32081,34299,24526,-4031,1170,-862,6,-12,27,27,491,-173,1,0,22,53,440,0,53298,1
2,31603,30632,32109,34300,24541,-4031,1169,-861,26,-5,25,27,485,-167,1,0,22,53,480,0,53298,1
2,31574,30995,32079,34301,24556,-4031,1178,-854,19,1,20,19,481,-163,1,0,22,53,520,0,53298,1
2,31606,30477,32117,34302,24571,-4038,1161,-866,-6,-2,16,23,487,-165,1,0,22,53,560,0,53298,1
2,31610,30474,32104,34303,24585,-4042,1160,-870,5,-2,17,26,484,-170,1,0,22,53,600,0,53298,1
2,31626,30399,32127,34304,24599,-4020,1171,-873,19,-11,14,15,475,-173,1,0,22,53,640,0,53298,1
2,31649,30272,32158,34305,24614,-4036,1169,-869,17,-7,19,23,485,-169,1,0,22,53,680,0,53298,1
2,31645,30340,32153,34306,24628,-4033,1177,-869,15,3,19,28,488,-170,1,0,22,53,720,0,53298,1
2,31633,30412,32138,34307,24642,-4025,1177,-862,24,-9,22,32,480,-160,1,0,22,53,760,0,53298,1
2,31630,30405,32138,34308,24657,-4052,1164,-875,14,-3,19,19,487,-167,1,0,22,53,800,0,53298,1
2,31621,30483,32125,34309,24672,-4042,1173,-856,-3,1,16,24,480,-168,1,0,22,53,840,0,53298,1
2,31629,30389,32122,34310,24687,-4048,1146,-890,-53,27,44,27,491,-163,1,0,22,53,880,0,53298,1
2,31626,30464,32127,34311,24701,-4061,1162,-872,-179,41,71,28,486,-168,1,0,22,53,920,0,53298,1
2,31642,30442,32144,34312,24716,-4172,1054,-935,-402,53,-5,25,483,-179,1,0,22,53,960,0,53298,1
1,31688,30444,32206,34313,0,-4113,1073,-948,-584,161,-318,27,491,-171,1,0,22,54,0,0,53298,1
2,31750,30551,32289,34314,23908,-4187,1139,-1024,-1274,417,-798,28,484,-174,1,0,22,54,40,0,53298,1
2,31690,30569,32231,34315,23923,-4090,1220,-984,-2326,680,-1047,34,500,-166,1,0,22,54,80,0,53298,1
2,31691,30621,32221,34316,23938,-4342,545,-864,-2763,734,-1314,37,491,-167,1,0,22,54,120,0,53298,1
2,31685,30459,32228,34317,23953,-4382,376,-982,-1614,799,-2391,36,500,-174,1,0,22,54,160,0,53298,1
2,31754,30247,32300,34318,23968,-4638,362,-1055,255,880,-3578,48,506,-176,1,0,22,54,200,0,53298,1
2,31750,30229,32309,34319,23984,-4719,192,-1267,1579,1400,-4866,55,525,-183,1,0,22,54,240,0,53298,1
2,31742,30237,32314,34320,24000,-4420,218,-1140,3374,1548,-6537,70,542,-186,1,0,22,54,280,0,53298,1
2,31760,30304,32260,34321,24018,-4164,362,-870,3935,1553,-7701,90,554,-196,1,0,22,54,320,0,53298,1
2,31803,30305,32352,34322,24034,-4106,246,-964,2057,1560,-8261,103,569,-193,1,0,22,54,360,0,53298,1
2,31844,30260,32382,34323,24051,-4124,407,-809,2613,1230,-8110,133,583,-211,1,0,22,54,400,0,53298,1
2,31888,30361,32451,34324,24068,-4267,605,-561,3038,137,-7640,144,586,-216,1,0,22,54,440,0,53298,1
2,31894,30290,32452,34325,24086,-4295,711,-689,1025,-591,-6852,166,594,-222,1,0,22,54,480,0,53298,1
2,31739,32025,32282,34326,24103,-4350,722,-785,-147,-1176,-5694,185,599,-221,1,0,22,54,520,0,53298,1
2,31813,30403,32374,34327,24121,-4384,746,-894,-931,-1382,-4280,201,595,-219,1,0,22,54,560,0,53298,1
2,31843,30263,32404,34328,24138,-4356,678,-975,-1139,-1324,-2670,210,612,-210,1,0,22,54,600,0,53298,1
2,31747,30867,32313,34329,24155,-4345,485,-1117,-1077,-1044,-964,198,594,-218,1,0,22,54,640,0,53298,1
2,31724,31648,32294,34330,24171,-4325,246,-1162,-672,-460,547,204,594,-208,1,0,22,54,680,0,53298,1
2,31755,31078,32315,34331,24188,-4326,80,-1174,-193,112,1692,192,596,-200,1,0,22,54,720,0,53298,1
2,31751,30827,32299,34332,24204,-4397,-75,-1128,57,464,2475,182,598,-208,1,0,22,54,760,0,53298,1
2,31735,30794,32301,34333,24219,-4509,-351,-1156,-378,619,2736,175,587,-205,1,0,22,54,800,0,53298,1
2,31722,31020,32272,34334,24235,-4529,-494,-1121,-423,669,2434,168,586,-210,1,0,22,54,840,0,53298,1
2,31713,31104,32262,34335,24252,-4581,-699,-1067,-501,637,1687,167,589,-197,1,0,22,54,880,0,53298,1
2,31713,31155,32266,34336,24269,-4676,-945,-954,-194,439,480,172,576,-208,1,0,22,54,920,0,53298,1
2,31725,31107,32274,34337,24285,-4737,-1075,-910,41,33,-1242,177,585,-211,1,0,22,54,960,0,53298,1
1,31723,30995,32266,34338,0,-4914,-1339,-889,7,-361,-3193,189,585,-221,1,0,22,55,0,1,53298,1
2,31736,31379,32291,34339,23439,-4804,-1333,-885,74,-733,-5402,206,584,-216,1,0,22,55,40,1,53298,1
2,31835,30300,32394,34340,23457,-4737,-1210,-949,414,-1027,-7372,239,583,-215,1,0,22,55,80,1,53298,1
2,31664,33424,32278,34341,23473,-4601,-906,-907,1029,-1211,-8711,266,584,-222,1,0,22,55,120,1,53298,1
2,31801,30705,32367,34342,23490,-4542,-739,-887,1217,-1390,-9348,296,576,-228,1,0,22,55,160,1,53298,1
2,31766,30391,32400,34343,23507,-4522,-541,-815,1080,-1417,-9246,327,567,-233,1,0,22,55,200,1,53298,1
2,31769,30707,32324,34344,23524,-4516,-384,-808,713,-1577,-8433,353,547,-229,1,0,22,55,240,1,53298,1
2,31784,30588,32357,34345,23541,-4403,-188,-909,353,-1694,-7026,372,540,-230,1,0,22,55,280,1,53298,1
2,31770,30400,32343,34346,23558,-4124,78,-1097,296,-1523,-4773,380,520,-224,1,0,22,55,320,1,53298,1
2,31679,32300,32268,34347,23576,-3805,500,-1231,845,-918,-1549,381,513,-221,1,0,22,55,360,1,53298,1
2,31634,32961,32227,34348,23593,-3234,1984,-2157,1269,586,3152,365,533,-229,1,0,22,55,400,1,53298,1
2,31711,32661,32353,34349,23610,-2506,3875,-2963,3662,3541,11353,316,574,-224,1,0,22,55,440,1,53298,1
2,31749,30673,32308,34350,23627,-3646,3771,-3120,3714,9070,20910,241,617,-243,1,0,22,55,480,1,53298,1
2,31706,32035,32275,34351,23643,-5557,3334,-3176,1461,14553,28459,134,632,-264,1,0,22,55,520,1,53298,1
2,31753,30267,32426,34352,23659,-7083,4426,-2694,657,16786,32767,14,588,-292,1,0,22,55,560,1,53298,1
2,31661,30345,32352,34353,23674,-10470,2121,-2149,-3488,16004,32767,-40,508,-318,1,0,22,55,600,1,53298,1
2,31844,30367,32419,34354,23688,-9192,-1243,-1992,-12951,12410,29954,-70,432,-308,1,0,22,55,640,1,53298,1
2,31828,30580,32429,34355,23702,-5750,-1997,-1534,-13622,7735,19539,-63,379,-309,1,0,22,55,680,1,53298,1
2,31795,30379,32307,34356,23717,-3889,-1387,-560,-9073,5706,11047,-58,360,-296,1,0,22,55,720,1,53298,1
2,31623,30531,32292,34357,23732,-2738,-1326,-156,-1927,2312,7492,-59,345,-297,1,0,22,55,760,1,53298,1
2,31653,30452,32259,34358,23747,-2677,-1190,-162,2861,-118,4982,-56,336,-306,1,0,22,55,800,1,53298,1
2,31490,30321,32270,34359,23762,-2698,-484,-455,2039,-1564,1145,-63,335,-311,1,0,22,55,840,1,53298,1
2,31446,30172,32082,34360,23776,-3091,473,-1093,-1234,-3119,-3378,-63,351,-291,1,0,22,55,880,1,53298,1
2,31460,30301,32091,34361,23791,-3334,1627,-1887,-5394,-4192,-8310,-73,375,-285,1,0,22,55,920,1,53298,1
2,31384,30301,32073,34362,23805,-3984,698,-2380,-4990,-4844,-12258,-67,407,-267,1,0,22,55,960,1,53298,1
1,31288,30867,31916,34363,0,-3418,3277,-3116,289,-4118,-15310,-57,439,-269,1,0,22,56,0,0,53298,1
2,31330,30188,31983,34364,22969,-3779,2242,-2389,6563,-3352,-13986,-42,470,-270,1,0,22,56,40,0,53298,1
2,31339,30165,32000,34365,22984,-4437,1879,-2285,8748,-2141,-13234,-31,501,-283,1,0,22,56,80,0,53298,1
2,31355,30173,32025,34366,22998,-4386,1539,-1512,9252,-3157,-13592,-8,542,-286,1,0,22,56,120,0,53298,1
2,31301,33452,31925,34367,23011,-4132,1267,-1322,4601,-3521,-13748,22,566,-280,1,0,22,56,160,0,53298,1
2,31347,30476,31962,34368,23025,-4043,1216,-1532,549,-2995,-13217,54,594,-282,1,0,22,56,200,0,53298,1
2,31426,30395,32024,34369,23041,-4202,805,-1307,397,-2738,-12078,85,611,-287,1,0,22,56,240,0,53298,1
2,31618,30169,32102,34370,23056,-4898,190,-1398,869,-2706,-11046,118,626,-298,1,0,22,56,280,0,53298,1
2,31577,30241,32015,34371,23073,-5172,-167,-1199,1881,-3336,-11688,156,638,-278,1,0,22,56,320,0,53298,1
2,31645,30345,32106,34372,23089,-5460,-611,-1119,1057,-4017,-13023,228,628,-268,1,0,22,56,360,0,53298,1
2,31570,31426,32079,34373,23105,-5358,-1061,-1031,-15,-4718,-14874,278,610,-274,1,0,22,56,400,0,53298,1
2,31581,30385,32133,34374,23122,-5096,-1109,-1077,-223,-5323,-16641,339,583,-257,1,0,22,56,440,0,53298,1
2,31520,32703,32072,34375,23140,-4778,-819,-1078,612,-5449,-17147,382,536,-244,1,0,22,56,480,0,53298,1
2,31493,32728,32050,34376,23157,-4352,-394,-1125,849,-5252,-16467,417,493,-243,1,0,22,56,520,0,53298,1
2,31478,32525,32026,34377,23176,-4022,49,-1329,499,-4682,-14291,441,455,-227,1,0,22,56,560,0,53298,1
2,31478,31663,32047,34378,23194,-3717,902,-1949,1203,-3689,-9980,451,435,-233,1,0,22,56,600,0,53298,1
2,31325,32512,31978,34379,23212,-2932,2536,-2614,4544,-1836,-2722,449,429,-217,1,0,22,56,640,0,53298,1
2,31339,32235,32029,34380,23230,-2462,4859,-2977,6897,1423,8522,436,478,-216,1,0,22,56,680,0,53298,1
2,31655,31939,32236,34381,23249,-3369,6751,-4516,2348,8030,22361,368,562,-226,1,0,22,56,720,0,53298,1
2,31688,34053,32196,34382,23267,-5668,6423,-4985,-2167,16082,32767,231,647,-269,1,0,22,56,760,0,53298,1
2,31766,32694,32290,34383,23287,-12694,1751,-3954,-2045,22160,32767,57,639,-303,1,0,22,56,800,0,53298,1
2,31708,30745,32274,34384,23304,-13080,3821,-2633,-5797,22449,32767,-48,526,-340,1,0,22,56,840,0,53298,1
2,31770,30329,32315,34385,23319,-11727,-1398,-2334,-15134,17581,32767,-69,415,-339,1,0,22,56,880,0,53298,1
2,31748,30377,32285,34386,23334,-6745,-2917,-1373,-15366,10641,26242,-57,349,-315,1,0,22,56,920,0,53298,1
2,31699,30308,32235,34387,23349,-4194,-1939,-130,-11338,7241,15166,-43,323,-293,1,0,22,56,960,0,53298,1
1,31625,30656,32177,34388,0,-2790,-2700,273,-4327,3593,10910,-46,312,-290,1,0,22,57,0,1,53298,1
2,31447,30445,32092,34389,22500,-2288,-2501,90,2658,-70,7153,-36,310,-290,1,0,22,57,40,1,53298,1
2,31490,30150,32114,34390,22514,-2282,-1489,-117,4546,-1889,2079,-51,303,-297,1,0,22,57,80,1,53298,1
2,31516,30232,32176,34391,22529,-2751,112,-747,2766,-3890,-3313,-54,306,-302,1,0,22,57,120,1,53298,1
2,31525,30367,32182,34392,22543,-3157,1619,-1982,-1584,-5598,-9082,-66,330,-302,1,0,22,57,160,1,53298,1
2,31523,30356,32171,34393,22558,-3648,1996,-2611,-3812,-6277,-13891,-74,364,-290,1,0,22,57,200,1,53298,1
2,31526,30436,32175,34394,22572,-3166,3649,-2855,-1970,-6014,-16615,-65,395,-277,1,0,22,57,240,1,53298,1
2,31511,30416,32155,34395,22587,-3725,2603,-2518,751,-5305,-16020,-63,435,-285,1,0,22,57,280,1,53298,1
2,31511,30393,32167,34396,22601,-3974,2285,-2642,3373,-3865,-15554,-46,464,-274,1,0,22,57,320,1,53298,1
2,31512,30378,32170,34397,22616,-4462,1346,-1694,7670,-4015,-14768,-34,504,-280,1,0,22,57,360,1,53298,1
2,31534,30262,32195,34398,22631,-4739,1338,-1622,6945,-4532,-14959,-6,534,-282,1,0,22,57,400,1,53298,1
2,31406,30208,32137,34399,22646,-4851,588,-1532,3678,-4397,-15496,41,579,-277,1,0,22,57,440,1,53298,1
2,31650,30244,32229,34400,22662,-5190,102,-1267,2113,-4435,-16327,87,597,-275,1,0,22,57,480,1,53298,1
2,31709,30281,32173,34401,22678,-5293,-147,-1287,-176,-4722,-18166,145,619,-271,1,0,22,57,520,1,53298,1
2,31691,30275,32259,34402,22695,-5277,-432,-1066,162,-4926,-19878,213,631,-263,1,0,22,57,560,1,53298,1
2,31767,30314,32365,34403,22713,-5483,-304,-1115,862,-5134,-20985,281,603,-267,1,0,22,57,600,1,53298,1
2,31665,32138,32287,34404,22731,-5288,183,-904,1492,-5445,-21604,369,563,-257,1,0,22,57,640,1,53298,1
2,31650,30314,32342,34405,22749,-4983,576,-1079,-192,-5172,-20491,400,512,-244,1,0,22,57,680,1,53298,1
2,31546,33261,32205,34406,22767,-4502,1408,-1650,-788,-4482,-16796,426,476,-248,1,0,22,57,720,1,53298,1
2,31528,32202,32254,34407,22784,-3326,3059,-2550,2220,-3257,-9321,437,453,-241,1,0,22,57,760,1,53298,1
2,31609,30483,32307,34408,22801,-2005,5471,-3257,7649,-910,3660,414,480,-224,1,0,22,57,800,1,53298,1
2,31659,30827,32278,34409,22819,-2125,6199,-3403,8336,4702,19073,379,539,-225,1,0,22,57,840,1,53298,1
2,31483,31154,31969,34410,22837,-4387,4864,-3239,3988,11770,32105,255,627,-247,1,0,22,57,880,1,53298,1
2,31901,30977,32365,34411,22853,-8004,3100,-4126,702,17478,32767,95,651,-267,1,0,22,57,920,1,53298,1
2,31813,30485,32448,34412,22871,-7924,3417,-1461,525,19181,32767,-5,587,-307,1,0,22,57,960,1,53298,1
1,31855,30517,32484,34413,0,-11839,677,-2366,-10610,16571,32767,-65,453,-313,1,0,22,58,0,1,53298,1
2,31830,30420,32456,34414,22031,-7674,-1009,-2369,-18704,12159,28508,-71,387,-303,1,0,22,58,40,1,53298,1
2,31834,30486,32472,34415,22045,-4648,-1400,-1577,-15140,8324,20514,-57,361,-287,1,0,22,58,80,1,53298,1
2,31852,30460,32481,34416,22059,-3806,-1680,-283,-8096,6831,14641,-58,324,-278,1,0,22,58,120,1,53298,1
2,31713,31200,32238,34417,22073,-2937,-2098,-151,-561,2446,10333,-55,317,-281,1,0,22,58,160,1,53298,1
2,31704,30499,32306,34418,22088,-2321,-1699,-401,4127,-366,5352,-50,318,-286,1,0,22,58,200,1,53298,1
2,31637,30335,32292,34419,22102,-2459,-573,-383,3328,-1278,31,-53,313,-293,1,0,22,58,240,1,53298,1
2,31631,30268,32293,34420,22117,-2662,730,-987,-344,-2629,-4869,-67,321,-291,1,0,22,58,280,1,53298,1
2,31580,30184,32235,34421,22131,-3331,1441,-1993,-3773,-4031,-9470,-71,339,-281,1,0,22,58,320,1,53298,1
2,31549,30189,32213,34422,22145,-3327,3078,-2512,-1091,-5054,-13217,-64,364,-286,1,0,22,58,360,1,53298,1
2,31568,30197,32229,34423,22160,-3031,3235,-2292,1811,-5065,-13718,-63,399,-283,1,0,22,58,400,1,53298,1
2,31605,30289,32249,34424,22174,-3709,2558,-2432,2625,-3526,-12792,-65,435,-265,1,0,22,58,440,1,53298,1
2,31613,30215,32234,34425,22188,-4148,2113,-1895,5988,-3111,-12495,-54,466,-284,1,0,22,58,480,1,53298,1
2,31519,30270,32234,34426,22203,-4470,1552,-1630,6436,-4028,-12826,-28,498,-280,1,0,22,58,520,1,53298,1
2,31463,30662,32210,34427,22217,-4511,1206,-1585,4910,-4395,-13353,-5,519,-287,1,0,22,58,560,1,53298,1
2,31523,32790,32149,34428,22234,-4474,595,-1499,4041,-4488,-13981,23,557,-275,1,0,22,58,600,1,53298,1
2,31692,31069,32244,34429,22250,-4754,174,-1143,2733,-4623,-15005,54,580,-266,1,0,22,58,640,1,53298,1
2,31726,32219,32368,34430,22266,-5178,-211,-1033,-244,-5117,-17151,115,603,-267,1,0,22,58,680,1,53298,1
2,31708,30448,32370,34431,22282,-5278,-163,-881,-1384,-5652,-19193,180,608,-260,1,0,22,58,720,1,53298,1
2,31802,30287,32424,34432,22300,-5910,-719,-749,-3699,-6125,-21371,245,605,-251,1,0,22,58,760,1,53298,1
2,31750,30263,32378,34433,22318,-6127,-1226,-1226,-3544,-6634,-23309,333,571,-241,1,0,22,58,800,1,53298,1
2,31740,30275,32364,34434,22334,-5790,-483,-1093,2273,-7818,-24163,384,512,-228,1,0,22,58,840,1,53298,1
2,31572,31747,32289,34435,22351,-4996,706,-1616,3839,-7309,-22644,432,462,-218,1,0,22,58,880,1,53298,1
2,31706,30253,32297,34436,22368,-3840,2199,-2152,3380,-4782,-17829,454,410,-226,1,0,22,58,920,1,53298,1
2,31566,31555,32222,34437,22385,-2628,4067,-2752,3095,-1112,-8033,462,392,-208,1,0,22,58,960,1,53298,1
1,31641,31087,32236,34438,0,-2081,5315,-3239,3361,3247,6269,435,437,-227,1,0,22,59,0,1,53298,1
2,31710,30936,32299,34439,21564,-3073,5393,-3420,3085,8628,21626,377,535,-233,1,0,22,59,40,1,53298,1
2,31723,33374,32275,34440,21582,-6019,5290,-3057,2118,13893,32767,265,615,-265,1,0,22,59,80,1,53298,1
2,31685,34445,32275,34441,21601,-9946,3745,-2966,-6285,18196,32767,104,638,-292,1,0,22,59,120,1,53298,1
2,31582,32976,32186,34442,21620,-11297,1535,-3419,-12175,17035,32767,-20,554,-306,1,0,22,59,160,1,53298,1
2,31725,31431,32336,34443,21637,-10994,-255,-2514,-10046,14378,32767,-62,462,-316,1,0,22,59,200,1,53298,1
2,31676,32219,32259,34444,21654,-7301,-1420,-1869,-8075,12142,30436,-63,399,-315,1,0,22,59,240,1,53298,1
2,31656,31657,32229,34445,21670,-4464,-1031,-825,-3606,10207,20978,-54,352,-316,1,0,22,59,280,1,53298,1
2,31704,30472,32291,34446,21686,-3465,-1012,467,-890,8127,15448,-44,328,-324,1,0,22,59,320,1,53298,1
2,31635,30573,32172,34447,21700,-3412,-1466,900,99,4114,11881,-47,305,-313,1,0,22,59,360,1,53298,1
2,31543,33312,32115,34448,21715,-2876,-1476,140,-2638,237,5911,-55,289,-307,1,0,22,59,400,1,53298,1
2,31545,32425,32149,34449,21729,-2574,-586,-655,-4134,-2393,-821,-47,309,-297,1,0,22,59,440,1,53298,1
2,31520,32673,32108,34450,21744,-2881,303,-1570,-2148,-4407,-6138,-56,320,-292,1,0,22,59,480,1,53298,1
2,31508,33294,32108,34451,21758,-3651,922,-2106,2395,-6133,-10997,-68,338,-292,1,0,22,59,520,1,53298,1
2,31516,33068,32113,34452,21773,-4226,1284,-2294,4122,-7388,-16492,-69,381,-309,1,0,22,59,560,1,53298,1
2,31530,31915,32117,34453,21787,-4069,2137,-2773,4004,-7397,-20409,-50,436,-298,1,0,22,59,600,1,53298,1
2,31599,30835,32179,34454,21802,-4455,1648,-2315,4777,-6690,-20694,-44,482,-292,1,0,22,59,640,1,53298,1
2,31587,31675,32187,34455,21816,-5667,1115,-2197,5237,-7229,-20885,-3,527,-285,1,0,22,59,680,1,53298,1
2,31615,31088,32174,34456,21833,-5496,1264,-2301,5215,-8101,-22430,43,579,-271,1,0,22,59,720,1,53298,1
2,31715,31188,32222,34457,21851,-5528,830,-1690,4075,-7465,-22762,105,613,-261,1,0,22,59,760,1,53298,1
2,31665,31482,32187,34458,21870,-5830,577,-1564,86,-6666,-23475,179,621,-261,1,0,22,59,800,1,53298,1
2,31761,34555,32250,34459,21888,-5614,244,-1624,-2508,-5649,-24046,269,611,-261,1,0,22,59,840,1,53298,1
2,31679,34348,32212,34460,21906,-5591,90,-1389,-746,-4912,-23434,348,584,-254,1,0,22,59,880,1,53298,1
2,31445,32579,31939,34461,21924,-5197,363,-1254,215,-4328,-22120,405,525,-257,1,0,22,59,920,1,53298,1
2,31415,33556,31913,34462,21942,-4602,763,-1194,-267,-3419,-19742,437,473,-257,1,0,22,59,960,1,53298,1
1,31413,33765,31931,34463,0,-3921,1711,-1616,-4,-2414,-14641,457,431,-255,1,0,23,0,0,0,53298,1
2,31417,33263,31934,34464,21096,-2891,3491,-2337,3130,-1113,-5407,443,423,-251,1,0,23,0,40,0,53298,1
2,31594,34407,32142,34465,21114,-2089,6037,-3249,7471,1288,8855,418,480,-236,1,0,23,0,80,0,53298,1
2,31619,33057,32163,34466,21131,-2994,7678,-4257,7229,7207,25709,340,566,-244,1,0,23,0,120,0,53298,1
2,31710,33421,32148,34467,21148,-6026,6912,-4570,567,16002,32767,192,636,-298,1,0,23,0,160,0,53298,1
2,31682,31433,32221,34468,21166,-9871,3971,-4497,-6528,22835,32767,26,584,-344,1,0,23,0,200,0,53298,1
2,31750,31159,32370,34469,21184,-15512,2451,-3253,-5465,22899,32767,-62,456,-354,1,0,23,0,240,0,53298,1
2,31715,31173,32318,34470,21200,-11890,-1587,-2293,-8734,16873,32767,-64,370,-342,1,0,23,0,280,0,53298,1
2,31725,31094,32326,34471,21216,-5535,-1728,-1832,-11004,10660,22712,-59,333,-331,1,0,23,0,320,0,53298,1
2,31746,30275,32277,34472,21231,-2986,-833,-251,-12003,8694,12545,-47,309,-301,1,0,23,0,360,0,53298,1
2,31771,30312,32322,34473,21247,-2633,-2665,6,-5529,5279,13462,-31,295,-301,1,0,23,0,400,0,53298,1
2,31841,30419,32414,34474,21262,-2734,-2628,659,5309,1391,11087,-37,285,-307,1,0,23,0,440,0,53298,1
2,31744,30474,32329,34475,21277,-2655,-1198,348,1838,-852,2959,-45,281,-311,1,0,23,0,480,0,53298,1
2,31609,30305,32190,34476,21290,-2016,1189,-1341,-4778,-3121,-3806,-53,287,-295,1,0,23,0,520,0,53298,1
2,31579,30321,32162,34477,21305,-2667,1529,-2549,-2664,-4293,-6198,-62,300,-306,1,0,23,0,560,0,53298,1
2,31517,30410,32105,34478,21319,-3442,2132,-2570,3306,-5917,-11209,-69,331,-309,1,0,23,0,600,0,53298,1
2,31507,30237,32090,34479,21333,-2725,3293,-2615,2124,-6609,-16402,-69,349,-313,1,0,23,0,640,0,53298,1
2,31450,30160,32006,34480,21347,-3372,2052,-2720,-770,-4998,-16141,-64,388,-302,1,0,23,0,680,0,53298,1
2,31424,30160,31980,34481,21362,-3976,1524,-2516,3474,-4879,-16670,-60,432,-308,1,0,23,0,720,0,53298,1
2,31426,30112,31957,34482,21378,-4388,1260,-1990,8169,-5787,-17790,-37,467,-323,1,0,23,0,760,0,53298,1
2,31495,30147,32020,34483,21394,-4783,1068,-1796,7581,-6716,-19201,1,521,-333,1,0,23,0,800,0,53298,1
2,31537,30230,32030,34484,21410,-5082,944,-1814,4612,-7106,-20528,29,557,-315,1,0,23,0,840,0,53298,1
2,31559,30849,31943,34485,21427,-5435,283,-1535,2938,-6968,-21726,93,597,-305,1,0,23,0,880,0,53298,1
2,31603,30966,31965,34486,21444,-5868,-113,-1307,2088,-7397,-23177,165,619,-285,1,0,23,0,920,0,53298,1
2,31562,31669,31983,34487,21462,-5999,-274,-1485,476,-7476,-25350,261,605,-283,1,0,23,0,960,0,53298,1
1,31512,31364,32010,34488,0,-6057,-126,-1660,-533,-6378,-26948,347,569,-269,1,0,23,1,0,0,53298,1
2,31522,34357,32003,34489,20627,-5628,485,-1464,-574,-4907,-26939,421,513,-279,1,0,23,1,40,0,53298,1
2,31486,33886,31977,34490,20644,-5066,1227,-1547,-625,-3861,-23859,455,443,-273,1,0,23,1,80,0,53298,1
2,31486,34075,31981,34491,20663,-4002,2535,-1947,625,-3467,-16730,479,405,-271,1,0,23,1,120,0,53298,1
2,31427,33099,31934,34492,20679,-2428,4389,-2605,3689,-2920,-4915,464,406,-250,1,0,23,1,160,0,53298,1
2,31452,34232,31978,34493,20696,-1746,5848,-3244,4879,-185,10479,431,463,-239,1,0,23,1,200,0,53298,1
2,31505,34307,31996,34494,20713,-3164,5657,-3937,2721,5695,26346,363,557,-263,1,0,23,1,240,0,53298,1
2,31552,34165,31989,34495,20730,-6360,4972,-3001,1120,12368,32767,231,629,-291,1,0,23,1,280,0,53298,1
2,31493,32804,31967,34496,20747,-9642,4730,-2288,-5924,16282,32767,60,622,-298,1,0,23,1,320,0,53298,1
2,31364,33180,31943,34497,20765,-13467,2662,-3104,-15918,14307,32767,-57,515,-309,1,0,23,1,360,0,53298,1
2,31314,31200,31905,34498,20781,-11671,-484,-3321,-18848,10491,32767,-71,409,-287,1,0,23,1,400,0,53298,1
2,31386,30152,31989,34499,20797,-6711,-1575,-2499,-11322,7796,31129,-57,349,-279,1,0,23,1,440,0,53298,1
2,31412,30590,31899,34500,20812,-4107,-1819,-1250,-2747,6615,21053,-49,321,-287,1,0,23,1,480,0,53298,1
2,31381,30072,31949,34501,20828,-2999,-2131,-288,3208,5308,15406,-44,304,-290,1,0,23,1,520,0,53298,1
2,31372,30598,31934,34502,20843,-3009,-2419,531,5958,3118,10550,-37,289,-299,1,0,23,1,560,0,53298,1
2,31321,30096,31853,34503,20858,-2985,-2707,627,2014,-47,2468,-40,286,-290,1,0,23,1,600,0,53298,1
2,31313,30365,31842,34504,20874,-3083,-1358,-528,-2875,-3230,-7462,-50,306,-284,1,0,23,1,640,0,53298,1
2,31322,30309,31857,34505,20889,-3451,-680,-1467,-927,-5363,-14156,-63,337,-293,1,0,23,1,680,0,53298,1
2,31323,30075,31882,34506,20905,-5376,424,-2485,5741,-7139,-19285,-62,380,-300,1,0,23,1,720,0,53298,1
2,31339,30104,31890,34507,20921,-5444,2899,-3566,10933,-9139,-24572,-45,439,-303,1,0,23,1,760,0,53298,1
2,31353,30053,31903,34508,20936,-4927,3219,-3038,12431,-8971,-24684,-31,495,-305,1,0,23,1,800,0,53298,1
2,31327,31539,31855,34509,20953,-5937,2791,-2561,9351,-9530,-23555,12,554,-308,1,0,23,1,840,0,53298,1
2,31437,30077,31906,34510,20969,-5252,2533,-2425,3070,-9999,-23414,72,594,-288,1,0,23,1,880,0,53298,1
2,31425,32915,31857,34511,20987,-4946,1165,-1835,-188,-9113,-22063,140,602,-262,1,0,23,1,920,0,53298,1
2,31434,32225,31852,34512,21006,-5038,936,-1510,-1103,-8257,-20710,207,595,-257,1,0,23,1,960,0,53298,1
1,31468,30099,31898,34513,0,-4688,706,-1249,-1321,-7415,-19117,272,594,-246,1,0,23,2,0,0,53298,1
2,31444,30065,31908,34514,20159,-4670,279,-1144,-1595,-5943,-17174,326,568,-240,1,0,23,2,40,0,53298,1
2,31414,30060,31884,34515,20177,-4746,-67,-983,-1334,-4286,-15483,365,533,-239,1,0,23,2,80,0,53298,1
2,31396,30080,31874,34516,20194,-4979,-453,-921,-2048,-2836,-14212,396,508,-226,1,0,23,2,120,0,53298,1
2,31387,30085,31864,34517,20211,-4553,-691,-1334,-2204,-1740,-12699,423,471,-241,1,0,23,2,160,0,53298,1
2,31374,30171,31855,34518,20228,-4084,110,-1535,1068,-1478,-9853,433,447,-237,1,0,23,2,200,0,53298,1
2,31425,33085,31825,34519,20246,-3158,1871,-2342,3874,-753,-4081,433,437,-227,1,0,23,2,240,0,53298,1
2,31330,32035,31797,34520,20262,-1940,4691,-2752,6814,1235,6391,404,486,-222,1,0,23,2,280,0,53298,1
2,31344,30488,31827,34521,20279,-2383,5757,-3255,5091,5339,20082,347,555,-233,1,0,23,2,320,0,53298,1
2,31482,34821,31950,34522,20295,-4850,5510,-3214,98,11399,32767,211,611,-239,1,0,23,2,360,0,53298,1
2,31458,34794,31943,34523,20312,-9138,4440,-2817,-9333,16202,32767,77,605,-273,1,0,23,2,400,0,53298,1
2,31382,34719,31919,34524,20329,-11501,2555,-3266,-18417,15959,32767,-30,522,-278,1,0,23,2,440,0,53298,1
2,31345,34668,31870,34525,20346,-11747,377,-2321,-15735,10321,32767,-60,432,-262,1,0,23,2,480,0,53298,1
2,31244,30117,31757,34526,20361,-7276,-1606,-2354,-12567,5783,30435,-66,368,-258,1,0,23,2,520,0,53298,1
2,31229,30072,31699,34527,20376,-4240,-1708,-1518,-5554,4892,19886,-61,331,-263,1,0,23,2,560,0,53298,1
2,31197,29997,31717,34528,20391,-3151,-1212,196,216,4865,13844,-53,325,-267,1,0,23,2,600,0,53298,1
2,31163,31397,31654,34529,20406,-2848,-1706,67,2521,2145,10457,-49,305,-269,1,0,23,2,640,0,53298,1
2,31180,30725,31674,34530,20422,-2821,-1852,-55,2597,-81,4970,-52,294,-274,1,0,23,2,680,0,53298,1
2,31184,30670,31683,34531,20436,-2879,-1328,-572,-459,-1502,-2850,-58,314,-276,1,0,23,2,720,0,53298,1
2,31197,30247,31696,34532,20450,-3455,-687,-1611,552,-3127,-10252,-69,339,-271,1,0,23,2,760,0,53298,1
2,31198,30353,31713,34533,20464,-4307,754,-2385,5694,-4629,-16754,-74,366,-288,1,0,23,2,800,0,53298,1
2,31201,31502,31707,34534,20479,-4084,2493,-2737,9281,-5251,-20882,-55,415,-303,1,0,23,2,840,0,53298,1
2,31206,32438,31715,34535,20494,-4035,3199,-2310,9728,-5330,-20545,-39,467,-299,1,0,23,2,880,0,53298,1
2,31248,32929,31744,34536,20509,-4765,2612,-2426,5433,-5320,-19372,-14,506,-292,1,0,23,2,920,0,53298,1
2,31292,31594,31760,34537,20526,-5418,2040,-2434,3068,-5406,-18936,11,551,-285,1,0,23,2,960,0,53298,1
1,31430,34544,31895,34538,0,-5208,1839,-2053,3915,-6292,-18748,63,593,-283,1,0,23,3,0,1,53298,1
2,31488,34698,31895,34539,19690,-4899,1293,-1764,2210,-5849,-18281,113,613,-277,1,0,23,3,40,1,53298,1
2,31524,34736,31900,34540,19706,-4877,589,-1540,274,-4668,-17450,175,623,-267,1,0,23,3,80,1,53298,1
2,31404,31306,31791,34541,19723,-4885,359,-1103,-720,-3858,-16774,219,615,-265,1,0,23,3,120,1,53298,1
2,31369,31475,31780,34542,19740,-4948,253,-622,-3176,-3667,-16766,284,598,-282,1,0,23,3,160,1,53298,1
2,31345,32601,31772,34543,19756,-4885,-298,-999,-7705,-3508,-16485,332,566,-284,1,0,23,3,200,1,53298,1
2,31321,32799,31774,34544,19773,-4632,-492,-1386,-6476,-3265,-15475,382,534,-268,1,0,23,3,240,1,53298,1
2,31309,32503,31765,34545,19789,-4243,-178,-1447,-2054,-2917,-13767,408,498,-270,1,0,23,3,280,1,53298,1
2,31302,32445,31760,34546,19806,-3778,386,-1546,1378,-2014,-10681,419,471,-265,1,0,23,3,320,1,53298,1
2,31295,32592,31757,34547,19823,-3300,1142,-1678,4063,-896,-5804,427,467,-261,1,0,23,3,360,1,53298,1
2,31298,32882,31759,34548,19839,-3128,1831,-1807,6201,422,873,425,475,-261,1,0,23,3,400,1,53298,1
2,31303,32668,31771,34549,19855,-3509,2090,-1782,5652,2310,8253,397,521,-259,1,0,23,3,440,1,53298,1
2,31327,32528,31773,34550,19872,-4337,1669,-2006,2026,4699,14945,355,565,-269,1,0,23,3,480,1,53298,1
2,31360,32402,31766,34551,19889,-4992,1219,-2357,-109,6708,20121,288,610,-274,1,0,23,3,520,1,53298,1
2,31390,32382,31765,34552,19905,-5369,1457,-2272,1834,8010,24278,202,634,-292,1,0,23,3,560,1,53298,1
2,31370,31982,31760,34553,19921,-5938,2174,-2052,1932,9185,27407,113,627,-309,1,0,23,3,600,1,53298,1
2,31288,32614,31746,34554,19938,-6258,2708,-2454,-2157,10395,29495,22,574,-318,1,0,23,3,640,1,53298,1
2,31221,32903,31725,34555,19954,-6584,3315,-2370,-5811,10942,31256,-32,502,-330,1,0,23,3,680,1,53298,1
2,31189,33096,31701,34556,19970,-6649,3456,-2221,-10273,10503,32543,-66,422,-318,1,0,23,3,720,1,53298,1
2,31195,33993,31696,34557,19986,-7301,989,-2142,-14482,8936,31541,-73,339,-291,1,0,23,3,760,1,53298,1
2,31169,30304,31675,34558,20002,-5349,-283,-1344,-14991,5560,23473,-58,306,-272,1,0,23,3,800,1,53298,1
2,31169,30170,31654,34559,20017,-3229,-1502,-1878,-15916,3415,14572,-59,285,-259,1,0,23,3,840,1,53298,1
2,31149,30557,31619,34560,20033,-2486,-2501,-1444,-6585,1764,9131,-44,282,-250,1,0,23,3,880,1,53298,1
2,31142,30622,31620,34561,20048,-2586,-2332,-732,4642,49,2959,-52,286,-264,1,0,23,3,920,1,53298,1
2,31142,30514,31621,34562,20063,-1888,-257,-553,7261,-1564,-4428,-54,302,-272,1,0,23,3,960,1,53298,1
1,31148,30556,31633,34563,0,-2314,574,-811,4233,-2062,-8224,-50,308,-278,1,0,23,4,0,1,53298,1
2,31155,30792,31645,34564,19222,-3930,558,-1325,3728,-3553,-12186,-73,339,-271,1,0,23,4,40,1,53298,1
2,31159,31045,31646,34565,19237,-4637,1271,-2023,5759,-5766,-19175,-68,376,-300,1,0,23,4,80,1,53298,1
2,31176,32785,31661,34566,19252,-4497,2571,-2528,7951,-6725,-23933,-56,428,-298,1,0,23,4,120,1,53298,1
2,31207,32329,31680,34567,19267,-4538,2412,-2342,9434,-6754,-23520,-33,485,-303,1,0,23,4,160,1,53298,1
2,31252,32337,31711,34568,19282,-5154,2220,-2264,8963,-7044,-22364,-8,534,-306,1,0,23,4,200,1,53298,1
2,31367,34037,31757,34569,19299,-5761,1552,-2072,5869,-6702,-22034,31,589,-289,1,0,23,4,240,1,53298,1
2,31418,33212,31798,34570,19315,-5827,1068,-1890,2484,-6479,-22445,119,617,-293,1,0,23,4,280,1,53298,1
2,31427,34224,31767,34571,19333,-5766,134,-2087,1281,-5746,-22501,196,628,-272,1,0,23,4,320,1,53298,1
2,31381,32702,31753,34572,19350,-5750,-177,-1728,7120,-6396,-21450,283,611,-281,1,0,23,4,360,1,53298,1
2,31367,33591,31777,34573,19368,-5509,151,-1310,11239,-7912,-20533,354,576,-250,1,0,23,4,400,1,53298,1
2,31325,32776,31761,34574,19387,-4955,867,-847,8440,-8246,-19486,405,517,-233,1,0,23,4,440,1,53298,1
2,31332,34208,31745,34575,19405,-4290,1288,-1200,194,-6924,-17471,438,474,-220,1,0,23,4,480,1,53298,1
2,31310,34061,31735,34576,19423,-3607,1653,-1867,-3683,-4791,-12517,443,445,-223,1,0,23,4,520,1,53298,1
2,31298,33004,31725,34577,19440,-2854,3211,-2214,-348,-2972,-3892,446,434,-218,1,0,23,4,560,1,53298,1
2,31295,31806,31755,34578,19458,-2100,5069,-2881,-1044,237,7945,410,480,-226,1,0,23,4,600,1,53298,1
2,31344,33450,31769,34579,19475,-3061,5578,-3622,-4946,5406,21647,347,561,-251,1,0,23,4,640,1,53298,1
2,31388,32500,31756,34580,19493,-5093,5509,-3971,-6144,10533,32767,207,629,-259,1,0,23,4,680,1,53298,1
2,31338,33925,31764,34581,19510,-8599,4958,-3074,-3840,15022,32767,52,612,-264,1,0,23,4,720,1,53298,1
2,31273,34169,31761,34582,19527,-13358,3418,-1999,-4393,16598,32767,-52,506,-292,1,0,23,4,760,1,53298,1
2,31222,34023,31721,34583,19544,-12370,-331,-1608,-12968,12847,32767,-79,391,-273,1,0,23,4,800,1,53298,1
2,31212,34069,31690,34584,19558,-6696,-1221,-1042,-21540,7006,25446,-71,349,-241,1,0,23,4,840,1,53298,1
2,31154,32874,31609,34585,19573,-3788,-1659,-1006,-22319,2647,14974,-63,329,-215,1,0,23,4,880,1,53298,1
2,31163,33390,31608,34586,19587,-2554,-2650,-1779,-12269,-115,11641,-47,307,-213,1,0,23,4,920,1,53298,1
2,31132,30784,31589,34587,19602,-2322,-2314,-857,3450,36,9204,-46,302,-220,1,0,23,4,960,1,53298,1
1,31139,30839,31603,34588,0,-2973,-1057,121,9879,-396,3868,-52,302,-240,1,0,23,5,0,0,53298,1
2,31125,32979,31602,34589,18753,-3261,230,236,4775,-2610,-3350,-61,307,-227,1,0,23,5,40,0,53298,1
2,31145,33075,31621,34590,18767,-3373,1371,-557,-4399,-4821,-10441,-67,319,-225,1,0,23,5,80,0,53298,1
2,31155,32499,31623,34591,18781,-4240,1505,-1023,-7638,-5822,-16284,-52,350,-204,1,0,23,5,120,0,53298,1
2,31173,32802,31641,34592,18795,-4189,2921,-1066,-2155,-6440,-20404,-41,389,-189,1,0,23,5,160,0,53298,1
2,31201,32864,31654,34593,18809,-4683,3063,-325,2851,-6909,-20053,-21,417,-189,1,0,23,5,200,0,53298,1
2,31214,31818,31650,34594,18824,-5070,2951,-383,49,-8170,-19946,9,439,-167,1,0,23,5,240,0,53298,1
2,31250,30999,31689,34595,18840,-5319,1960,-215,-1931,-8778,-20168,50,460,-160,1,0,23,5,280,0,53298,1
2,31272,31817,31689,34596,18857,-5651,1345,-278,-2855,-9107,-20657,107,473,-133,1,0,23,5,320,0,53298,1
2,31287,31197,31695,34597,18874,-5502,1168,-273,-1640,-9183,-21255,153,477,-121,1,0,23,5,360,0,53298,1
2,31315,33889,31721,34598,18891,-5289,868,38,208,-8769,-20665,192,476,-112,1,0,23,5,400,0,53298,1
2,31345,34048,31751,34599,18908,-5510,200,-81,41,-8157,-19956,228,466,-104,1,0,23,5,440,0,53298,1
2,31321,31489,31749,34600,18926,-5532,-32,35,721,-7321,-20049,255,453,-95,1,0,23,5,480,0,53298,1
2,31345,30047,31756,34601,18945,-5087,86,-123,118,-5995,-20300,289,441,-107,1,0,23,5,520,0,53298,1
2,31347,30004,31752,34602,18963,-4436,622,-336,602,-4489,-18970,316,424,-110,1,0,23,5,560,0,53298,1
2,31326,30007,31744,34603,18981,-3677,1516,-429,1731,-2591,-14950,330,424,-112,1,0,23,5,600,0,53298,1
2,31343,30008,31753,34604,18999,-3004,2415,-485,2192,-300,-8030,335,413,-119,1,0,23,5,640,0,53298,1
2,31311,30865,31752,34605,19018,-2786,3558,-752,3140,1936,1594,329,429,-109,1,0,23,5,680,0,53298,1
2,31342,30003,31762,34606,19036,-3164,4443,-1312,3399,4607,13178,301,445,-109,1,0,23,5,720,0,53298,1
2,31329,30485,31751,34607,19053,-4652,5150,-2317,2595,8800,24869,246,472,-106,1,0,23,5,760,0,53298,1
2,31300,31674,31740,34608,19071,-6094,6099,-3234,2552,14438,32767,160,498,-104,1,0,23,5,800,0,53298,1
2,31257,31870,31731,34609,19089,-8850,5822,-3481,4221,21185,32767,69,481,-141,1,0,23,5,840,0,53298,1
2,31207,31329,31714,34610,19106,-13130,5085,-2577,5055,26563,32767,-51,415,-215,1,0,23,5,880,0,53298,1
2,31164,32032,31648,34611,19122,-13446,1482,-934,-890,26040,32767,-75,347,-239,1,0,23,5,920,0,53298,1
2,31166,32837,31627,34612,19137,-7328,-377,427,-7032,19394,29780,-64,314,-238,1,0,23,5,960,0,53298,1
1,31166,31416,31620,34613,0,-5065,-1441,1140,-9587,13061,19041,-50,306,-242,1,0,23,6,0,1,53298,1
2,30897,30880,31565,34614,18286,-3259,-2675,1359,-4842,7446,13555,-37,277,-245,1,0,23,6,40,1,53298,1
2,30878,31583,31556,34615,18301,-2452,-2508,1280,-773,3674,8821,-39,277,-249,1,0,23,6,80,1,53298,1
2,30874,31593,31554,34616,18315,-2196,-1780,982,-1287,785,2796,-35,277,-241,1,0,23,6,120,1,53298,1
2,30948,34240,31645,34617,18330,-2659,-878,163,-1234,-2024,-3392,-47,277,-245,1,0,23,6,160,1,53298,1
2,30953,34208,31654,34618,18344,-2780,1589,-457,221,-4199,-10398,-57,293,-241,1,0,23,6,200,1,53298,1
2,30964,34193,31672,34619,18358,-3410,2771,-158,320,-5778,-14947,-68,316,-240,1,0,23,6,240,1,53298,1
2,30988,34190,31678,34620,18372,-4786,3233,-453,-3407,-7815,-20053,-71,353,-219,1,0,23,6,280,1,53298,1
2,31008,34192,31689,34621,18385,-3731,3720,-626,-4568,-8830,-23107,-57,391,-193,1,0,23,6,320,1,53298,1
2,31028,34234,31712,34622,18400,-4640,2659,-769,-2984,-8173,-21744,-28,432,-172,1,0,23,6,360,1,53298,1
2,31064,34125,31738,34623,18416,-5267,2353,-290,3352,-8955,-21351,4,444,-160,1,0,23,6,400,1,53298,1
2,31041,30144,31738,34624,18433,-5789,2034,-31,4347,-10479,-21474,51,467,-145,1,0,23,6,440,1,53298,1
2,31092,29982,31753,34625,18451,-5591,1479,-158,1189,-11365,-22059,104,482,-132,1,0,23,6,480,1,53298,1
2,31102,30445,31757,34626,18469,-5791,932,-234,-336,-11482,-22174,152,488,-102,1,0,23,6,520,1,53298,1
2,31091,31340,31743,34627,18487,-6392,352,-340,82,-11378,-22275,184,470,-88,1,0,23,6,560,1,53298,1
2,31136,30158,31765,34628,18505,-6301,436,-212,2536,-11157,-22852,232,466,-74,1,0,23,6,600,1,53298,1
2,31096,31548,31734,34629,18523,-5774,609,23,1142,-9928,-23529,274,444,-82,1,0,23,6,640,1,53298,1
2,31106,30532,31739,34630,18542,-5000,563,-301,-2600,-7473,-23229,320,434,-96,1,0,23,6,680,1,53298,1
2,31108,30301,31743,34631,18559,-4045,1187,-435,-1394,-4840,-20158,326,408,-104,1,0,23,6,720,1,53298,1
2,31090,30676,31728,34632,18576,-3335,1985,-263,1560,-2555,-13952,353,399,-103,1,0,23,6,760,1,53298,1
2,31073,31905,31708,34633,18594,-2976,2394,-142,1852,-355,-5696,353,399,-115,1,0,23,6,800,1,53298,1
2,31106,30042,31736,34634,18611,-3230,2088,-210,295,2000,3315,331,407,-95,1,0,23,6,840,1,53298,1
2,31138,30040,31754,34635,18628,-3800,2124,-419,1218,4229,12226,314,426,-98,1,0,23,6,880,1,53298,1
2,31129,31457,31744,34636,18646,-4353,3080,-410,5362,6448,20716,258,456,-80,1,0,23,6,920,1,53298,1
2,31096,33108,31747,34637,18664,-5172,4073,-739,5998,9692,28304,199,475,-89,1,0,23,6,960,1,53298,1
1,31078,32623,31731,34638,0,-6350,4281,-1260,3095,13748,32767,124,466,-102,1,0,23,7,0,1,53298,1
2,31046,33200,31734,34639,17819,-8293,4414,-1343,38,17398,32767,39,465,-131,1,0,23,7,40,1,53298,1
2,30996,32349,31712,34640,17837,-10176,4514,-1477,-1087,19674,32767,-32,408,-176,1,0,23,7,80,1,53298,1
2,30990,30068,31705,34641,17854,-10648,2850,-1029,-3123,18844,32767,-64,350,-176,1,0,23,7,120,1,53298,1
2,30971,30046,31682,34642,17870,-7642,840,-365,-7571,15491,32074,-66,304,-196,1,0,23,7,160,1,53298,1
2,30953,30103,31641,34643,17885,-5641,-1156,196,-8879,11287,22879,-50,282,-192,1,0,23,7,200,1,53298,1
2,30900,29950,31605,34644,17900,-3773,-2534,459,-3095,6878,15979,-38,274,-198,1,0,23,7,240,1,53298,1
2,30869,33483,31578,34645,17915,-2608,-1945,843,2870,4226,9303,-35,271,-205,1,0,23,7,280,1,53298,1
2,30852,32089,31572,34646,17930,-2233,-755,1177,3223,2173,3202,-40,284,-208,1,0,23,7,320,1,53298,1
2,30860,32877,31559,34647,17944,-2166,-298,660,548,-194,-2076,-47,273,-213,1,0,23,7,360,1,53298,1
2,30869,31722,31574,34648,17958,-2374,940,134,-49,-1786,-7171,-56,284,-204,1,0,23,7,400,1,53298,1
2,30902,33758,31613,34649,17972,-2919,2063,69,2049,-3677,-11471,-66,304,-208,1,0,23,7,440,1,53298,1
2,30932,33905,31636,34650,17986,-3692,2724,-52,1888,-5769,-16086,-64,322,-210,1,0,23,7,480,1,53298,1
2,30951,33901,31646,34651,18000,-3973,2812,-153,-230,-7325,-19962,-58,360,-196,1,0,23,7,520,1,53298,1
2,30976,33946,31664,34652,18014,-4673,2637,-425,-1801,-7845,-22219,-39,397,-177,1,0,23,7,560,1,53298,1
2,31030,34168,31704,34653,18028,-4937,2129,84,255,-8727,-22926,-11,433,-163,1,0,23,7,600,1,53298,1
2,31037,30618,31692,34654,18042,-5721,1380,-96,34,-9491,-23012,30,448,-138,1,0,23,7,640,1,53298,1
2,31063,30311,31710,34655,18058,-6312,1254,-216,2083,-10961,-24116,94,464,-128,1,0,23,7,680,1,53298,1
2,31150,30019,31784,34656,18075,-6487,1252,-237,2455,-11768,-25153,123,463,-103,1,0,23,7,720,1,53298,1
2,31171,30047,31788,34657,18092,-6371,1014,-360,532,-11174,-25838,195,461,-89,1,0,23,7,760,1,53298,1
2,31125,33848,31744,34658,18111,-6483,723,-390,301,-10058,-25959,240,460,-88,1,0,23,7,800,1,53298,1
2,31116,32538,31734,34659,18130,-6239,668,-278,1071,-8729,-25634,274,456,-92,1,0,23,7,840,1,53298,1
2,31111,31092,31726,34660,18149,-5350,1018,-242,1195,-6827,-24438,303,435,-97,1,0,23,7,880,1,53298,1
2,31127,30145,31750,34661,18168,-4291,1559,-305,1025,-4722,-20883,339,415,-105,1,0,23,7,920,1,53298,1
2,31142,30018,31757,34662,18186,-3226,2163,-206,584,-2391,-14367,342,392,-114,1,0,23,7,960,1,53298,1
1,31129,29985,31749,34663,0,-2673,2367,-190,-11,-275,-5607,346,390,-110,1,0,23,8,0,0,53298,1
2,31139,29991,31753,34664,17351,-2969,2389,-329,249,1625,4192,343,415,-117,1,0,23,8,40,0,53298,1
2,31151,30027,31769,34665,17369,-3418,2907,-533,3095,3659,14401,303,431,-99,1,0,23,8,80,0,53298,1
2,31167,30025,31767,34666,17387,-4390,4185,-742,5803,6600,24033,255,455,-85,1,0,23,8,120,0,53298,1
2,31155,30000,31783,34667,17405,-5764,4906,-1499,3402,11454,32767,187,465,-99,1,0,23,8,160,0,53298,1
2,31133,30088,31785,34668,17424,-8121,4620,-1807,759,16574,32767,106,468,-112,1,0,23,8,200,0,53298,1
2,31058,31878,31730,34669,17441,-10623,2950,-1515,-2209,19339,32767,24,436,-150,1,0,23,8,240,0,53298,1
2,30995,30752,31698,34670,17457,-11100,1337,-867,-3255,17900,32767,-37,395,-173,1,0,23,8,280,0,53298,1
2,30954,30282,31644,34671,17472,-7591,162,-883,-5093,15659,32344,-62,358,-180,1,0,23,8,320,0,53298,1
2,30975,30173,31676,34672,17487,-5490,-43,-309,-3344,14110,24611,-62,320,-202,1,0,23,8,360,0,53298,1
2,30925,29975,31651,34673,17501,-4774,-900,1048,-638,11350,18907,-53,297,-213,1,0,23,8,400,0,53298,1
2,30946,30083,31627,34674,17516,-3701,-1500,1141,1622,6978,13130,-45,293,-227,1,0,23,8,440,0,53298,1
2,30924,30169,31591,34675,17530,-2821,-1153,1145,1248,3430,5664,-46,292,-226,1,0,23,8,480,0,53298,1
2,30934,30109,31630,34676,17544,-2438,-450,1073,-3310,1176,-1541,-54,298,-216,1,0,23,8,520,0,53298,1
2,30932,30095,31634,34677,17558,-2345,433,455,-3441,-1342,-6071,-49,307,-217,1,0,23,8,560,0,53298,1
2,30903,30091,31619,34678,17572,-2516,1855,-21,336,-3290,-8962,-59,321,-209,1,0,23,8,600,0,53298,1
2,30907,30384,31621,34679,17586,-3517,2441,-135,2966,-4712,-11503,-73,341,-195,1,0,23,8,640,0,53298,1
2,30930,30209,31631,34680,17599,-4157,2873,-200,1957,-6436,-15488,-67,373,-195,1,0,23,8,680,0,53298,1
2,30946,29979,31650,34681,17613,-3920,3191,-561,-500,-7517,-18310,-45,393,-177,1,0,23,8,720,0,53298,1
2,30971,30008,31668,34682,17627,-3676,2992,-469,-923,-7461,-17721,-18,418,-172,1,0,23,8,760,0,53298,1
2,31002,30306,31692,34683,17641,-4626,2128,-249,-854,-7158,-16093,-1,431,-151,1,0,23,8,800,0,53298,1
2,30995,32483,31675,34684,17655,-5198,1520,-160,-884,-7899,-16350,39,455,-143,1,0,23,8,840,0,53298,1
2,31030,31240,31710,34685,17671,-5482,1023,-120,40,-9149,-17462,68,464,-124,1,0,23,8,880,0,53298,1
2,31079,31591,31740,34686,17688,-5727,712,-35,-324,-9672,-18790,115,473,-113,1,0,23,8,920,0,53298,1
2,31107,30158,31771,34687,17706,-5849,287,-218,-620,-9328,-20275,164,464,-106,1,0,23,8,960,0,53298,1
1,31090,30016,31764,34688,0,-6107,319,152,613,-8694,-21858,205,463,-91,1,0,23,9,0,0,53298,1
2,31135,30174,31737,34689,16884,-5800,429,518,-856,-7678,-23696,257,457,-79,1,0,23,9,40,0,53298,1
2,31113,30015,31755,34690,16903,-5741,103,479,-3758,-6380,-24234,285,443,-95,1,0,23,9,80,0,53298,1
2,31115,30822,31726,34691,16922,-5187,226,242,-4169,-5317,-23524,325,427,-107,1,0,23,9,120,0,53298,1
2,31110,31090,31707,34692,16942,-4247,1120,75,-910,-4400,-20328,347,399,-113,1,0,23,9,160,0,53298,1
2,31086,33449,31715,34693,16961,-3273,2137,151,2009,-3234,-13828,350,390,-114,1,0,23,9,200,0,53298,1
2,31092,34099,31723,34694,16980,-2753,2607,14,1648,-1322,-4962,346,386,-120,1,0,23,9,240,0,53298,1
2,31095,34113,31726,34695,16998,-2908,2773,-317,2623,688,5643,337,405,-107,1,0,23,9,280,0,53298,1
2,31119,34311,31746,34696,17016,-3392,3782,-502,5814,3019,16691,299,433,-79,1,0,23,9,320,0,53298,1
2,31138,34338,31773,34697,17036,-4914,4563,-1104,6759,6918,27415,245,453,-85,1,0,23,9,360,0,53298,1
2,31135,34343,31775,34698,17054,-6776,4029,-2062,6461,12892,32767,171,477,-89,1,0,23,9,400,0,53298,1
2,31096,34285,31766,34699,17073,-8608,4032,-1731,11295,19052,32767,81,467,-125,1,0,23,9,440,0,53298,1
2,31050,34207,31735,34700,17090,-10285,4163,-689,10383,23806,32767,-2,434,-178,1,0,23,9,480,0,53298,1
2,30983,33974,31684,34701,17106,-10551,2438,-673,279,23926,32767,-49,387,-205,1,0,23,9,520,0,53298,1
2,30967,30461,31645,34702,17121,-7856,897,-176,-4534,19346,31452,-64,328,-220,1,0,23,9,560,0,53298,1
2,30956,29998,31648,34703,17137,-5971,-352,344,-5708,14209,24325,-54,292,-228,1,0,23,9,600,0,53298,1
2,30929,29955,31603,34704,17152,-4405,-1268,606,-2738,9368,17861,-47,281,-223,1,0,23,9,640,0,53298,1
2,30930,30146,31560,34705,17167,-3062,-2051,612,-825,6243,10765,-44,280,-228,1,0,23,9,680,0,53298,1
2,30909,29974,31577,34706,17183,-2564,-1794,888,-225,3935,3813,-49,271,-215,1,0,23,9,720,0,53298,1
2,30868,32356,31560,34707,17198,-2433,-846,798,4129,262,-1415,-47,285,-235,1,0,23,9,760,0,53298,1
2,30870,32618,31568,34708,17213,-2574,680,225,4714,-3006,-6713,-54,294,-244,1,0,23,9,800,0,53298,1
2,30879,32308,31575,34709,17227,-3073,1975,-95,1721,-4800,-11171,-65,311,-233,1,0,23,9,840,0,53298,1
2,30891,32306,31592,34710,17241,-4154,2257,-354,-2384,-6497,-15956,-62,342,-224,1,0,23,9,880,0,53298,1
2,30912,32681,31607,34711,17255,-4388,3036,-740,-3402,-8375,-20778,-52,374,-220,1,0,23,9,920,0,53298,1
2,30944,32502,31615,34712,17269,-4288,3068,-784,-2098,-8899,-22113,-40,416,-190,1,0,23,9,960,0,53298,1
1,30966,31830,31652,34713,0,-5098,2528,-552,-145,-9304,-21371,0,438,-178,1,0,23,10,0,0,53298,1
2,31033,30179,31699,34714,16415,-5544,2110,-473,332,-10185,-21178,36,456,-158,1,0,23,10,40,0,53298,1
2,31050,30594,31736,34715,16432,-5933,1528,-341,680,-11057,-21230,78,470,-134,1,0,23,10,80,0,53298,1
2,31051,31392,31720,34716,16448,-6006,1129,-186,-92,-11719,-21504,144,476,-116,1,0,23,10,120,0,53298,1
2,31099,29969,31749,34717,16466,-6032,505,-346,-1853,-11610,-22059,188,460,-102,1,0,23,10,160,0,53298,1
2,31078,32139,31725,34718,16483,-5908,513,-229,-330,-10888,-22537,217,465,-83,1,0,23,10,200,0,53298,1
2,31078,32127,31716,34719,16501,-5588,702,8,934,-9891,-22447,262,448,-80,1,0,23,10,240,0,53298,1
2,31070,33090,31716,34720,16519,-5309,789,141,-269,-8299,-21232,290,440,-94,1,0,23,10,280,0,53298,1
2,31070,31524,31713,34721,16537,-4850,737,44,-1930,-6494,-18948,318,418,-98,1,0,23,10,320,0,53298,1
2,31084,31082,31704,34722,16555,-3942,1021,-220,-1861,-4746,-15016,337,409,-93,1,0,23,10,360,0,53298,1
2,31073,30640,31702,34723,16571,-3026,1524,-500,-9,-2850,-8904,342,398,-102,1,0,23,10,400,0,53298,1
2,31090,30045,31725,34724,16588,-2602,2330,-717,1889,-77,-1052,333,401,-97,1,0,23,10,440,0,53298,1
2,31067,29992,31735,34725,16606,-2658,3332,-831,3022,3437,8400,308,422,-92,1,0,23,10,480,0,53298,1
2,31071,30362,31715,34726,16623,-3297,4825,-1446,3801,7350,19430,267,441,-85,1,0,23,10,520,0,53298,1
2,31078,32576,31728,34727,16641,-5400,5685,-1599,4793,12328,31325,208,462,-94,1,0,23,10,560,0,53298,1
2,31065,33300,31719,34728,16660,-8242,5487,-1848,2625,17411,32767,130,484,-106,1,0,23,10,600,0,53298,1
2,31034,32820,31711,34729,16679,-10788,4881,-1955,-1293,21644,32767,37,447,-155,1,0,23,10,640,0,53298,1
2,30974,33268,31669,34730,16696,-12634,3088,-1752,-2925,21625,32767,-44,380,-190,1,0,23,10,680,0,53298,1
2,30945,31424,31632,34731,16713,-9246,321,-966,-2317,18704,32767,-68,324,-208,1,0,23,10,720,0,53298,1
2,30907,29951,31636,34732,16729,-6535,-337,57,1689,14912,28985,-58,302,-226,1,0,23,10,760,0,53298,1
2,30907,29962,31597,34733,16745,-4780,-1103,953,3766,11405,20564,-45,283,-227,1,0,23,10,800,0,53298,1
2,30904,31358,31585,34734,16761,-3552,-1998,1489,2484,8179,13285,-41,271,-241,1,0,23,10,840,0,53298,1
2,30858,31168,31547,34735,16777,-2585,-1966,1637,-2167,4574,5259,-40,280,-238,1,0,23,10,880,0,53298,1
2,30857,32899,31555,34736,16793,-1960,-1168,854,-4717,965,-1282,-40,278,-234,1,0,23,10,920,0,53298,1
2,30865,33433,31559,34737,16808,-2383,-144,179,-1805,-1602,-5334,-57,285,-225,1,0,23,10,960,0,53298,1
1,30874,33519,31578,34738,0,-2854,1382,-371,1236,-3403,-9905,-60,296,-234,1,0,23,11,0,1,53298,1
2,30884,33436,31585,34739,15948,-3475,2900,-554,2684,-5030,-14108,-66,324,-234,1,0,23,11,40,1,53298,1
2,30893,33260,31594,34740,15962,-3741,3896,-924,540,-6452,-17772,-79,347,-225,1,0,23,11,80,1,53298,1
2,30910,33280,31599,34741,15977,-3509,3843,-1152,-1562,-6659,-18997,-54,384,-212,1,0,23,11,120,1,53298,1
2,30926,33156,31602,34742,15992,-3720,3769,-1109,-463,-6217,-17884,-48,410,-194,1,0,23,11,160,1,53298,1
2,30938,33133,31606,34743,16007,-3477,3297,-1205,1091,-6096,-15719,-23,435,-187,1,0,23,11,200,1,53298,1
2,30952,33331,31623,34744,16022,-3460,2711,-1200,4229,-5503,-12649,-11,455,-177,1,0,23,11,240,1,53298,1
2,30968,33366,31636,34745,16038,-4077,2578,-487,6437,-5067,-10341,-2,472,-174,1,0,23,11,280,1,53298,1
2,30988,33273,31651,34746,16053,-4748,2056,-272,1396,-5416,-9501,31,475,-153,1,0,23,11,320,1,53298,1
2,31006,32673,31661,34747,16069,-4998,1093,-400,-4044,-6176,-10176,55,477,-149,1,0,23,11,360,1,53298,1
2,31035,31002,31682,34748,16086,-5220,456,-334,-4762,-6703,-11357,88,482,-132,1,0,23,11,400,1,53298,1
2,31075,29991,31720,34749,16103,-5296,129,-215,-3183,-7191,-13277,116,482,-110,1,0,23,11,440,1,53298,1
2,31105,30105,31714,34750,16121,-5049,53,-199,-1864,-6959,-15224,157,489,-115,1,0,23,11,480,1,53298,1
2,31071,31436,31710,34751,16139,-4978,-117,-90,-936,-6284,-16600,188,482,-110,1,0,23,11,520,1,53298,1
2,31134,29993,31768,34752,16157,-5234,-279,66,-785,-5317,-17493,235,483,-117,1,0,23,11,560,1,53298,1
2,31133,29995,31741,34753,16177,-5175,-256,135,-643,-4566,-18294,266,472,-102,1,0,23,11,600,1,53298,1
2,31093,30450,31725,34754,16196,-4981,179,201,974,-4444,-17962,294,454,-116,1,0,23,11,640,1,53298,1
2,31136,30001,31760,34755,16216,-4470,914,-45,1779,-4269,-16150,317,445,-117,1,0,23,11,680,1,53298,1
2,31125,30043,31750,34756,16236,-3700,2248,-500,2041,-2936,-11616,335,433,-119,1,0,23,11,720,1,53298,1
2,31071,32536,31699,34757,16255,-2636,4411,-976,3521,-607,-2851,323,457,-115,1,0,23,11,760,1,53298,1
2,31091,34262,31730,34758,16274,-2634,5190,-1214,3970,2505,9940,295,465,-103,1,0,23,11,800,1,53298,1
2,31090,32459,31711,34759,16294,-4007,4551,-1353,2169,6271,22674,228,484,-104,1,0,23,11,840,1,53298,1
2,31151,30289,31758,34760,16313,-6226,4099,-1654,846,9796,32580,153,489,-107,1,0,23,11,880,1,53298,1
2,31120,30107,31741,34761,16333,-7796,3950,-2380,1201,13942,32767,66,478,-138,1,0,23,11,920,1,53298,1
2,31044,30179,31732,34762,16353,-9233,4301,-2099,4800,17651,32767,-8,442,-162,1,0,23,11,960,1,53298,1
1,31038,30203,31710,34763,0,-9984,3519,-1349,2866,20148,32767,-66,386,-212,1,0,23,12,0,0,53298,1
2,30979,29950,31618,34764,15482,-7904,2040,-881,-4970,19185,32767,-68,328,-220,1,0,23,12,40,0,53298,1
2,30975,30163,31614,34765,15499,-6463,-752,351,-9121,14752,26065,-50,296,-222,1,0,23,12,80,0,53298,1
2,30949,30000,31578,34766,15516,-4510,-1745,455,-8482,9797,19072,-49,281,-215,1,0,23,12,120,0,53298,1
2,30897,30558,31529,34767,15531,-3200,-2342,863,-2551,5608,11904,-39,281,-235,1,0,23,12,160,0,53298,1
2,30900,29963,31545,34768,15547,-2528,-2770,1417,-132,2322,4022,-27,279,-223,1,0,23,12,200,0,53298,1
2,30924,29971,31573,34769,15562,-2572,-1495,1003,343,-691,-3740,-45,281,-227,1,0,23,12,240,0,53298,1
2,30944,30230,31597,34770,15578,-2548,-50,470,836,-3225,-10238,-57,307,-229,1,0,23,12,280,0,53298,1
2,30958,30195,31617,34771,15593,-3669,915,456,871,-5092,-14770,-66,330,-208,1,0,23,12,320,0,53298,1
2,30972,30167,31632,34772,15608,-5249,1797,160,-1369,-7344,-21053,-59,377,-205,1,0,23,12,360,0,53298,1
2,31016,30107,31659,34773,15624,-5918,2572,46,-2231,-9476,-26741,-46,410,-166,1,0,23,12,400,0,53298,1
2,31078,30285,31692,34774,15641,-7009,1236,-708,-235,-10921,-28403,-1,451,-167,1,0,23,12,440,0,53298,1
2,31105,30108,31731,34775,15659,-7456,2064,-217,11383,-15311,-29463,52,478,-126,1,0,23,12,480,0,53298,1
2,31121,30018,31763,34776,15677,-8003,2704,117,13843,-19768,-29878,118,476,-98,1,0,23,12,520,0,53298,1
2,31160,30174,31768,34777,15696,-7900,2201,-609,2602,-19527,-29657,183,461,-87,1,0,23,12,560,0,53298,1
2,31129,31257,31705,34778,15716,-6539,1397,-770,-5216,-15410,-30538,243,469,-73,1,0,23,12,600,0,53298,1
2,31144,30055,31735,34779,15736,-6061,1071,-695,-4745,-11463,-29317,297,443,-85,1,0,23,12,640,0,53298,1
2,31158,30120,31764,34780,15756,-5450,1432,-352,-1532,-8442,-25982,325,423,-99,1,0,23,12,680,0,53298,1
2,31130,31710,31723,34781,15776,-4130,2165,-599,-762,-6057,-21143,351,391,-113,1,0,23,12,720,0,53298,1
2,31141,30127,31742,34782,15797,-2630,2930,-738,-1085,-3246,-13253,363,379,-111,1,0,23,12,760,0,53298,1
2,31097,30874,31724,34783,15817,-2005,3197,-965,-2276,429,-2763,354,376,-110,1,0,23,12,800,0,53298,1
2,31098,30576,31728,34784,15836,-2839,2977,-901,-344,4146,9150,334,410,-98,1,0,23,12,840,0,53298,1
2,31151,30015,31752,34785,15856,-3832,3637,-863,3036,7386,20056,286,448,-102,1,0,23,12,880,0,53298,1
2,31168,30035,31767,34786,15875,-5282,4505,-1482,3363,11146,29968,213,469,-85,1,0,23,12,920,0,53298,1
2,31138,30006,31760,34787,15895,-7073,5100,-1814,3438,16066,32767,141,487,-101,1,0,23,12,960,0,53298,1
1,31113,30050,31744,34788,0,-10613,4427,-469,1850,20552,32767,50,472,-132,1,0,23,13,0,0,53298,1
2,31099,30296,31748,34789,15017,-12233,3507,-1190,-2964,21764,32767,-23,417,-163,1,0,23,13,40,0,53298,1
2,31030,30242,31702,34790,15035,-10661,1264,-716,-3299,18384,32767,-60,360,-190,1,0,23,13,80,0,53298,1
2,30989,34544,31680,34791,15052,-6874,140,-48,-3241,14358,30234,-61,319,-205,1,0,23,13,120,0,53298,1
2,30967,32023,31637,34792,15070,-5187,-590,401,-3575,11432,22765,-53,299,-217,1,0,23,13,160,0,53298,1
2,30949,30616,31618,34793,15086,-4048,-1561,625,-2363,8309,16661,-44,290,-218,1,0,23,13,200,0,53298,1
2,30941,30648,31614,34794,15103,-3112,-2127,1219,-500,4555,10055,-49,279,-203,1,0,23,13,240,0,53298,1
2,30940,30678,31617,34795,15120,-2274,-1376,852,-1674,1782,2707,-48,284,-222,1,0,23,13,280,0,53298,1
2,30938,30679,31616,34796,15136,-2409,-593,506,-1937,-453,-3333,-55,291,-217,1,0,23,13,320,0,53298,1
2,30931,34282,31625,34797,15152,-2667,604,198,315,-2959,-8824,-47,301,-215,1,0,23,13,360,0,53298,1
2,30934,31633,31580,34798,15168,-3530,2034,289,1837,-5147,-13827,-69,327,-201,1,0,23,13,400,0,53298,1
2,30960,34450,31644,34799,15184,-4288,2748,46,-1167,-7076,-19317,-59,365,-191,1,0,23,13,440,0,53298,1
2,30975,34475,31652,34800,15199,-4814,3298,-226,-4391,-8543,-23674,-42,394,-172,1,0,23,13,480,0,53298,1
2,30998,34491,31659,34801,15214,-4510,3467,-207,-4313,-7877,-23997,-6,422,-156,1,0,23,13,520,0,53298,1
2,31030,34549,31680,34802,15230,-5355,2276,-96,-2667,-8225,-22767,30,442,-144,1,0,23,13,560,0,53298,1
2,31068,34607,31722,34803,15246,-5665,1943,-259,-883,-8251,-22507,79,461,-127,1,0,23,13,600,0,53298,1
2,31093,34659,31745,34804,15263,-5756,1280,-59,1913,-8774,-22173,125,463,-115,1,0,23,13,640,0,53298,1
2,31117,31287,31759,34805,15281,-5784,936,-178,1596,-9281,-22138,162,470,-104,1,0,23,13,680,0,53298,1
2,31133,30673,31776,34806,15300,-5739,425,-212,920,-8736,-22553,212,452,-96,1,0,23,13,720,0,53298,1
2,31142,30666,31781,34807,15318,-5905,154,-116,989,-7484,-22797,253,449,-91,1,0,23,13,760,0,53298,1
2,31150,30665,31789,34808,15337,-5515,247,31,750,-6009,-23072,271,447,-83,1,0,23,13,800,0,53298,1
2,31140,30663,31782,34809,15356,-5029,552,2,567,-4537,-21957,305,431,-91,1,0,23,13,840,0,53298,1
2,31138,30661,31775,34810,15375,-4184,1009,-179,1682,-3193,-18686,335,411,-95,1,0,23,13,880,0,53298,1
2,31131,30654,31767,34811,15394,-3444,1799,-24,2750,-1489,-13152,344,412,-112,1,0,23,13,920,0,53298,1
2,31132,30645,31765,34812,15413,-3041,2203,105,1765,484,-5834,350,402,-118,1,0,23,13,960,0,53298,1
1,31134,30630,31769,34813,0,-3214,2442,-110,1322,2167,3303,328,424,-108,1,0,23,14,0,0,53298,1
2,31138,30639,31775,34814,14549,-3544,3030,-378,3864,3889,13333,303,435,-97,1,0,23,14,40,0,53298,1
2,31157,30632,31787,34815,14569,-4577,3794,-479,6144,6558,23161,245,461,-79,1,0,23,14,80,0,53298,1
2,31140,30616,31789,34816,14588,-5665,3933,-1348,4581,10208,31362,193,471,-93,1,0,23,14,120,0,53298,1
2,31084,30522,31795,34817,14607,-6484,4826,-2217,7188,14717,32767,94,476,-128,1,0,23,14,160,0,53298,1
2,31038,30635,31799,34818,14624,-8840,5327,-1351,9663,20031,32767,6,450,-166,1,0,23,14,200,0,53298,1
2,31008,30646,31753,34819,14641,-11870,3699,-1242,406,23293,32767,-58,384,-176,1,0,23,14,240,0,53298,1
2,30969,31000,31666,34820,14657,-9530,1088,-829,-9865,20944,32767,-67,335,-195,1,0,23,14,280,0,53298,1
2,30953,30535,31653,34821,14674,-6514,-102,193,-11398,15031,25897,-57,303,-199,1,0,23,14,320,0,53298,1
2,30919,30593,31621,34822,14690,-4606,-1502,215,-7080,9334,19011,-51,279,-203,1,0,23,14,360,0,53298,1
2,30866,30055,31571,34823,14706,-3100,-2261,611,1707,5718,13786,-44,282,-218,1,0,23,14,400,0,53298,1
2,30879,33880,31555,34824,14722,-2837,-1911,1520,3625,3584,6672,-37,277,-221,1,0,23,14,440,0,53298,1
2,30907,30105,31607,34825,14738,-2383,-1125,1405,277,482,-688,-40,282,-216,1,0,23,14,480,0,53298,1
2,30885,30124,31603,34826,14754,-2489,272,463,-3617,-2260,-6821,-56,296,-206,1,0,23,14,520,0,53298,1
2,30887,30956,31595,34827,14768,-2503,1882,-142,-4362,-3411,-11173,-58,312,-192,1,0,23,14,560,0,53298,1
2,30902,29892,31642,34828,14783,-3407,2895,-604,-3548,-3795,-13852,-61,317,-183,1,0,23,14,600,0,53298,1
2,30916,29879,31637,34829,14798,-3248,4272,-641,-2106,-4432,-16773,-60,346,-176,1,0,23,14,640,0,53298,1
2,30933,29910,31659,34830,14814,-3565,4159,-256,-1124,-4326,-16487,-44,374,-168,1,0,23,14,680,0,53298,1
2,30957,29902,31670,34831,14829,-4266,3214,35,-2017,-5105,-16436,-27,397,-153,1,0,23,14,720,0,53298,1
2,30972,29931,31678,34832,14844,-4398,2093,-101,-2904,-5730,-17034,-7,423,-145,1,0,23,14,760,0,53298,1
2,31016,31706,31660,34833,14860,-4855,1393,-27,-948,-5634,-17252,27,431,-137,1,0,23,14,800,0,53298,1
2,31010,33721,31698,34834,14878,-5065,861,135,1527,-6153,-17977,61,449,-137,1,0,23,14,840,0,53298,1
2,31064,34173,31745,34835,14895,-5390,445,94,1700,-6922,-19397,101,461,-127,1,0,23,14,880,0,53298,1
2,31110,32967,31777,34836,14914,-5472,180,-17,638,-6806,-21102,148,466,-110,1,0,23,14,920,0,53298,1
2,31073,30065,31726,34837,14932,-5714,35,-126,965,-6316,-22787,204,468,-94,1,0,23,14,960,0,53298,1
1,31150,30021,31763,34838,0,-5819,206,-42,2358,-5856,-24088,249,469,-91,1,0,23,15,0,0,53298,1
2,31161,30063,31760,34839,14083,-5874,622,70,3416,-5446,-24365,280,458,-98,1,0,23,15,40,0,53298,1
2,31148,30111,31781,34840,14104,-5474,1135,-15,2935,-4466,-23137,313,445,-101,1,0,23,15,80,0,53298,1
2,31119,29973,31735,34841,14124,-4633,1613,-160,2353,-3021,-19569,338,430,-110,1,0,23,15,120,0,53298,1
2,31138,30319,31754,34842,14145,-3748,2096,-178,2424,-1434,-13346,358,416,-118,1,0,23,15,160,0,53298,1
2,31105,30026,31717,34843,14165,-3020,2888,-184,3707,106,-4365,351,415,-115,1,0,23,15,200,0,53298,1
2,31145,30389,31765,34844,14185,-2853,3491,-208,4520,1649,6182,333,443,-109,1,0,23,15,240,0,53298,1
2,31168,30321,31760,34845,14205,-3599,3167,-479,3635,3802,16680,284,468,-88,1,0,23,15,280,0,53298,1
2,31178,30378,31785,34846,14224,-5168,2865,-991,4468,6663,25601,224,480,-78,1,0,23,15,320,0,53298,1
2,31146,30165,31794,34847,14245,-6423,3082,-1065,8236,10401,32160,154,482,-98,1,0,23,15,360,0,53298,1
2,31112,30022,31767,34848,14265,-7976,3239,-256,7056,14736,32767,77,471,-131,1,0,23,15,400,0,53298,1
2,31069,30006,31758,34849,14285,-7699,3275,-1571,-902,18076,32767,20,452,-150,1,0,23,15,440,0,53298,1
2,31037,30060,31750,34850,14304,-8173,2558,-1300,-3399,18574,32767,-44,394,-188,1,0,23,15,480,0,53298,1
2,31009,30083,31714,34851,14322,-7804,860,-505,-4020,16355,30989,-65,359,-209,1,0,23,15,520,0,53298,1
2,30987,30073,31689,34852,14340,-6068,-293,-316,-3851,12626,24816,-69,313,-205,1,0,23,15,560,0,53298,1
2,30907,32203,31625,34853,14357,-4495,-977,121,-2730,9499,16702,-56,308,-218,1,0,23,15,600,0,53298,1
2,30949,30068,31630,34854,14375,-3319,-1293,683,-1095,6390,9328,-56,300,-220,1,0,23,15,640,0,53298,1
2,30941,29974,31640,34855,14392,-2717,-901,881,950,3423,4222,-54,296,-220,1,0,23,15,680,0,53298,1
2,30930,29951,31611,34856,14409,-2784,-446,936,526,894,-631,-51,305,-219,1,0,23,15,720,0,53298,1
2,30931,30053,31619,34857,14426,-3001,73,706,-2065,-1695,-6433,-66,312,-212,1,0,23,15,760,0,53298,1
2,30939,30296,31635,34858,14442,-3865,745,671,-3181,-4354,-12274,-53,335,-217,1,0,23,15,800,0,53298,1
2,30970,29923,31671,34859,14459,-5041,812,521,-5116,-7030,-19364,-47,377,-185,1,0,23,15,840,0,53298,1
2,31026,30003,31711,34860,14476,-6076,978,356,-6282,-8822,-26171,-15,415,-173,1,0,23,15,880,0,53298,1
2,31054,29956,31722,34861,14493,-7275,1243,219,-3932,-10100,-30543,39,461,-149,1,0,23,15,920,0,53298,1
2,31083,30184,31723,34862,14510,-7922,1080,-49,-1057,-11376,-32768,105,471,-117,1,0,23,15,960,0,53298,1
1,31130,29982,31761,34863,0,-8010,1233,-115,1752,-11848,-32768,191,477,-101,1,0,23,16,0,1,53298,1
2,31161,30350,31785,34864,13617,-8025,1212,-307,2352,-11381,-32768,248,468,-86,1,0,23,16,40,1,53298,1
2,31145,30140,31749,34865,13636,-7406,1493,-380,2588,-10576,-32768,301,439,-99,1,0,23,16,80,1,53298,1
2,31150,30627,31786,34866,13655,-6197,2009,-441,2723,-9229,-31805,334,410,-106,1,0,23,16,120,1,53298,1
2,31099,30155,31766,34867,13675,-4667,2450,-836,2268,-6921,-25846,358,388,-118,1,0,23,16,160,1,53298,1
2,31144,30679,31768,34868,13693,-3115,3301,-886,3386,-4051,-16506,360,370,-122,1,0,23,16,200,1,53298,1
2,31142,30307,31769,34869,13712,-1796,4140,-728,3002,-674,-4693,356,376,-126,1,0,23,16,240,1,53298,1
2,31117,29971,31736,34870,13730,-2752,3247,-792,848,3054,8452,338,394,-112,1,0,23,16,280,1,53298,1
2,31141,30190,31768,34871,13748,-3729,3478,-923,2749,5909,20166,299,427,-89,1,0,23,16,320,1,53298,1
2,31171,30662,31787,34872,13767,-5170,3745,-1123,4793,9211,30458,244,450,-88,1,0,23,16,360,1,53298,1
2,31155,30232,31787,34873,13786,-7165,3125,-1571,5427,13753,32767,171,477,-95,1,0,23,16,400,1,53298,1
2,31138,30516,31791,34874,13805,-8971,2788,-1494,7824,18416,32767,88,476,-126,1,0,23,16,440,1,53298,1
2,31102,30376,31761,34875,13824,-9917,3012,-981,8050,21615,32767,9,443,-165,1,0,23,16,480,1,53298,1
2,31035,30213,31717,34876,13841,-9976,1937,-701,2419,22058,32767,-37,391,-209,1,0,23,16,520,1,53298,1
2,30980,29898,31659,34877,13858,-7628,429,-57,-2860,18585,28085,-68,348,-224,1,0,23,16,560,1,53298,1
2,30972,30233,31619,34878,13873,-5400,144,95,-4583,14502,21525,-59,313,-235,1,0,23,16,600,1,53298,1
2,30910,33252,31607,34879,13889,-4108,-407,339,-1459,10426,16840,-62,296,-228,1,0,23,16,640,1,53298,1
2,30918,29950,31581,34880,13904,-3511,-694,865,1838,7031,12285,-53,281,-245,1,0,23,16,680,1,53298,1
2,30909,30015,31580,34881,13920,-2781,-267,969,-199,4175,7006,-54,286,-238,1,0,23,16,720,1,53298,1
2,30917,29924,31597,34882,13936,-2422,156,469,-4234,1471,1766,-52,282,-240,1,0,23,16,760,1,53298,1
2,30934,30406,31618,34883,13951,-2214,619,-240,-4743,-1074,-3005,-56,294,-232,1,0,23,16,800,1,53298,1
2,30937,30316,31625,34884,13966,-2453,1615,-592,-2111,-2857,-6967,-69,305,-237,1,0,23,16,840,1,53298,1
2,30951,30331,31635,34885,13981,-3013,2335,-641,534,-4270,-10432,-62,326,-224,1,0,23,16,880,1,53298,1
2,30945,30045,31644,34886,13996,-3560,2483,-422,544,-5777,-13860,-65,347,-217,1,0,23,16,920,1,53298,1
2,30970,30230,31645,34887,14011,-4027,2526,-182,-1512,-7208,-16789,-58,378,-206,1,0,23,16,960,1,53298,1
1,31019,30566,31677,34888,0,-4409,1968,189,-4233,-8318,-18503,-32,406,-190,1,0,23,17,0,1,53298,1
2,31056,29957,31689,34889,13149,-5391,1566,199,-5065,-9055,-19141,-9,437,-163,1,0,23,17,40,1,53298,1
2,31080,30118,31660,34890,13167,-6186,486,-306,-5639,-10558,-21729,56,456,-148,1,0,23,17,80,1,53298,1
2,31090,30421,31711,34891,13185,-6743,125,-421,-1623,-11576,-24791,113,473,-119,1,0,23,17,120,1,53298,1
2,31134,30228,31699,34892,13206,-6881,377,-261,3132,-12285,-27249,166,462,-98,1,0,23,17,160,1,53298,1
2,31164,30315,31720,34893,13227,-6717,728,-171,4568,-12061,-29204,218,464,-86,1,0,23,17,200,1,53298,1
2,31172,30661,31706,34894,13248,-6526,1077,-96,3126,-10795,-30210,264,444,-80,1,0,23,17,240,1,53298,1
2,31145,30189,31725,34895,13268,-6183,1450,-47,990,-8857,-29630,310,424,-92,1,0,23,17,280,1,53298,1
2,31145,30042,31717,34896,13288,-5211,2042,-251,-1173,-6346,-26862,347,409,-113,1,0,23,17,320,1,53298,1
2,31141,30242,31721,34897,13307,-3819,2677,-648,-1582,-3877,-20048,354,382,-122,1,0,23,17,360,1,53298,1
2,31154,30424,31722,34898,13326,-2452,3571,-715,-605,-1294,-9724,367,383,-133,1,0,23,17,400,1,53298,1
2,31152,30583,31728,34899,13346,-2551,3683,-1059,662,1540,3586,338,402,-124,1,0,23,17,440,1,53298,1
2,31148,30107,31733,34900,13366,-3272,4555,-841,3833,4635,17035,316,438,-108,1,0,23,17,480,1,53298,1
2,31172,30418,31752,34901,13385,-4634,4516,-1251,2431,8568,28862,260,458,-92,1,0,23,17,520,1,53298,1
2,31159,30085,31743,34902,13404,-6924,3849,-1451,43,13063,32767,181,481,-99,1,0,23,17,560,1,53298,1
2,31143,30128,31744,34903,13424,-9229,2808,-1289,-2916,17125,32767,97,473,-111,1,0,23,17,600,1,53298,1
2,31095,30136,31725,34904,13443,-10832,1881,-1410,-4286,18245,32767,1,441,-163,1,0,23,17,640,1,53298,1
2,31047,30042,31712,34905,13461,-10341,686,-891,-1039,16115,32767,-42,398,-178,1,0,23,17,680,1,53298,1
2,31017,30262,31690,34906,13479,-6905,427,-288,2979,13087,29196,-66,352,-210,1,0,23,17,720,1,53298,1
2,30993,30240,31666,34907,13496,-5070,301,74,2750,11897,22012,-71,335,-229,1,0,23,17,760,1,53298,1
2,30968,30235,31636,34908,13513,-4128,-485,487,1450,10604,16591,-66,314,-224,1,0,23,17,800,1,53298,1
2,30950,30223,31628,34909,13529,-3713,-782,1126,2563,7689,12270,-62,298,-238,1,0,23,17,840,1,53298,1
2,30946,30257,31623,34910,13545,-3371,-836,1334,2235,3797,6440,-69,295,-239,1,0,23,17,880,1,53298,1
2,30952,30272,31616,34911,13562,-2946,-567,1048,-1877,338,-1411,-68,306,-242,1,0,23,17,920,1,53298,1
2,30960,30281,31627,34912,13578,-3214,27,624,-4381,-2822,-8550,-70,328,-242,1,0,23,17,960,1,53298,1
1,30978,30311,31651,34913,0,-4088,621,689,-4269,-5889,-14818,-61,357,-217,1,0,23,18,0,0,53298,1
2,30993,30319,31658,34914,12683,-5119,1101,263,-5994,-8478,-21163,-47,389,-187,1,0,23,18,40,0,53298,1
2,31033,30412,31682,34915,12699,-6497,876,513,-6855,-10226,-26931,-11,431,-153,1,0,23,18,80,0,53298,1
2,31070,30437,31723,34916,12715,-7644,395,-4,-7559,-11626,-32384,48,462,-130,1,0,23,18,120,0,53298,1
2,31110,30414,31747,34917,12732,-8423,446,-272,-918,-12798,-32768,150,480,-108,1,0,23,18,160,0,53298,1
2,31129,30380,31768,34918,12750,-8593,1265,-8,7055,-14867,-32768,219,467,-91,1,0,23,18,200,0,53298,1
2,31138,30390,31775,34919,12769,-8462,1684,17,7188,-15783,-32768,272,448,-84,1,0,23,18,240,0,53298,1
2,31115,30418,31777,34920,12787,-7698,1940,-382,1762,-13388,-32768,327,417,-91,1,0,23,18,280,0,53298,1
2,31106,30374,31765,34921,12805,-6115,2601,-565,-2274,-9096,-32768,363,371,-115,1,0,23,18,320,0,53298,1
2,31101,30368,31755,34922,12823,-4143,3221,-795,-4286,-4692,-26110,376,354,-124,1,0,23,18,360,0,53298,1
2,31106,30372,31744,34923,12841,-1376,4797,-1114,-2125,-1846,-13880,379,353,-131,1,0,23,18,400,0,53298,1
2,31103,30373,31750,34924,12860,-1901,4300,-548,49,817,2823,366,370,-122,1,0,23,18,440,0,53298,1
2,31103,30377,31755,34925,12879,-3399,3020,-419,-501,3302,17237,347,397,-113,1,0,23,18,480,0,53298,1
2,31129,30353,31768,34926,12898,-4818,2844,-879,1647,5760,27555,302,442,-94,1,0,23,18,520,0,53298,1
2,31140,30358,31774,34927,12916,-6773,3090,-1030,5471,9707,32767,230,464,-86,1,0,23,18,560,0,53298,1
2,31120,30343,31770,34928,12935,-8433,3092,-1085,5310,14834,32767,159,477,-107,1,0,23,18,600,0,53298,1
2,31092,30342,31748,34929,12953,-10373,2853,-4,2980,18424,32767,68,466,-120,1,0,23,18,640,0,53298,1
2,31024,30343,31710,34930,12970,-10040,2831,-531,593,17907,32767,-6,440,-146,1,0,23,18,680,0,53298,1
2,30978,30386,31651,34931,12986,-9024,1713,-715,-1089,15726,32767,-49,375,-185,1,0,23,18,720,0,53298,1
2,30902,30193,31570,34932,13000,-6837,749,-455,-1353,13590,29859,-64,334,-210,1,0,23,18,760,0,53298,1
2,30889,30155,31565,34933,13013,-5366,948,-107,566,11646,25378,-57,307,-217,1,0,23,18,800,0,53298,1
2,30880,30648,31533,34934,13026,-4776,-394,701,3924,9469,21224,-49,287,-233,1,0,23,18,840,0,53298,1
2,30894,30664,31532,34935,13040,-3370,-961,853,5265,6020,14679,-49,283,-241,1,0,23,18,880,0,53298,1
2,30855,30135,31508,34936,13054,-2221,-551,733,862,3651,6938,-42,280,-254,1,0,23,18,920,0,53298,1
2,30864,30178,31543,34937,13068,-2087,-264,766,-134,1578,1103,-51,271,-239,1,0,23,18,960,0,53298,1
1,30877,29958,31539,34938,0,-2062,363,126,-902,-1654,-4340,-46,292,-250,1,0,23,19,0,0,53298,1
2,30862,30005,31536,34939,12216,-2402,844,-650,1979,-3409,-8763,-54,302,-254,1,0,23,19,40,0,53298,1
2,30870,29965,31562,34940,12230,-3227,925,-849,5544,-4931,-13151,-59,319,-265,1,0,23,19,80,0,53298,1
2,30892,29882,31580,34941,12244,-4198,2295,-1643,7142,-5643,-18300,-58,356,-260,1,0,23,19,120,0,53298,1
2,30903,30386,31626,34942,12258,-3960,2930,-1919,8770,-6874,-20939,-58,390,-274,1,0,23,19,160,0,53298,1
2,30919,30666,31663,34943,12271,-4161,2808,-1809,9211,-6137,-19623,-39,433,-277,1,0,23,19,200,0,53298,1
2,30961,30674,31699,34944,12286,-5127,2158,-1929,7085,-7081,-19184,-18,478,-270,1,0,23,19,240,0,53298,1
2,30993,30679,31725,34945,12301,-5190,1945,-2205,6400,-7781,-19849,28,522,-264,1,0,23,19,280,0,53298,1
2,31035,30682,31748,34946,12318,-5098,1446,-1906,5690,-7738,-20120,66,548,-248,1,0,23,19,320,0,53298,1
2,31054,30622,31751,34947,12334,-4983,535,-2491,2762,-6782,-20805,120,560,-228,1,0,23,19,360,0,53298,1
2,31064,30259,31763,34948,12351,-4645,724,-2227,4375,-4856,-20944,188,576,-244,1,0,23,19,400,0,53298,1
2,31068,30673,31757,34949,12367,-4645,1430,-2084,4502,-3003,-19832,241,571,-249,1,0,23,19,440,0,53298,1
2,31060,30695,31774,34950,12384,-4014,2867,-2464,2675,-889,-16610,284,560,-258,1,0,23,19,480,0,53298,1
2,31053,30684,31763,34951,12400,-1929,8017,-3856,554,1958,-8134,272,576,-260,1,0,23,19,520,0,53298,1
2,31209,34643,31736,34952,12417,494,12758,-5232,-2212,7913,10814,194,578,-294,1,0,23,19,560,0,53298,1
2,31115,33774,31740,34953,12433,-3286,10871,-4568,-4987,16291,32767,53,549,-333,1,0,23,19,600,0,53298,1
2,31178,34345,31726,34954,12449,-13072,5185,-3548,-9251,21643,32767,-53,429,-331,1,0,23,19,640,0,53298,1
2,31142,30391,31647,34955,12466,-17138,715,-3241,-11531,18588,32767,-70,340,-330,1,0,23,19,680,0,53298,1
2,31132,30361,31637,34956,12482,-8612,-2657,-1279,-12336,10827,32767,-51,311,-291,1,0,23,19,720,0,53298,1
2,31120,30131,31597,34957,12497,-2213,25,-1731,-17454,5714,11290,-39,293,-273,1,0,23,19,760,0,53298,1
2,30866,30655,31567,34958,12512,-1461,-843,-1391,-15455,5306,10222,-43,285,-257,1,0,23,19,800,0,53298,1
2,30844,30640,31553,34959,12526,-3242,-3556,-601,2848,2903,13451,-27,273,-281,1,0,23,19,840,0,53298,1
2,30835,30665,31571,34960,12540,-2610,-2563,679,14049,84,6208,-27,273,-289,1,0,23,19,880,0,53298,1
2,30836,30660,31588,34961,12554,-2744,-1060,644,5061,-2516,-5251,-40,282,-296,1,0,23,19,920,0,53298,1
2,30847,30665,31601,34962,12568,-2856,58,-1163,-4764,-4439,-13786,-48,308,-292,1,0,23,19,960,0,53298,1
1,30868,30659,31622,34963,0,-3180,1420,-1948,-979,-5535,-17828,-62,330,-300,1,0,23,20,0,1,53298,1
2,30886,30657,31650,34964,11750,-4545,2214,-2231,6009,-6788,-20219,-71,377,-303,1,0,23,20,40,1,53298,1
2,30906,30660,31670,34965,11764,-5052,3706,-2703,9935,-8535,-22537,-58,424,-308,1,0,23,20,80,1,53298,1
2,30941,30665,31686,34966,11778,-4785,3087,-2410,7509,-8941,-23080,-38,490,-316,1,0,23,20,120,1,53298,1
2,30989,30668,31712,34967,11792,-5426,3524,-2057,3177,-9110,-22689,-7,523,-285,1,0,23,20,160,1,53298,1
2,31046,30668,31725,34968,11808,-4762,2401,-2245,-3099,-8356,-22580,36,556,-268,1,0,23,20,200,1,53298,1
2,31078,30673,31739,34969,11823,-5240,681,-1968,-1536,-6900,-21006,98,584,-256,1,0,23,20,240,1,53298,1
2,31093,30681,31747,34970,11839,-5450,845,-1815,3419,-7183,-19991,159,597,-251,1,0,23,20,280,1,53298,1
2,31089,30686,31759,34971,11856,-4927,403,-1664,7113,-6681,-18475,221,595,-249,1,0,23,20,320,1,53298,1
2,31081,30685,31767,34972,11872,-4967,125,-1087,8854,-6430,-17040,284,568,-230,1,0,23,20,360,1,53298,1
2,31075,30671,31774,34973,11889,-4798,155,-939,5118,-6111,-16800,336,562,-224,1,0,23,20,400,1,53298,1
2,31072,30684,31775,34974,11906,-4652,313,-1114,630,-5131,-16328,366,512,-208,1,0,23,20,440,1,53298,1
2,31070,30589,31752,34975,11925,-4212,969,-1558,-1092,-3968,-14140,393,497,-225,1,0,23,20,480,1,53298,1
2,31090,30668,31787,34976,11943,-3590,2794,-2326,-338,-1973,-8274,392,476,-220,1,0,23,20,520,1,53298,1
2,31098,30524,31792,34977,11962,-2852,4090,-2888,-94,1324,1630,380,508,-228,1,0,23,20,560,1,53298,1
2,31129,34495,31797,34978,11982,-2951,4500,-3117,274,5905,13913,325,555,-233,1,0,23,20,600,1,53298,1
2,31406,30550,31820,34979,12003,-3416,5954,-3370,159,11255,25549,225,591,-267,1,0,23,20,640,1,53298,1
2,32071,30872,32565,34980,12024,-4181,7542,-3477,-2320,16458,32767,78,598,-304,1,0,23,20,680,1,53298,1
2,31654,30733,32083,34981,12045,-9256,6041,-2912,-5163,19840,32767,-54,502,-330,1,0,23,20,720,1,53298,1
2,31893,30285,32577,34982,12067,-14894,2957,-2262,-6687,17863,32767,-94,376,-316,1,0,23,20,760,1,53298,1
2,32612,30955,33201,34983,12088,-11376,-2392,-1740,-14606,12930,32767,-87,321,-295,1,0,23,20,800,1,53298,1
2,32470,30815,32947,34984,12108,-4382,-1588,-2021,-22362,6999,14916,-66,300,-256,1,0,23,20,840,1,53298,1
2,32381,30631,33079,34985,12127,-1782,-67,-2144,-11104,4128,8004,-52,282,-250,1,0,23,20,880,1,53298,1
2,32320,30606,32919,34986,12143,-2512,-985,-824,3189,4134,10793,-52,284,-266,1,0,23,20,920,1,53298,1
2,32273,30766,32876,34987,12158,-3410,709,18,3808,3798,8605,-51,271,-261,1,0,23,20,960,1,53298,1
1,32242,30823,32835,34988,0,-2215,634,436,1447,-558,277,-52,272,-272,1,0,23,21,0,1,53298,1
2,32073,30666,32699,34989,11286,-1743,1753,-1270,-2841,-2753,-6605,-60,290,-262,1,0,23,21,40,1,53298,1
2,31999,30890,32594,34990,11301,-1820,2448,-1658,-2591,-2435,-8181,-58,296,-266,1,0,23,21,80,1,53298,1
2,31946,30859,32560,34991,11317,-3248,1983,-1259,2218,-3558,-9278,-73,323,-267,1,0,23,21,120,1,53298,1
2,31938,30841,32543,34992,11332,-3694,2211,-1788,4080,-5589,-14768,-71,345,-267,1,0,23,21,160,1,53298,1
2,31911,30823,32533,34993,11348,-3385,2708,-2352,6052,-6109,-18218,-69,385,-281,1,0,23,21,200,1,53298,1
2,31964,30826,32573,34994,11364,-3316,2672,-2103,10923,-6131,-17081,-70,426,-288,1,0,23,21,240,1,53298,1
2,31974,30806,32581,34995,11381,-3472,3027,-2004,11352,-5953,-15661,-40,456,-308,1,0,23,21,280,1,53298,1
2,32005,30798,32612,34996,11398,-3867,2744,-2010,7331,-5210,-14117,-35,491,-293,1,0,23,21,320,1,53298,1
2,32103,30772,32657,34997,11415,-3890,2627,-2142,3342,-4684,-12643,-4,506,-296,1,0,23,21,360,1,53298,1
2,32139,30746,32694,34998,11433,-4574,1713,-1674,2265,-4529,-11215,21,533,-287,1,0,23,21,400,1,53298,1
2,32161,30737,32691,34999,11451,-4706,1928,-2045,1583,-5265,-10733,48,548,-282,1,0,23,21,440,1,53298,1
2,32028,30671,32686,35000,11470,-4683,1193,-1776,1445,-4826,-10339,82,548,-270,1,0,23,21,480,1,53298,1
2,32030,30499,32529,35001,11490,-4957,868,-1587,905,-4494,-10476,103,551,-261,1,0,23,21,520,1,53298,1
2,32084,30488,32557,35002,11509,-3748,1445,-1886,-568,-3647,-11053,141,561,-271,1,0,23,21,560,1,53298,1
2,32213,30538,32668,35003,11528,-3336,1524,-1933,-1712,-1335,-9035,163,541,-269,1,0,23,21,600,1,53298,1
2,32212,30546,32670,35004,11547,-3244,1615,-1449,-544,361,-5623,173,549,-277,1,0,23,21,640,1,53298,1
2,32067,30521,32657,35005,11566,-2285,3037,-1107,-112,1067,-2283,167,551,-269,1,0,23,21,680,1,53298,1
2,31889,30467,32458,35006,11585,2426,8960,-2521,-3463,2258,5027,129,545,-277,1,0,23,21,720,1,53298,1
2,31601,30337,32145,35007,11602,2545,10463,-3490,-1909,7514,24437,22,510,-296,1,0,23,21,760,1,53298,1
2,31494,30297,32073,35008,11621,-10020,5459,-1415,6165,14830,32767,-68,426,-314,1,0,23,21,800,1,53298,1
2,31381,30279,31968,35009,11640,-17551,1473,-2311,-5518,15705,32767,-92,350,-282,1,0,23,21,840,1,53298,1
2,31304,30201,31849,35010,11658,-8433,-2346,-2993,-20996,6170,19547,-73,327,-257,1,0,23,21,880,1,53298,1
2,31203,30167,31735,35011,11674,-847,2886,-3389,-20071,859,-2430,-64,324,-236,1,0,23,21,920,1,53298,1
2,31257,30147,31769,35012,11689,301,1867,-2412,-7523,2521,5860,-61,305,-245,1,0,23,21,960,1,53298,1
1,31264,30161,31820,35013,0,-4090,1145,-2140,4871,4736,16647,-61,283,-259,1,0,23,22,0,0,53298,1
2,31245,30170,31823,35014,10819,-4078,562,789,14542,2164,11979,-53,281,-275,1,0,23,22,40,0,53298,1
2,31250,30161,31830,35015,10835,-3084,134,349,605,1029,-64,-64,292,-260,1,0,23,22,80,0,53298,1
2,31252,30190,31829,35016,10850,-2185,846,-1469,-11351,-925,-9098,-64,304,-256,1,0,23,22,120,0,53298,1
2,31255,30196,31836,35017,10865,-2265,1080,-1630,-3472,-1392,-10482,-66,324,-258,1,0,23,22,160,0,53298,1
2,31260,30191,31860,35018,10879,-3134,1950,-1370,7800,-2896,-10904,-81,349,-265,1,0,23,22,200,0,53298,1
2,31262,30203,31879,35019,10894,-3250,3128,-1494,8875,-4220,-13091,-73,369,-279,1,0,23,22,240,0,53298,1
2,31261,30222,31880,35020,10908,-3471,3402,-1803,4410,-4312,-14106,-74,400,-286,1,0,23,22,280,0,53298,1
2,31271,30233,31898,35021,10922,-3419,3188,-1836,3089,-4004,-13389,-70,432,-274,1,0,23,22,320,0,53298,1
2,31300,30252,31919,35022,10938,-3761,2642,-1751,4826,-4191,-11798,-42,460,-272,1,0,23,22,360,0,53298,1
2,31317,30228,31930,35023,10954,-3500,2612,-1953,4689,-4069,-10893,-42,482,-274,1,0,23,22,400,0,53298,1
2,31333,30246,31941,35024,10970,-4033,1469,-1930,4418,-3083,-9682,-21,495,-283,1,0,23,22,440,0,53298,1
2,31358,30245,31956,35025,10986,-4249,1754,-1806,5656,-3230,-9538,7,515,-281,1,0,23,22,480,0,53298,1
2,31374,30241,31966,35026,11003,-4287,1164,-1916,4747,-2933,-9675,38,536,-288,1,0,23,22,520,0,53298,1
2,31395,30247,31979,35027,11020,-5170,12,-1726,5428,-3102,-10269,61,545,-289,1,0,23,22,560,0,53298,1
2,31425,30252,31994,35028,11037,-4756,367,-1680,5400,-3862,-12456,107,557,-291,1,0,23,22,600,0,53298,1
2,31472,30280,32006,35029,11055,-4534,-125,-1315,3574,-3678,-13575,145,569,-289,1,0,23,22,640,0,53298,1
2,31507,30268,32030,35030,11074,-4392,483,-1414,2187,-3948,-13735,194,566,-284,1,0,23,22,680,0,53298,1
2,31555,30259,32030,35031,11094,-3743,1477,-1574,711,-3689,-12926,209,557,-271,1,0,23,22,720,0,53298,1
2,31561,30245,32014,35032,11115,-3386,2376,-2269,-1788,-2288,-9689,243,553,-275,1,0,23,22,760,0,53298,1
2,31541,30240,32004,35033,11136,-1887,5014,-2807,-2334,-27,-3534,237,547,-279,1,0,23,22,800,0,53298,1
2,31457,30209,31933,35034,11156,1622,10397,-4250,-5149,4018,8869,178,564,-294,1,0,23,22,840,0,53298,1
2,31368,30205,31931,35035,11175,29,10424,-3503,-6451,10895,30653,52,530,-316,1,0,23,22,880,0,53298,1
2,31338,30481,31943,35036,11194,-9938,6059,-2373,-10117,16282,32767,-63,441,-305,1,0,23,22,920,0,53298,1
2,31204,30119,31796,35037,11213,-17299,1194,-4188,-18101,14498,32767,-77,351,-281,1,0,23,22,960,0,53298,1
1,31161,30070,31759,35038,0,-8448,-1802,-2368,-18238,8236,28555,-78,314,-244,1,0,23,23,0,1,53298,1
2,31105,30726,31692,35039,10354,-538,2997,-2648,-16844,2679,6795,-50,296,-242,1,0,23,23,40,1,53298,1
2,31073,30589,31676,35040,10371,-1183,-237,-2687,-7684,3740,13944,-41,275,-259,1,0,23,23,80,1,53298,1
2,31048,30141,31677,35041,10388,-4453,-2276,-409,12203,4360,18525,-47,263,-265,1,0,23,23,120,1,53298,1
2,31031,30038,31671,35042,10404,-3225,-918,1690,13938,2015,7327,-37,271,-271,1,0,23,23,160,1,53298,1
2,31023,30169,31680,35043,10421,-2610,-1180,396,-4364,-1023,-4370,-50,276,-254,1,0,23,23,200,1,53298,1
2,31024,30396,31675,35044,10437,-1808,153,-1372,-9567,-2592,-10967,-60,292,-254,1,0,23,23,240,1,53298,1
2,31026,30422,31695,35045,10453,-2583,1071,-1531,1644,-3498,-11989,-65,309,-273,1,0,23,23,280,1,53298,1
2,31026,30524,31708,35046,10468,-3281,2838,-1519,9974,-5583,-13885,-72,336,-282,1,0,23,23,320,1,53298,1
2,31040,30488,31725,35047,10483,-3531,4165,-1614,7069,-6744,-16805,-74,372,-282,1,0,23,23,360,1,53298,1
2,31065,30473,31735,35048,10499,-3579,4131,-1598,-676,-6848,-18386,-60,404,-262,1,0,23,23,400,1,53298,1
2,31100,30500,31744,35049,10514,-4231,3130,-773,-4443,-6760,-18063,-52,440,-250,1,0,23,23,440,1,53298,1
2,31107,30486,31758,35050,10530,-4400,2714,-1008,-6377,-7788,-18150,-29,469,-221,1,0,23,23,480,1,53298,1
2,31139,30344,31768,35051,10546,-4827,2100,-177,-4238,-8463,-17348,7,497,-189,1,0,23,23,520,1,53298,1
2,31169,30284,31781,35052,10562,-5298,1184,-70,-5606,-9473,-17370,60,496,-168,1,0,23,23,560,1,53298,1
2,31171,30295,31787,35053,10578,-5353,575,-172,-6000,-10143,-18560,112,508,-144,1,0,23,23,600,1,53298,1
2,31181,30302,31795,35054,10595,-5564,-23,-308,-3051,-10395,-19304,152,504,-130,1,0,23,23,640,1,53298,1
2,31198,30345,31808,35055,10612,-5656,-96,-66,546,-10735,-20493,216,498,-122,1,0,23,23,680,1,53298,1
2,31213,30381,31815,35056,10628,-5923,-441,-139,1011,-10484,-22153,250,478,-104,1,0,23,23,720,1,53298,1
2,31207,30396,31822,35057,10646,-6451,-851,-82,1902,-10026,-23816,298,448,-108,1,0,23,23,760,1,53298,1
2,31208,30398,31812,35058,10664,-6289,-386,-153,2033,-9296,-25664,332,428,-116,1,0,23,23,800,1,53298,1
2,31209,30376,31809,35059,10682,-5034,1147,-632,1662,-7933,-25073,356,390,-122,1,0,23,23,840,1,53298,1
2,31185,30426,31805,35060,10699,-3407,3123,-853,3115,-5967,-18889,364,382,-130,1,0,23,23,880,1,53298,1
2,31175,30453,31810,35061,10716,-1962,5436,-1174,2860,-2948,-7460,362,380,-118,1,0,23,23,920,1,53298,1
2,31175,30540,31811,35062,10733,-2764,5084,-1829,-1461,2278,8470,353,409,-127,1,0,23,23,960,1,53298,1
1,31198,30640,31822,35063,0,-4534,4464,-2065,-258,6696,23901,300,444,-112,1,0,23,24,0,1,53298,1
2,31208,30699,31835,35064,9888,-6804,4366,-2465,3517,11738,32767,193,485,-93,1,0,23,24,40,1,53298,1
2,31181,30717,31828,35065,9906,-8434,4968,-1997,6771,17785,32767,88,498,-142,1,0,23,24,80,1,53298,1
2,31161,30707,31815,35066,9923,-10364,5141,-1201,3106,23770,32767,-3,455,-175,1,0,23,24,120,1,53298,1
2,31110,30663,31763,35067,9941,-11970,5489,-1402,-3552,24527,32767,-58,382,-212,1,0,23,24,160,1,53298,1
2,31023,30696,31714,35068,9958,-12245,3380,-821,-4404,20967,32767,-60,314,-222,1,0,23,24,200,1,53298,1
2,30976,30545,31667,35069,9973,-8642,-320,-315,-3264,15285,32767,-45,279,-231,1,0,23,24,240,1,53298,1
2,30939,30379,31630,35070,9987,-4886,-1306,907,-1876,11263,25710,-23,267,-229,1,0,23,24,280,1,53298,1
2,30917,30455,31593,35071,10002,-3212,-2622,1169,-5151,8013,15824,-22,262,-232,1,0,23,24,320,1,53298,1
2,30918,30130,31610,35072,10018,-2522,-3869,909,-3252,3931,9489,-9,259,-233,1,0,23,24,360,1,53298,1
2,30929,30016,31622,35073,10033,-2250,-3075,1530,631,-263,719,-24,268,-230,1,0,23,24,400,1,53298,1
2,30947,30327,31654,35074,10048,-2203,-1005,790,-1715,-4184,-9123,-33,267,-225,1,0,23,24,440,1,53298,1
2,30975,30300,31685,35075,10062,-2446,1219,8,-3810,-5849,-15451,-38,280,-214,1,0,23,24,480,1,53298,1
2,30985,30249,31699,35076,10076,-3821,1955,188,-2834,-6994,-19562,-48,306,-210,1,0,23,24,520,1,53298,1
2,31034,30115,31731,35077,10090,-5870,2546,31,-1633,-9352,-26084,-41,357,-185,1,0,23,24,560,1,53298,1
2,31092,30053,31752,35078,10106,-6713,2120,-1173,737,-10740,-30899,-29,409,-185,1,0,23,24,600,1,53298,1
2,31142,30093,31795,35079,10123,-6558,4031,-735,10009,-13494,-31804,-2,448,-158,1,0,23,24,640,1,53298,1
2,31178,30098,31804,35080,10140,-6058,3972,-538,9500,-14887,-31133,58,468,-130,1,0,23,24,680,1,53298,1
2,31199,30137,31806,35081,10158,-6271,3130,-796,3460,-14457,-28229,109,475,-107,1,0,23,24,720,1,53298,1
2,31195,30434,31805,35082,10176,-6155,3148,-618,1511,-14115,-25753,168,470,-92,1,0,23,24,760,1,53298,1
2,31216,30206,31809,35083,10195,-6128,2261,-234,-1959,-12790,-23072,199,459,-83,1,0,23,24,800,1,53298,1
2,31203,30378,31810,35084,10214,-6559,329,-418,-4009,-11323,-21280,248,450,-80,1,0,23,24,840,1,53298,1
2,31168,31110,31786,35085,10232,-6048,91,419,-2352,-9765,-22024,289,421,-83,1,0,23,24,880,1,53298,1
2,31152,30525,31775,35086,10249,-4474,475,-136,-4581,-7748,-22656,316,406,-84,1,0,23,24,920,1,53298,1
2,31151,30061,31780,35087,10266,-2838,1782,-56,-2796,-5803,-19135,335,387,-95,1,0,23,24,960,1,53298,1
1,31155,30069,31785,35088,0,-2204,3087,-603,-2770,-3062,-11239,337,391,-99,1,0,23,25,0,1,53298,1
2,31137,30062,31786,35089,9423,-2048,4730,-1780,-2513,1045,602,336,406,-96,1,0,23,25,40,1,53298,1
2,31151,30110,31800,35090,9439,-2842,6377,-2040,445,5526,16400,303,431,-99,1,0,23,25,80,1,53298,1
2,31161,30166,31810,35091,9455,-5259,7024,-2342,3646,11184,32747,209,479,-91,1,0,23,25,120,1,53298,1
2,31151,30202,31807,35092,9472,-8337,7346,-2463,5459,18157,32767,93,473,-119,1,0,23,25,160,1,53298,1
2,31137,30200,31800,35093,9488,-11907,7733,-1756,4156,24950,32767,-14,430,-172,1,0,23,25,200,1,53298,1
2,31066,30076,31757,35094,9505,-16473,5974,-1188,-2905,26987,32767,-54,350,-196,1,0,23,25,240,1,53298,1
2,31025,30050,31717,35095,9520,-13130,324,-316,-7494,20330,32767,-59,293,-201,1,0,23,25,280,1,53298,1
2,30992,30042,31675,35096,9535,-6907,-960,-572,-4471,13440,32767,-38,274,-210,1,0,23,25,320,1,53298,1
2,30956,30020,31636,35097,9551,-4541,-1878,546,-408,11203,23085,-30,258,-218,1,0,23,25,360,1,53298,1
2,30952,30011,31626,35098,9566,-3303,-3766,1361,405,8649,15303,-16,264,-240,1,0,23,25,400,1,53298,1
2,30934,30519,31608,35099,9581,-2458,-3858,1389,2841,4182,6622,-20,262,-244,1,0,23,25,440,1,53298,1
2,30925,31332,31604,35100,9595,-1992,-2462,1328,3942,638,-2203,-19,265,-245,1,0,23,25,480,1,53298,1
2,30955,30059,31644,35101,9610,-2190,-1381,-24,2991,-2129,-9391,-31,275,-253,1,0,23,25,520,1,53298,1
2,30963,29999,31675,35102,9624,-2146,1947,-382,7879,-3754,-13736,-50,280,-262,1,0,23,25,560,1,53298,1
2,30977,30025,31687,35103,9637,-3020,3421,-850,9469,-5510,-14975,-52,302,-274,1,0,23,25,600,1,53298,1
2,30988,30100,31724,35104,9651,-4545,3417,-1889,7696,-6954,-18653,-70,338,-278,1,0,23,25,640,1,53298,1
2,31006,30184,31737,35105,9665,-4700,3721,-2074,7509,-8363,-24201,-54,404,-280,1,0,23,25,680,1,53298,1
2,31043,30255,31746,35106,9679,-4369,3456,-2262,6534,-8532,-25668,-39,447,-281,1,0,23,25,720,1,53298,1
2,31084,30368,31767,35107,9692,-4727,2412,-2173,6879,-8335,-23989,-15,495,-269,1,0,23,25,760,1,53298,1
2,31110,30358,31779,35108,9706,-5036,2295,-1815,9749,-9463,-22394,32,538,-258,1,0,23,25,800,1,53298,1
2,31150,30363,31812,35109,9720,-5076,1941,-1587,8183,-10434,-21274,73,569,-237,1,0,23,25,840,1,53298,1
2,31172,30345,31827,35110,9736,-5006,1519,-2080,2646,-9046,-19974,117,581,-221,1,0,23,25,880,1,53298,1
2,31178,30365,31833,35111,9751,-4877,736,-1931,1059,-6861,-18690,175,593,-219,1,0,23,25,920,1,53298,1
2,31186,30355,31841,35112,9766,-5043,465,-1558,2205,-5560,-17610,235,587,-215,1,0,23,25,960,1,53298,1
1,31179,30357,31844,35113,0,-5104,760,-913,2962,-5162,-16618,276,568,-196,1,0,23,26,0,0,53298,1
2,31180,30341,31851,35114,8956,-4966,797,-881,1122,-5151,-14619,321,551,-185,1,0,23,26,40,0,53298,1
2,31180,30332,31854,35115,8972,-4657,886,-903,-288,-5154,-11739,353,529,-201,1,0,23,26,80,0,53298,1
2,31191,30305,31851,35116,8988,-4110,1102,-1137,-1699,-4137,-8101,350,512,-194,1,0,23,26,120,0,53298,1
2,31203,30304,31858,35117,9005,-3597,1094,-1346,-2356,-2079,-3670,358,518,-198,1,0,23,26,160,0,53298,1
2,31203,30351,31861,35118,9022,-3535,1266,-1836,-1832,521,1342,345,515,-213,1,0,23,26,200,0,53298,1
2,31204,30369,31868,35119,9038,-3302,2944,-2206,390,3539,7444,298,546,-210,1,0,23,26,240,0,53298,1
2,31191,30187,31857,35120,9055,-2250,6936,-2923,-76,7387,16613,221,593,-217,1,0,23,26,280,0,53298,1
2,31205,30138,31851,35121,9072,-3312,8241,-3626,-4384,13562,30870,91,591,-241,1,0,23,26,320,0,53298,1
2,31163,30187,31851,35122,9088,-8339,6686,-3339,-6011,18277,32767,-39,505,-267,1,0,23,26,360,0,53298,1
2,31100,30189,31793,35123,9105,-14630,4520,-3258,-5633,18456,32767,-80,392,-286,1,0,23,26,400,0,53298,1
2,31025,30146,31736,35124,9122,-12381,-106,-2495,-8205,15587,32767,-67,325,-273,1,0,23,26,440,0,53298,1
2,31010,30133,31729,35125,9137,-5461,-1067,-1568,-9778,9560,25880,-57,295,-269,1,0,23,26,480,0,53298,1
2,30998,30098,31675,35126,9152,-3299,-676,-941,-11778,7831,14644,-35,279,-255,1,0,23,26,520,0,53298,1
2,30976,30082,31660,35127,9167,-2860,-2611,-650,-4093,5420,14349,-33,277,-261,1,0,23,26,560,0,53298,1
2,30970,30122,31666,35128,9181,-2642,-2968,488,8624,2535,11045,-28,272,-266,1,0,23,26,600,0,53298,1
2,30978,30154,31673,35129,9195,-2359,-2154,1335,8047,19,2264,-26,276,-284,1,0,23,26,640,0,53298,1
2,30969,30090,31685,35130,9210,-2544,-948,193,-1046,-2916,-7336,-39,281,-277,1,0,23,26,680,0,53298,1
2,30975,30075,31695,35131,9224,-2503,972,-1036,-3232,-5297,-13322,-50,300,-282,1,0,23,26,720,0,53298,1
2,30994,30080,31714,35132,9238,-3314,1925,-1704,-247,-6420,-16101,-66,334,-290,1,0,23,26,760,0,53298,1
2,31005,30104,31738,35133,9252,-4861,2577,-2256,4501,-7750,-19476,-76,374,-278,1,0,23,26,800,0,53298,1
2,31024,30115,31754,35134,9265,-4727,3342,-2720,6736,-8808,-23420,-64,422,-284,1,0,23,26,840,0,53298,1
2,31069,30140,31778,35135,9280,-4610,3203,-2513,7188,-8161,-23863,-47,475,-283,1,0,23,26,880,0,53298,1
2,31109,30159,31795,35136,9294,-4503,3082,-2296,6296,-7943,-22402,-11,521,-275,1,0,23,26,920,0,53298,1
2,31150,30165,31824,35137,9310,-4561,2476,-1740,5915,-8148,-19813,27,561,-255,1,0,23,26,960,0,53298,1
1,31193,30160,31840,35138,0,-4832,2235,-1700,4083,-8449,-17495,57,583,-235,1,0,23,27,0,0,53298,1
2,31208,30141,31841,35139,8491,-5233,1285,-1673,1254,-7486,-16018,111,601,-227,1,0,23,27,40,0,53298,1
2,31210,30148,31843,35140,8508,-5412,259,-1598,-731,-5951,-15903,158,606,-228,1,0,23,27,80,0,53298,1
2,31203,30249,31847,35141,8525,-5226,221,-992,-804,-4927,-16975,226,600,-224,1,0,23,27,120,0,53298,1
2,31192,30285,31838,35142,8542,-4816,-80,-1235,-5757,-3362,-18251,284,576,-220,1,0,23,27,160,0,53298,1
2,31179,30275,31838,35143,8559,-4370,-55,-1382,-6678,-1969,-17932,334,542,-240,1,0,23,27,200,0,53298,1
2,31166,30244,31840,35144,8575,-3972,919,-1271,-2674,-1228,-15131,369,515,-247,1,0,23,27,240,0,53298,1
2,31169,30213,31844,35145,8592,-3721,1712,-1123,252,-364,-10088,384,506,-246,1,0,23,27,280,0,53298,1
2,31174,30212,31847,35146,8608,-3867,1990,-1238,-121,947,-3698,378,520,-256,1,0,23,27,320,0,53298,1
2,31197,30207,31851,35147,8625,-4306,1730,-1004,-1347,2224,2927,366,526,-266,1,0,23,27,360,0,53298,1
2,31224,30188,31853,35148,8643,-4841,466,-1410,-3705,3156,8645,336,558,-266,1,0,23,27,400,0,53298,1
2,31256,30179,31865,35149,8660,-5077,-262,-620,-733,2515,12321,293,563,-263,1,0,23,27,440,0,53298,1
2,31280,30175,31863,35150,8678,-5212,-1272,-741,-3006,2472,12695,262,564,-270,1,0,23,27,480,0,53298,1
2,31306,30172,31863,35151,8697,-4682,-1630,-1211,-4788,2140,10332,236,578,-272,1,0,23,27,520,0,53298,1
2,31297,30132,31849,35152,8716,-3376,810,-1680,-961,1650,9192,204,568,-282,1,0,23,27,560,0,53298,1
2,31277,30119,31834,35153,8735,-463,5959,-1998,5088,2283,14831,134,570,-266,1,0,23,27,600,0,53298,1
2,31204,30123,31836,35154,8753,-1983,6518,-2265,4513,6987,27686,41,555,-293,1,0,23,27,640,0,53298,1
2,31151,30103,31827,35155,8771,-6135,4479,-1863,130,11316,32767,-46,496,-304,1,0,23,27,680,0,53298,1
2,31095,30305,31781,35156,8789,-11098,2851,-1829,-3519,11096,32767,-92,398,-302,1,0,23,27,720,0,53298,1
2,31047,30424,31742,35157,8806,-9318,-397,-2256,-9436,7768,30370,-92,352,-270,1,0,23,27,760,0,53298,1
2,31027,30477,31693,35158,8823,-3754,3,-2490,-12535,4569,11658,-71,333,-269,1,0,23,27,800,0,53298,1
2,30996,30434,31676,35159,8840,-1926,317,-1867,-4920,3908,6777,-58,320,-282,1,0,23,27,840,0,53298,1
2,30996,30111,31689,35160,8856,-2699,232,-668,8443,2649,9964,-67,311,-291,1,0,23,27,880,0,53298,1
2,30980,30259,31669,35161,8873,-3437,-159,120,9145,1849,8042,-56,306,-300,1,0,23,27,920,0,53298,1
2,30979,30230,31665,35162,8889,-3283,-538,129,-456,-155,591,-60,312,-290,1,0,23,27,960,0,53298,1
1,30980,30265,31670,35163,0,-2341,321,-1076,-6468,-2585,-7007,-67,329,-281,1,0,23,28,0,1,53298,1
2,30985,30277,31684,35164,8026,-2276,1070,-1638,-3809,-3654,-10282,-63,343,-275,1,0,23,28,40,1,53298,1
2,30990,30276,31694,35165,8042,-2956,2095,-1629,1087,-4096,-11683,-71,369,-275,1,0,23,28,80,1,53298,1
2,31008,30300,31714,35166,8058,-3499,2869,-1853,3936,-4691,-12937,-76,402,-296,1,0,23,28,120,1,53298,1
2,31032,30240,31724,35167,8074,-4096,3172,-1533,6054,-5928,-13677,-66,432,-286,1,0,23,28,160,1,53298,1
2,31054,30269,31735,35168,8091,-4756,1798,-1700,3430,-6694,-14934,-43,473,-267,1,0,23,28,200,1,53298,1
2,31081,30266,31756,35169,8107,-4590,1467,-2113,3955,-7814,-16454,-18,510,-266,1,0,23,28,240,1,53298,1
2,31108,30227,31762,35170,8124,-4264,1403,-1907,6535,-7878,-17094,25,533,-255,1,0,23,28,280,1,53298,1
2,31133,30185,31775,35171,8142,-4724,663,-1489,5646,-6732,-17258,71,559,-247,1,0,23,28,320,1,53298,1
2,31156,30185,31777,35172,8158,-5023,336,-1376,3463,-6412,-18339,116,582,-238,1,0,23,28,360,1,53298,1
2,31166,30231,31787,35173,8176,-5185,150,-1004,1655,-6041,-19384,180,578,-230,1,0,23,28,400,1,53298,1
2,31169,30272,31795,35174,8194,-5339,240,-1218,399,-5998,-20136,247,577,-233,1,0,23,28,440,1,53298,1
2,31166,30323,31802,35175,8213,-5118,915,-1367,645,-5834,-19684,295,557,-215,1,0,23,28,480,1,53298,1
2,31166,30384,31796,35176,8232,-5025,1543,-1644,152,-4779,-16699,340,534,-218,1,0,23,28,520,1,53298,1
2,31178,30325,31803,35177,8252,-4325,1950,-1825,-157,-3232,-12146,358,526,-216,1,0,23,28,560,1,53298,1
2,31194,30218,31805,35178,8271,-3546,2848,-1855,-87,-1037,-5811,356,508,-232,1,0,23,28,600,1,53298,1
2,31195,30186,31800,35179,8291,-2734,3814,-1890,-581,1472,2772,335,525,-229,1,0,23,28,640,1,53298,1
2,31196,30185,31785,35180,8310,-1210,6393,-2628,-1289,4402,13758,269,559,-237,1,0,23,28,680,1,53298,1
2,31209,30294,31787,35181,8328,-2070,7009,-2772,-572,8724,28244,147,603,-249,1,0,23,28,720,1,53298,1
2,31189,30173,31810,35182,8347,-5618,5781,-2522,-1050,13549,32767,16,556,-268,1,0,23,28,760,1,53298,1
2,31129,30192,31798,35183,8366,-11359,5235,-2475,-3959,16279,32767,-87,423,-279,1,0,23,28,800,1,53298,1
2,31069,30154,31751,35184,8384,-15740,2312,-2613,-13186,15225,32767,-92,348,-256,1,0,23,28,840,1,53298,1
2,31040,30122,31702,35185,8402,-7138,-1082,-2553,-23838,9076,26783,-64,314,-232,1,0,23,28,880,1,53298,1
2,30992,30105,31664,35186,8420,-2701,-603,-2544,-19349,4848,12494,-61,297,-225,1,0,23,28,920,1,53298,1
2,30951,30012,31650,35187,8438,-2080,-687,-1817,-530,3347,13529,-45,277,-241,1,0,23,28,960,1,53298,1
1,30927,29990,31645,35188,7561,-3390,-1617,-325,13083,3990,14212,-44,280,-266,1,0,23,29,0,1,53298,1
2,30922,29992,31641,35189,7576,-3067,-1346,1140,10511,2776,6286,-44,276,-268,1,0,23,29,40,1,53298,1
2,30934,29981,31646,35190,7590,-3020,-1167,637,-866,-517,-3870,-54,288,-262,1,0,23,29,80,1,53298,1
2,30944,29972,31655,35191,7605,-2657,-144,-968,-5305,-3420,-12252,-62,312,-246,1,0,23,29,120,1,53298,1
2,30955,29996,31679,35192,7620,-2701,1358,-1608,-239,-4399,-16006,-78,334,-258,1,0,23,29,160,1,53298,1
2,30967,29989,31704,35193,7635,-3536,2369,-2179,6818,-4797,-17113,-74,374,-284,1,0,23,29,200,1,53298,1
2,30975,30001,31710,35194,7635,-4095,3353,-2401,11730,-5221,-18197,-76,410,-292,1,0,23,29,240,1,53298,1
2,31000,30015,31729,35195,7650,-4517,3836,-2160,12393,-6419,-18749,-50,468,-288,1,0,23,29,280,1,53298,1
2,31030,30014,31737,35196,7664,-4367,3479,-2199,7525,-6943,-18844,-33,505,-277,1,0,23,29,320,1,53298,1
2,31061,30020,31755,35197,7679,-4398,2695,-2296,3253,-6584,-17902,-1,549,-279,1,0,23,29,360,1,53298,1
2,31095,30027,31758,35198,7695,-4384,1967,-2136,2564,-5997,-16633,47,569,-269,1,0,23,29,400,1,53298,1
2,31116,30030,31768,35199,7711,-4573,1165,-1525,3807,-5527,-15016,80,592,-268,1,0,23,29,440,1,53298,1
2,31147,30025,31773,35200,7727,-4645,875,-1223,3347,-5450,-14088,121,603,-263,1,0,23,29,480,1,53298,1
2,31154,30027,31775,35201,7743,-4462,755,-1024,994,-5088,-13693,157,601,-247,1,0,23,29,520,1,53298,1
2,31152,30030,31785,35202,7760,-4472,447,-917,-1670,-4641,-13131,209,603,-243,1,0,23,29,560,1,53298,1
2,31151,30034,31790,35203,7777,-4611,556,-939,-2756,-4518,-12209,238,594,-240,1,0,23,29,600,1,53298,1
2,31151,30037,31797,35204,7794,-4666,506,-1356,-2735,-4330,-10982,274,582,-238,1,0,23,29,640,1,53298,1
2,31156,30036,31800,35205,7813,-4442,909,-1472,-574,-3727,-8869,298,570,-232,1,0,23,29,680,1,53298,1
2,31157,30037,31801,35206,7832,-4370,861,-1473,251,-2484,-5951,311,563,-233,1,0,23,29,720,1,53298,1
2,31146,30038,31797,35207,7851,-4076,1843,-2001,91,-947,-2766,302,558,-228,1,0,23,29,760,1,53298,1
2,31107,30334,31764,35208,7870,-1260,6972,-2960,-29,1631,4214,259,571,-247,1,0,23,29,800,1,53298,1
2,31116,30840,31745,35209,7888,-750,9239,-3909,-2528,7433,20357,130,594,-264,1,0,23,29,840,1,53298,1
2,31105,30792,31760,35210,7906,-4389,7097,-3312,-2788,14255,32767,-6,544,-282,1,0,23,29,880,1,53298,1
2,31045,30036,31775,35211,7924,-11112,4482,-2958,-2519,18163,32767,-81,435,-299,1,0,23,29,920,1,53298,1
2,30993,30000,31705,35212,7942,-15792,1550,-2731,-4961,17543,32767,-80,348,-300,1,0,23,29,960,1,53298,1
1,30949,29988,31672,35213,7095,-6913,-605,-2015,-9321,11219,29072,-64,320,-290,1,0,23,30,0,0,53298,1
2,30914,29961,31621,35214,7110,-2692,718,-1788,-12339,7369,13880,-57,303,-273,1,0,23,30,40,0,53298,1
2,30885,30108,31587,35215,7125,-2622,-935,-1340,-7499,6772,15325,-33,271,-271,1,0,23,30,80,0,53298,1
2,30869,30081,31581,35216,7139,-3669,-2411,-82,6907,4128,15363,-31,277,-289,1,0,23,30,120,0,53298,1
2,30863,29951,31590,35217,7153,-2737,-2013,1357,10535,1153,6928,-43,267,-283,1,0,23,30,160,0,53298,1
2,30883,29990,31604,35218,7166,-2719,-1521,516,-2554,-1446,-3517,-45,281,-285,1,0,23,30,200,0,53298,1
2,30888,29947,31607,35219,7180,-2532,-713,-1110,-9064,-3597,-11858,-55,303,-281,1,0,23,30,240,0,53298,1
2,30905,29959,31636,35220,7194,-2867,571,-1619,-1681,-5197,-16097,-74,322,-280,1,0,23,30,280,0,53298,1
2,30915,29961,31654,35221,7208,-4193,1705,-1999,6205,-6910,-18966,-72,372,-300,1,0,23,30,320,0,53298,1
2,30938,29970,31675,35222,7222,-4751,3319,-2618,9895,-8687,-22066,-62,426,-306,1,0,23,30,360,0,53298,1
2,30962,29976,31702,35223,7237,-4779,3925,-2867,9517,-9338,-22985,-51,485,-293,1,0,23,30,400,0,53298,1
2,31010,29978,31715,35224,7251,-4975,3494,-2814,7129,-8622,-21969,-20,528,-284,1,0,23,30,440,0,53298,1
2,31055,29981,31735,35225,7267,-4905,2820,-2650,5094,-7807,-20880,19,575,-277,1,0,23,30,480,0,53298,1
2,31097,29989,31748,35226,7283,-4932,1661,-2034,4575,-6823,-19005,62,600,-274,1,0,23,30,520,0,53298,1
2,31122,30000,31748,35227,7300,-5175,862,-1455,4318,-6977,-17601,124,612,-270,1,0,23,30,560,0,53298,1
2,31135,29995,31761,35228,7317,-5229,-56,-1555,3641,-7425,-17021,191,621,-255,1,0,23,30,600,0,53298,1
2,31121,30000,31762,35229,7334,-5110,-109,-1052,7134,-8107,-16524,240,604,-234,1,0,23,30,640,0,53298,1
2,31101,30006,31766,35230,7351,-4824,293,-712,6479,-8431,-16751,306,584,-222,1,0,23,30,680,0,53298,1
2,31095,30008,31778,35231,7367,-4552,532,-1065,746,-7177,-16788,351,543,-223,1,0,23,30,720,0,53298,1
2,31093,30013,31778,35232,7385,-4239,986,-1451,-2104,-5477,-14846,388,522,-208,1,0,23,30,760,0,53298,1
2,31087,30013,31784,35233,7402,-3806,2474,-1873,-1233,-4054,-9917,398,512,-210,1,0,23,30,800,0,53298,1
2,31071,30015,31785,35234,7419,-2711,5415,-3107,-2669,-1072,-1149,371,529,-215,1,0,23,30,840,0,53298,1
2,31079,30025,31781,35235,7436,-1593,7994,-4639,-5983,4606,13741,260,600,-244,1,0,23,30,880,0,53298,1
2,31120,30030,31790,35236,7453,-3936,7168,-4485,-4657,11669,32522,122,622,-262,1,0,23,30,920,0,53298,1
2,31076,30020,31786,35237,7453,-7907,4535,-4018,-4778,18549,32767,-28,548,-300,1,0,23,30,960,0,53298,1
1,31015,30028,31765,35238,6631,-13183,3659,-3004,-2732,20904,32767,-83,429,-319,1,0,23,31,0,0,53298,1
2,30967,30041,31709,35239,6647,-13135,291,-3106,-8503,18541,32767,-86,362,-302,1,0,23,31,40,0,53298,1
2,30934,30027,31685,35240,6663,-6225,-820,-2190,-9661,12882,27320,-63,323,-307,1,0,23,31,80,0,53298,1
2,30905,30036,31643,35241,6680,-3551,-716,-1287,-8330,10166,16820,-43,295,-299,1,0,23,31,120,0,53298,1
2,30890,30021,31620,35242,6697,-3194,-1874,-431,-922,7273,15560,-36,280,-306,1,0,23,31,160,0,53298,1
2,30877,30085,31601,35243,6715,-3200,-2400,622,6062,4619,11541,-36,278,-300,1,0,23,31,200,0,53298,1
2,30879,30105,31606,35244,6732,-2479,-1886,1179,1578,1922,2747,-39,281,-303,1,0,23,31,240,0,53298,1
2,30875,30169,31605,35245,6748,-2226,-497,192,-4283,-1679,-4909,-40,280,-298,1,0,23,31,280,0,53298,1
2,30880,30196,31620,35246,6764,-1884,1068,-1188,-3141,-4536,-8586,-55,301,-297,1,0,23,31,320,0,53298,1
2,30890,30218,31647,35247,6780,-2837,1881,-1765,439,-5689,-10270,-71,321,-315,1,0,23,31,360,0,53298,1
2,30899,30227,31647,35248,6796,-3835,2754,-1941,2408,-7144,-14097,-70,364,-314,1,0,23,31,400,0,53298,1
2,30921,30213,31656,35249,6812,-3757,3224,-2398,591,-8519,-18744,-65,403,-293,1,0,23,31,440,0,53298,1
2,30935,30212,31669,35250,6828,-3558,2879,-2764,299,-7844,-20157,-49,437,-287,1,0,23,31,480,0,53298,1
2,30973,30168,31697,35251,6845,-3691,2469,-2251,5470,-7205,-18367,-30,476,-300,1,0,23,31,520,0,53298,1
2,30999,30090,31706,35252,6861,-4612,1837,-1837,7962,-7329,-16534,-16,516,-288,1,0,23,31,560,0,53298,1
2,31031,30104,31722,35253,6878,-4802,1549,-1947,6075,-7877,-16799,23,551,-277,1,0,23,31,600,0,53298,1
2,31064,30104,31725,35254,6894,-5002,707,-1790,3054,-7214,-17204,61,585,-259,1,0,23,31,640,0,53298,1
2,31086,30121,31737,35255,6911,-5252,330,-1602,1273,-6702,-18254,108,594,-242,1,0,23,31,680,0,53298,1
2,31095,30120,31745,35256,6928,-5253,525,-1259,662,-6346,-19155,180,606,-236,1,0,23,31,720,0,53298,1
2,31088,30128,31739,35257,6945,-5243,582,-1200,-537,-6151,-19432,237,597,-231,1,0,23,31,760,0,53298,1
2,31086,30159,31740,35258,6962,-5091,992,-1303,-1122,-5900,-18469,295,587,-219,1,0,23,31,800,0,53298,1
2,31087,30184,31748,35259,6979,-4770,1597,-1508,-16,-5494,-15252,334,560,-224,1,0,23,31,840,0,53298,1
2,31090,30208,31750,35260,6997,-4577,1761,-1570,46,-4260,-10284,347,545,-213,1,0,23,31,880,0,53298,1
2,31109,30244,31753,35261,7016,-4492,1133,-1674,-1024,-2035,-4768,347,523,-215,1,0,23,31,920,0,53298,1
2,31109,30244,31751,35262,7016,-4179,568,-2107,657,6,1137,323,523,-215,1,0,23,31,960,0,53298,1
1,31115,30316,31751,35263,6166,-3387,1444,-1387,5420,1615,5584,311,535,-231,1,0,23,32,0,0,53298,1
2,31111,30322,31738,35264,6186,-2138,2928,-1529,1434,4328,9866,259,551,-247,1,0,23,32,40,0,53298,1
2,31107,30330,31727,35265,6205,-1282,4577,-2528,-3269,7997,16486,184,572,-256,1,0,23,32,80,0,53298,1
2,31091,30310,31744,35266,6224,-1861,6067,-2773,-137,11284,28232,73,577,-267,1,0,23,32,120,0,53298,1
2,31045,30859,31749,35267,6243,-6298,5891,-2566,1617,15408,32767,-34,492,-298,1,0,23,32,160,0,53298,1
2,30981,30710,31722,35268,6262,-12568,4754,-3550,-5531,17749,32767,-87,393,-295,1,0,23,32,200,0,53298,1
2,30945,30587,31673,35269,6279,-12514,9,-4145,-15152,15517,32767,-85,349,-281,1,0,23,32,240,0,53298,1
2,30913,30667,31629,35270,6296,-4844,-764,-3018,-15888,10150,17943,-59,315,-277,1,0,23,32,280,0,53298,1
2,30871,30671,31581,35271,6312,-1598,988,-2048,-5454,8191,11430,-49,297,-291,1,0,23,32,320,0,53298,1
2,30847,30591,31575,35272,6328,-2697,-552,-651,9190,7061,16865,-37,275,-307,1,0,23,32,360,0,53298,1
2,30847,30524,31570,35273,6344,-4221,-1661,1156,15207,5010,14278,-27,277,-311,1,0,23,32,400,0,53298,1
2,30856,30470,31570,35274,6360,-2842,-1537,1690,2919,1776,2356,-34,286,-310,1,0,23,32,440,0,53298,1
2,30865,30550,31576,35275,6376,-2554,-1404,-76,-12268,-1398,-8175,-43,299,-291,1,0,23,32,480,0,53298,1
2,30877,30421,31591,35276,6392,-2597,-905,-1199,-7532,-3989,-13594,-57,325,-307,1,0,23,32,520,0,53298,1
2,30889,30353,31621,35277,6408,-3389,796,-1515,4635,-6574,-17026,-56,358,-316,1,0,23,32,560,0,53298,1
2,30910,30316,31652,35278,6425,-4097,2214,-2209,8852,-8288,-19556,-68,408,-324,1,0,23,32,600,0,53298,1
2,30947,30269,31684,35279,6441,-5239,3101,-2631,7369,-9012,-21739,-52,460,-314,1,0,23,32,640,0,53298,1
2,31003,30230,31698,35280,6458,-5798,2869,-2810,4276,-9649,-24109,-16,518,-310,1,0,23,32,680,0,53298,1
2,31059,30220,31720,35281,6475,-5824,2133,-2619,4140,-9963,-25156,30,568,-296,1,0,23,32,720,0,53298,1
2,31089,30194,31733,35282,6492,-5451,1728,-2063,5876,-10834,-24457,91,601,-275,1,0,23,32,760,0,53298,1
2,31097,30199,31742,35283,6510,-5529,1442,-1887,5155,-11104,-23272,159,621,-259,1,0,23,32,800,0,53298,1
2,31084,30228,31743,35284,6528,-5296,931,-1793,2593,-9880,-21850,240,608,-238,1,0,23,32,840,0,53298,1
2,31076,30257,31747,35285,6546,-5374,312,-1670,1392,-8371,-20154,299,593,-237,1,0,23,32,880,0,53298,1
2,31070,30267,31754,35286,6565,-5314,151,-1211,546,-6804,-19225,361,541,-217,1,0,23,32,920,0,53298,1
2,31071,30295,31751,35287,6565,-5326,-262,-909,-1897,-5310,-18574,407,495,-227,1,0,23,32,960,0,53298,1
1,31060,30309,31737,35288,5701,-4807,-464,-1200,-3592,-4322,-17619,441,439,-221,1,0,23,33,0,0,53298,1
2,31056,30325,31730,35289,5718,-4088,266,-1209,-1300,-3849,-15111,445,403,-223,1,0,23,33,40,0,53298,1
2,31061,30341,31729,35290,5736,-3309,595,-1533,823,-2832,-10116,435,385,-231,1,0,23,33,80,0,53298,1
2,31060,30341,31732,35291,5754,-2949,1109,-1990,2532,-665,-3738,442,396,-230,1,0,23,33,120,0,53298,1
2,31054,30400,31740,35292,5772,-3108,1501,-1823,2696,2681,3259,428,420,-232,1,0,23,33,160,0,53298,1
2,31060,30254,31749,35293,5791,-3456,2593,-2094,75,6057,10638,407,481,-237,1,0,23,33,200,0,53298,1
2,31084,30246,31757,35294,5808,-3224,4627,-3162,-2391,9161,20083,334,560,-262,1,0,23,33,240,0,53298,1
2,31144,30237,31769,35295,5827,-4800,6115,-3141,213,12037,32767,200,614,-298,1,0,23,33,280,0,53298,1
2,31127,30220,31764,35296,5845,-7719,4660,-3096,-3963,16386,32767,40,602,-318,1,0,23,33,320,0,53298,1
2,31008,30312,31743,35297,5863,-11157,3015,-3107,-4550,17855,32767,-55,507,-327,1,0,23,33,360,0,53298,1
2,30963,30352,31688,35298,5880,-13217,1268,-2651,-6461,17093,32767,-81,391,-323,1,0,23,33,400,0,53298,1
2,30934,30358,31654,35299,5898,-8405,-1150,-2282,-13845,13250,32159,-77,353,-305,1,0,23,33,440,0,53298,1
2,30910,30409,31621,35300,5915,-4626,-969,-1215,-10438,8055,18475,-56,304,-296,1,0,23,33,480,0,53298,1
2,30891,30391,31608,35301,5932,-2808,-922,-1076,-4028,5142,13236,-51,297,-295,1,0,23,33,520,0,53298,1
2,30879,30441,31593,35302,5948,-2607,-1096,-264,3654,3759,12402,-41,287,-307,1,0,23,33,560,0,53298,1
2,30873,30524,31590,35303,5965,-2773,-1391,620,4435,2262,8783,-43,289,-307,1,0,23,33,600,0,53298,1
2,30871,30529,31593,35304,5981,-2486,-968,70,-1736,-535,1698,-53,287,-297,1,0,23,33,640,0,53298,1
2,30867,30529,31597,35305,5997,-2374,112,-932,-5747,-3132,-5501,-59,297,-297,1,0,23,33,680,0,53298,1
2,30874,30510,31618,35306,6012,-2367,1547,-1690,-4771,-5082,-10456,-65,317,-287,1,0,23,33,720,0,53298,1
2,30890,30523,31628,35307,6027,-3408,1948,-2012,-2282,-6089,-13514,-76,346,-276,1,0,23,33,760,0,53298,1
2,30908,30520,31640,35308,6044,-4179,2482,-2227,-102,-7468,-18632,-77,387,-275,1,0,23,33,800,0,53298,1
2,30915,30489,31645,35309,6060,-3329,3354,-2673,1578,-7165,-21142,-61,419,-275,1,0,23,33,840,0,53298,1
2,30945,30429,31667,35310,6077,-3624,2671,-2064,6256,-6125,-18012,-59,471,-267,1,0,23,33,880,0,53298,1
2,30975,30467,31684,35311,6093,-4511,2278,-1746,7898,-6494,-16056,-38,508,-260,1,0,23,33,920,0,53298,1
2,31004,30436,31705,35312,6093,-4930,1800,-1988,5207,-6537,-16635,-4,534,-244,1,0,23,33,960,0,53298,1
1,31041,30483,31717,35313,5235,-5379,925,-1584,4207,-5995,-16727,54,576,-244,1,0,23,34,0,1,53298,1
2,31060,30512,31733,35314,5254,-5703,510,-925,4132,-7146,-17841,100,598,-226,1,0,23,34,40,1,53298,1
2,31067,30532,31730,35315,5272,-5664,382,-638,1431,-8127,-19588,166,602,-212,1,0,23,34,80,1,53298,1
2,31065,30583,31726,35316,5291,-5527,-139,-741,-2012,-8504,-20997,236,596,-212,1,0,23,34,120,1,53298,1
2,31060,30635,31741,35317,5310,-5298,-179,-886,-1888,-8558,-21529,304,556,-206,1,0,23,34,160,1,53298,1
2,31061,30645,31744,35318,5329,-4943,672,-928,734,-8635,-20746,361,523,-197,1,0,23,34,200,1,53298,1
2,31062,30650,31741,35319,5348,-4324,1187,-1872,634,-7437,-17992,384,492,-180,1,0,23,34,240,1,53298,1
2,31065,30685,31746,35320,5367,-3838,2970,-1359,2931,-2758,-12569,411,467,-197,1,0,23,34,280,1,53298,1
2,31069,30676,31753,35321,5386,-3755,2744,-1948,104,1057,-5621,403,471,-197,1,0,23,34,320,1,53298,1
2,31055,30656,31752,35322,5404,-3155,4805,-2955,-615,4808,4649,369,517,-213,1,0,23,34,360,1,53298,1
2,31056,30715,31742,35323,5423,-2286,7682,-3333,2533,8683,19691,281,581,-231,1,0,23,34,400,1,53298,1
2,31089,30685,31751,35324,5442,-4156,7316,-3295,410,14698,32767,137,615,-255,1,0,23,34,440,1,53298,1
2,31053,30681,31762,35325,5461,-7802,5198,-3006,-2916,19833,32767,-25,547,-285,1,0,23,34,480,1,53298,1
2,30970,31004,31726,35326,5480,-14145,4015,-2619,-4177,21413,32767,-86,422,-306,1,0,23,34,520,1,53298,1
2,30936,30951,31675,35327,5498,-14361,-506,-2348,-14031,18534,32767,-75,335,-283,1,0,23,34,560,1,53298,1
2,30920,30954,31645,35328,5515,-5826,-1776,-1707,-18703,10014,22418,-65,323,-263,1,0,23,34,600,1,53298,1
2,30883,30905,31606,35329,5533,-3007,-1007,-1507,-14164,5818,11031,-55,311,-249,1,0,23,34,640,1,53298,1
2,30861,30851,31596,35330,5550,-2100,-1187,-925,369,4010,12398,-41,285,-273,1,0,23,34,680,1,53298,1
2,30850,30946,31586,35331,5565,-2771,-1256,236,12970,2990,13563,-38,282,-280,1,0,23,34,720,1,53298,1
2,30861,30868,31589,35332,5580,-2923,-1318,997,7839,1953,7695,-45,279,-277,1,0,23,34,760,1,53298,1
2,30867,30767,31610,35333,5596,-3021,-1199,203,-5244,-814,-2276,-60,288,-278,1,0,23,34,800,1,53298,1
2,30881,30700,31618,35334,5612,-2810,57,-1407,-9433,-4118,-11336,-69,309,-261,1,0,23,34,840,1,53298,1
2,30886,30780,31635,35335,5627,-3110,1111,-2194,-2982,-5560,-16161,-77,347,-271,1,0,23,34,880,1,53298,1
2,30901,30836,31658,35336,5642,-3851,2557,-2405,7202,-6886,-18762,-73,373,-285,1,0,23,34,920,1,53298,1
2,30919,30808,31679,35337,5642,-3847,3814,-2767,12110,-7742,-20225,-63,425,-297,1,0,23,34,960,1,53298,1
1,30945,30722,31703,35338,4771,-4659,3212,-2196,11746,-7464,-19454,-51,475,-295,1,0,23,35,0,0,53298,1
2,30979,30615,31717,35339,4787,-4838,2689,-1902,6787,-8185,-19728,-21,511,-283,1,0,23,35,40,0,53298,1
2,31023,30547,31729,35340,4804,-5169,1623,-2020,2369,-8159,-20372,21,571,-269,1,0,23,35,80,0,53298,1
2,31062,30583,31748,35341,4822,-5491,932,-1415,3127,-8615,-20176,77,597,-243,1,0,23,35,120,0,53298,1
2,31101,30587,31765,35342,4841,-5569,221,-1336,2107,-9093,-20861,146,618,-230,1,0,23,35,160,0,53298,1
2,31107,30896,31771,35343,4861,-5408,333,-1356,936,-8075,-21482,223,603,-231,1,0,23,35,200,0,53298,1
2,31090,31359,31764,35344,4881,-5091,430,-1120,519,-6971,-21517,291,587,-221,1,0,23,35,240,0,53298,1
2,31084,31222,31778,35345,4901,-4993,830,-1141,-924,-5537,-20760,352,550,-220,1,0,23,35,280,0,53298,1
2,31084,30617,31778,35346,4921,-4612,1589,-1524,-1165,-4392,-18071,392,514,-218,1,0,23,35,320,0,53298,1
2,31078,30769,31776,35347,4941,-3859,2259,-1804,538,-3134,-12534,396,500,-224,1,0,23,35,360,0,53298,1
2,31079,30678,31775,35348,4960,-3331,2631,-1792,2202,-1420,-4510,391,501,-211,1,0,23,35,400,0,53298,1
2,31088,30633,31781,35349,4980,-3389,2362,-1758,945,1056,3904,374,528,-222,1,0,23,35,440,0,53298,1
2,31095,30560,31782,35350,4999,-3875,2826,-2458,-2057,4007,11331,320,570,-240,1,0,23,35,480,0,53298,1
2,31096,30555,31765,35351,5017,-3146,5936,-3121,-2084,6929,20750,223,607,-243,1,0,23,35,520,0,53298,1
2,31090,30531,31763,35352,5036,-3864,6998,-3735,-2807,11418,32767,79,601,-261,1,0,23,35,560,0,53298,1
2,31026,30697,31759,35353,5055,-8074,5191,-3206,-2752,16822,32767,-62,486,-294,1,0,23,35,600,0,53298,1
2,30961,31254,31716,35354,5074,-13465,3245,-2977,-5647,19353,32767,-85,379,-307,1,0,23,35,640,0,53298,1
2,30939,30385,31665,35355,5091,-11935,-930,-2089,-11499,16638,32767,-78,336,-288,1,0,23,35,680,0,53298,1
2,30922,30259,31643,35356,5109,-4931,-1306,-1299,-12625,9141,20852,-60,310,-272,1,0,23,35,720,0,53298,1
2,30900,30274,31608,35357,5126,-2744,-919,-1251,-9199,5603,11556,-56,296,-266,1,0,23,35,760,0,53298,1
2,30887,30138,31604,35358,5144,-2411,-1473,-657,1379,3720,11548,-41,281,-289,1,0,23,35,800,0,53298,1
2,30887,30019,31604,35359,5161,-2757,-1662,245,8439,2606,9730,-52,276,-292,1,0,23,35,840,0,53298,1
2,30891,29973,31613,35360,5177,-2901,-1825,729,3627,698,2429,-48,280,-290,1,0,23,35,880,0,53298,1
2,30906,29976,31620,35361,5193,-3075,-1602,-247,-3720,-2701,-7649,-59,307,-277,1,0,23,35,920,0,53298,1
2,30920,29998,31642,35362,5193,-3670,-394,-1329,-2181,-5836,-16057,-69,333,-283,1,0,23,35,960,0,53298,1
1,30935,30004,31671,35363,4306,-4283,1480,-2146,3561,-8078,-21845,-79,381,-295,1,0,23,36,0,1,53298,1
2,30960,30050,31688,35364,4323,-4214,3302,-2813,7591,-8637,-24302,-67,441,-297,1,0,23,36,40,1,53298,1
2,31005,30007,31722,35365,4339,-5360,3025,-2578,9940,-8323,-23153,-45,499,-291,1,0,23,36,80,1,53298,1
2,31039,30013,31745,35366,4355,-6107,2892,-2627,8868,-9584,-23277,13,567,-283,1,0,23,36,120,1,53298,1
2,31092,29987,31754,35367,4373,-5751,2233,-2871,4893,-9427,-24626,68,608,-266,1,0,23,36,160,1,53298,1
2,31110,29991,31768,35368,4390,-5442,1460,-1859,3763,-8373,-23762,142,634,-248,1,0,23,36,200,1,53298,1
2,31109,29990,31768,35369,4407,-5493,956,-1614,815,-8063,-22753,217,615,-251,1,0,23,36,240,1,53298,1
2,31101,29984,31757,35370,4425,-5012,636,-1651,-1879,-6637,-21808,297,597,-253,1,0,23,36,280,1,53298,1
2,31086,29996,31749,35371,4442,-4517,582,-1531,-1925,-4695,-20091,354,558,-256,1,0,23,36,320,1,53298,1
2,31079,29993,31749,35372,4459,-4330,823,-1268,-255,-3038,-17226,391,535,-249,1,0,23,36,360,1,53298,1
2,31077,29987,31739,35373,4477,-4144,1346,-1106,1030,-1784,-12834,405,505,-239,1,0,23,36,400,1,53298,1
2,31071,30000,31738,35374,4494,-3835,1586,-1200,899,-894,-7460,422,500,-248,1,0,23,36,440,1,53298,1
2,31074,29997,31744,35375,4511,-3521,1742,-1451,451,-30,-1202,405,507,-241,1,0,23,36,480,1,53298,1
2,31084,29997,31744,35376,4528,-3510,1775,-1789,611,1293,5641,377,545,-245,1,0,23,36,520,1,53298,1
2,31096,29993,31751,35377,4545,-3600,2099,-2064,1731,3036,12566,319,587,-247,1,0,23,36,560,1,53298,1
2,31120,29990,31752,35378,4562,-3938,2237,-2319,1688,5374,19097,247,615,-269,1,0,23,36,600,1,53298,1
2,31125,29990,31754,35379,4580,-4728,2400,-2427,837,7931,24887,149,621,-279,1,0,23,36,640,1,53298,1
2,31083,29992,31748,35380,4597,-5841,2296,-2419,-697,10269,29465,21,585,-293,1,0,23,36,680,1,53298,1
2,31036,29982,31742,35381,4614,-7051,2253,-2483,-2381,11435,31997,-42,514,-306,1,0,23,36,720,1,53298,1
2,30987,29977,31712,35382,4630,-7850,2080,-2565,-5783,11833,31251,-70,436,-312,1,0,23,36,760,1,53298,1
2,30946,29969,31683,35383,4645,-6651,2093,-2402,-10439,10977,27259,-81,383,-299,1,0,23,36,800,1,53298,1
2,30922,29952,31650,35384,4660,-4900,2087,-2538,-13893,9712,23452,-73,323,-283,1,0,23,36,840,1,53298,1
2,30904,29953,31620,35385,4675,-4430,783,-2313,-11822,9151,22777,-54,302,-286,1,0,23,36,880,1,53298,1
2,30874,29942,31601,35386,4691,-3981,-345,-1311,-1492,6935,20723,-54,280,-290,1,0,23,36,920,1,53298,1
2,30857,29960,31585,35387,4691,-2930,-414,-564,5625,4536,14972,-43,275,-289,1,0,23,36,960,1,53298,1
1,30829,30029,31577,35388,3841,-2127,-102,-119,2818,2902,7821,-42,258,-282,1,0,23,37,0,1,53298,1
2,30847,30116,31580,35389,3855,-1355,535,-289,-3484,1040,2059,-42,270,-278,1,0,23,37,40,1,53298,1
2,30860,30060,31593,35390,3868,-1246,190,-785,-7143,-203,-560,-48,266,-276,1,0,23,37,80,1,53298,1
2,30854,30592,31607,35391,3883,-1519,1321,-1522,-6530,-521,-3009,-59,271,-271,1,0,23,37,120,1,53298,1
2,30852,30662,31606,35392,3897,-1633,2444,-1467,-1165,-2402,-6298,-64,282,-268,1,0,23,37,160,1,53298,1
2,30853,30627,31610,35393,3911,-2090,2603,-1676,295,-3809,-9289,-73,299,-255,1,0,23,37,200,1,53298,1
2,30865,30633,31616,35394,3925,-1941,3410,-1860,63,-4014,-11151,-72,314,-270,1,0,23,37,240,1,53298,1
2,30879,30659,31627,35395,3939,-2287,3007,-1553,315,-3219,-10312,-72,332,-274,1,0,23,37,280,1,53298,1
2,30888,30665,31636,35396,3954,-3193,1952,-1404,1228,-3278,-10207,-75,353,-277,1,0,23,37,320,1,53298,1
2,30901,30672,31640,35397,3969,-3486,1978,-1539,4108,-4073,-12051,-69,379,-277,1,0,23,37,360,1,53298,1
2,30917,30678,31655,35398,3983,-3363,2003,-1464,6117,-4414,-13203,-68,408,-292,1,0,23,37,400,1,53298,1
2,30944,30682,31671,35399,3998,-3714,1615,-1519,6039,-4353,-13330,-60,442,-278,1,0,23,37,440,1,53298,1
2,30963,30681,31685,35400,4013,-4003,1498,-1831,5472,-4392,-14334,-41,479,-279,1,0,23,37,480,1,53298,1
2,31005,30672,31721,35401,4029,-4870,790,-1501,6624,-4972,-15765,-15,521,-279,1,0,23,37,520,1,53298,1
2,31074,30690,31744,35402,4045,-5737,623,-1543,5291,-6062,-18322,22,558,-266,1,0,23,37,560,1,53298,1
2,31124,30681,31768,35403,4062,-5980,351,-1561,2247,-6933,-21696,82,596,-258,1,0,23,37,600,1,53298,1
2,31153,30638,31773,35404,4080,-6143,-193,-1922,1993,-7477,-24019,161,609,-243,1,0,23,37,640,1,53298,1
2,31150,30628,31789,35405,4097,-5988,-570,-1679,6084,-8090,-25486,256,604,-238,1,0,23,37,680,1,53298,1
2,31148,30557,31794,35406,4115,-5648,334,-1143,7563,-8418,-26442,359,551,-229,1,0,23,37,720,1,53298,1
2,31153,30640,31792,35407,4133,-5412,1025,-1397,1420,-6708,-26073,419,493,-239,1,0,23,37,760,1,53298,1
2,31155,30608,31790,35408,4152,-4802,1534,-1592,-3267,-4289,-23063,449,431,-231,1,0,23,37,800,1,53298,1
2,31164,30529,31787,35409,4171,-4369,1542,-1909,-3316,-2783,-16674,459,399,-225,1,0,23,37,840,1,53298,1
2,31183,30490,31791,35410,4190,-3873,1622,-1858,175,-1811,-7863,453,399,-241,1,0,23,37,880,1,53298,1
2,31190,30246,31801,35411,4211,-3466,1476,-1709,1051,36,1205,438,416,-244,1,0,23,37,920,1,53298,1
2,31225,30118,31797,35412,4211,-3537,1391,-1854,-947,2707,8656,415,449,-243,1,0,23,37,960,1,53298,1
1,31290,30300,31791,35413,3378,-3276,2714,-1834,-1251,5308,15506,376,516,-266,1,0,23,38,0,0,53298,1
2,31352,30943,31757,35414,3400,-2856,4902,-2364,-2885,7739,24287,275,587,-285,1,0,23,38,40,0,53298,1
2,31399,30080,31783,35415,3421,-3552,6047,-2547,-3665,10631,32767,119,613,-301,1,0,23,38,80,0,53298,1
2,31330,30091,31793,35416,3443,-7149,5065,-1942,-3855,13314,32767,-24,556,-290,1,0,23,38,120,0,53298,1
2,31279,30357,31768,35417,3464,-12703,4554,-1315,-8667,13403,32767,-104,430,-284,1,0,23,38,160,0,53298,1
2,31219,30024,31716,35418,3484,-15076,946,-1740,-19523,8969,32767,-102,360,-236,1,0,23,38,200,0,53298,1
2,31188,30083,31663,35419,3503,-6214,-1411,-3137,-30058,3225,22541,-67,323,-201,1,0,23,38,240,0,53298,1
2,31111,30070,31639,35420,3522,-2262,-936,-3031,-18440,829,10790,-65,299,-197,1,0,23,38,280,0,53298,1
2,31021,30111,31618,35421,3540,-2292,-552,-2107,3839,-178,13528,-59,283,-221,1,0,23,38,320,0,53298,1
2,30984,29984,31609,35422,3557,-3334,-951,-1068,11220,1813,12886,-58,282,-224,1,0,23,38,360,0,53298,1
2,30984,30005,31619,35423,3574,-2678,-759,328,5556,2286,5222,-55,275,-235,1,0,23,38,400,0,53298,1
2,30966,29987,31630,35424,3591,-2436,117,-242,-2399,297,-1827,-63,291,-239,1,0,23,38,440,0,53298,1
2,30956,29924,31618,35425,3607,-1857,1790,-1405,-4735,-1181,-7092,-67,305,-221,1,0,23,38,480,0,53298,1
2,30950,29947,31623,35426,3623,-2049,2884,-1482,-2071,-1161,-8796,-78,316,-218,1,0,23,38,520,0,53298,1
2,30950,29947,31634,35427,3640,-2720,3307,-1238,2950,-1432,-9626,-82,334,-230,1,0,23,38,560,0,53298,1
2,30946,29947,31627,35428,3655,-2611,3892,-1317,5205,-2044,-11814,-80,354,-238,1,0,23,38,600,0,53298,1
2,30950,29958,31634,35429,3671,-2113,3928,-1359,5107,-1892,-11335,-77,373,-245,1,0,23,38,640,0,53298,1
2,30962,29962,31650,35430,3687,-2667,3298,-1102,4727,-1199,-8435,-73,389,-255,1,0,23,38,680,0,53298,1
2,30969,29979,31654,35431,3701,-3294,2549,-1134,4144,-1329,-7239,-75,405,-255,1,0,23,38,720,0,53298,1
2,30979,29989,31655,35432,3716,-3658,2045,-1182,3827,-1687,-7685,-76,422,-250,1,0,23,38,760,0,53298,1
2,30988,30016,31667,35433,3731,-3684,1640,-1439,3816,-1970,-8523,-60,446,-258,1,0,23,38,800,0,53298,1
2,31003,30022,31670,35434,3747,-4047,1069,-1755,5004,-1817,-9559,-46,470,-268,1,0,23,38,840,0,53298,1
2,31017,30046,31683,35435,3763,-4568,597,-1729,7418,-1950,-11316,-27,509,-273,1,0,23,38,880,0,53298,1
2,31045,30046,31697,35436,3779,-4813,765,-1665,9229,-2871,-14205,12,542,-280,1,0,23,38,920,0,53298,1
2,31089,30040,31699,35437,3779,-4385,1369,-1531,6788,-3086,-16772,44,574,-282,1,0,23,38,960,0,53298,1
1,31120,30016,31714,35438,2913,-4232,1515,-1809,3425,-2361,-15660,86,596,-280,1,0,23,39,0,1,53298,1
