sensorStatus,cap1,cap2,cap3,counter,microseconds_since_last_tick,accX,accY,accZ,gyroX,gyroY,gyroZ,magnetX,magnetY,magnetZ,day,hour,min,sec,msec,sync,battery_fuel,crc_good
1,28840,30967,32567,60689,5133,-4587,-915,-436,11,-64,8,220,502,-142,1,0,40,29,40,0,53298,1
2,28863,30964,32569,60690,5143,-4589,-916,-450,-13,-29,47,227,509,-149,1,0,40,29,80,0,53298,1
2,28852,30964,32562,60691,5153,-4605,-929,-449,14,3,61,230,512,-150,1,0,40,29,120,0,53298,1
2,28863,30966,32567,60692,5164,-4582,-886,-443,5,20,48,230,512,-156,1,0,40,29,160,0,53298,1
2,28831,30965,32565,60693,5175,-4599,-912,-440,-21,21,21,227,511,-155,1,0,40,29,200,0,53298,1
2,28839,30967,32561,60694,5186,-4600,-919,-447,-11,-7,13,218,518,-152,1,0,40,29,240,0,53298,1
2,28845,30963,32561,60695,5196,-4587,-906,-437,-12,-38,11,228,506,-154,1,0,40,29,280,0,53298,1
2,28842,30964,32563,60696,5207,-4590,-917,-425,-8,-38,27,224,500,-154,1,0,40,29,320,0,53298,1
2,28841,30966,32563,60697,5218,-4606,-919,-439,-12,-18,20,232,512,-150,1,0,40,29,360,0,53298,1
2,28841,30966,32570,60698,5230,-4598,-913,-439,-22,5,16,229,507,-157,1,0,40,29,400,0,53298,1
2,28836,30971,32568,60699,5240,-4598,-907,-443,-19,10,13,232,510,-150,1,0,40,29,440,0,53298,1
2,28834,30966,32570,60700,5252,-4594,-907,-446,-6,-12,20,219,505,-137,1,0,40,29,480,0,53298,1
2,28839,30960,32561,60701,5264,-4591,-911,-434,-13,-39,36,224,510,-152,1,0,40,29,520,0,53298,1
2,28848,30955,32561,60702,5274,-4599,-913,-443,5,-48,40,223,507,-153,1,0,40,29,560,0,53298,1
2,28843,30963,32564,60703,5286,-4595,-906,-432,2,-30,52,232,508,-154,1,0,40,29,600,0,53298,1
2,28844,30963,32569,60704,5297,-4574,-891,-442,-9,1,46,229,515,-159,1,0,40,29,640,0,53298,1
2,28855,30965,32572,60705,5308,-4604,-915,-462,-12,11,24,227,509,-153,1,0,40,29,680,0,53298,1
2,28848,30964,32574,60706,5319,-4603,-914,-451,-26,11,2,227,505,-151,1,0,40,29,720,0,53298,1
2,28833,30962,32573,60707,5329,-4598,-920,-443,-18,-10,-1,214,520,-154,1,0,40,29,760,0,53298,1
2,28855,30964,32568,60708,5339,-4593,-911,-436,-17,-9,15,227,507,-153,1,0,40,29,800,0,53298,1
2,28852,30966,32570,60709,5350,-4592,-919,-443,-10,-3,21,225,513,-155,1,0,40,29,840,0,53298,1
2,28829,30965,32567,60710,5362,-4592,-908,-453,-12,-2,24,229,519,-155,1,0,40,29,880,0,53298,1
2,28845,30962,32565,60711,5373,-4603,-920,-447,-8,-12,32,228,496,-154,1,0,40,29,920,0,53298,1
2,28840,30963,32565,60712,5373,-4611,-913,-441,1,-40,32,226,510,-158,1,0,40,29,960,0,53298,1
1,28837,30962,32571,60713,4667,-4606,-921,-455,0,-53,34,228,498,-160,1,0,40,30,0,1,53298,1
2,28840,30961,32568,60714,4678,-4592,-904,-433,-5,-34,39,229,501,-151,1,0,40,30,40,1,53298,1
2,28866,30964,32568,60715,4690,-4598,-913,-435,-8,-6,32,226,504,-150,1,0,40,30,80,1,53298,1
2,28855,30966,32575,60716,4701,-4602,-921,-452,-14,2,19,227,513,-145,1,0,40,30,120,1,53298,1
2,28851,30967,32575,60717,4713,-4600,-913,-449,-11,3,23,224,508,-150,1,0,40,30,160,1,53298,1
2,28847,30965,32567,60718,4724,-4595,-899,-443,-13,-9,19,233,509,-149,1,0,40,30,200,1,53298,1
2,28840,30963,32567,60719,4736,-4593,-910,-444,-9,-19,26,228,506,-154,1,0,40,30,240,1,53298,1
2,28838,30965,32568,60720,4748,-4604,-910,-452,-3,-24,28,227,511,-149,1,0,40,30,280,1,53298,1
2,28835,30958,32563,60721,4759,-4599,-921,-450,-17,-19,30,226,508,-144,1,0,40,30,320,1,53298,1
2,28848,30958,32561,60722,4771,-4602,-913,-451,-10,-20,34,227,505,-153,1,0,40,30,360,1,53298,1
2,28825,30961,32566,60723,4783,-4603,-916,-447,-4,-15,26,222,506,-154,1,0,40,30,400,1,53298,1
2,28852,30957,32566,60724,4794,-4609,-916,-448,6,-11,25,232,504,-146,1,0,40,30,440,1,53298,1
2,28851,30961,32563,60725,4806,-4589,-915,-447,-5,-8,31,222,510,-158,1,0,40,30,480,1,53298,1
2,28849,30957,32568,60726,4818,-4589,-898,-450,-6,4,35,220,516,-146,1,0,40,30,520,1,53298,1
2,28848,30956,32567,60727,4829,-4617,-928,-461,-11,-3,20,223,513,-151,1,0,40,30,560,1,53298,1
2,28854,30958,32563,60728,4841,-4599,-906,-451,-12,-25,27,218,508,-152,1,0,40,30,600,1,53298,1
2,28845,30953,32561,60729,4853,-4595,-909,-442,-13,-41,21,226,508,-150,1,0,40,30,640,1,53298,1
2,28853,30955,32567,60730,4865,-4593,-912,-445,-10,-47,17,223,515,-151,1,0,40,30,680,1,53298,1
2,28859,30959,32566,60731,4878,-4606,-918,-440,-10,-38,25,224,504,-154,1,0,40,30,720,1,53298,1
2,28870,30959,32566,60732,4890,-4600,-919,-459,-12,-27,32,226,508,-154,1,0,40,30,760,1,53298,1
2,28860,30957,32567,60733,4902,-4599,-908,-437,-12,-16,34,224,506,-154,1,0,40,30,800,1,53298,1
2,28840,30965,32564,60734,4914,-4596,-907,-449,-6,-15,31,230,516,-156,1,0,40,30,840,1,53298,1
2,28828,30955,32562,60735,4926,-4607,-917,-444,-4,-20,31,222,520,-146,1,0,40,30,880,1,53298,1
2,28841,30957,32565,60736,4937,-4612,-920,-444,-9,-13,23,226,510,-144,1,0,40,30,920,1,53298,1
2,28851,30962,32570,60737,4937,-4592,-911,-443,-25,-15,16,228,508,-146,1,0,40,30,960,1,53298,1
1,28845,30960,32568,60738,4212,-4590,-904,-436,-12,-20,24,227,513,-151,1,0,40,31,0,1,53298,1
2,28839,30961,32567,60739,4224,-4593,-904,-434,-10,-21,23,222,506,-156,1,0,40,31,40,1,53298,1
2,28852,30958,32568,60740,4236,-4603,-909,-447,-7,-10,23,226,508,-154,1,0,40,31,80,1,53298,1
2,28843,30963,32568,60741,4248,-4596,-907,-440,-23,-26,10,226,508,-156,1,0,40,31,120,1,53298,1
2,28861,30961,32561,60742,4260,-4606,-929,-441,-18,-26,15,228,508,-158,1,0,40,31,160,1,53298,1
2,28850,30962,32566,60743,4272,-4613,-921,-443,-7,-38,23,223,507,-143,1,0,40,31,200,1,53298,1
2,28846,30956,32563,60744,4283,-4599,-902,-448,0,-29,38,226,510,-150,1,0,40,31,240,1,53298,1
2,28852,30961,32551,60745,4294,-4596,-910,-438,-2,-5,41,228,506,-150,1,0,40,31,280,1,53298,1
2,28842,30955,32564,60746,4305,-4602,-917,-441,-12,14,20,222,508,-158,1,0,40,31,320,1,53298,1
2,28847,30957,32564,60747,4317,-4596,-897,-450,-20,20,1,235,507,-149,1,0,40,31,360,1,53298,1
2,28853,30958,32564,60748,4328,-4590,-913,-438,-16,2,2,217,503,-151,1,0,40,31,400,1,53298,1
2,28856,30959,32567,60749,4339,-4596,-914,-440,-18,-37,3,220,514,-154,1,0,40,31,440,1,53298,1
2,28859,30960,32565,60750,4350,-4604,-927,-452,0,-41,31,230,512,-152,1,0,40,31,480,1,53298,1
2,28854,30959,32563,60751,4361,-4605,-911,-432,-7,-38,34,225,509,-151,1,0,40,31,520,1,53298,1
2,28844,30961,32567,60752,4372,-4607,-917,-443,-12,-18,29,219,513,-153,1,0,40,31,560,1,53298,1
2,28843,30963,32564,60753,4383,-4587,-912,-442,-16,-10,28,225,505,-155,1,0,40,31,600,1,53298,1
2,28838,30961,32564,60754,4394,-4595,-904,-439,-15,-11,23,222,512,-156,1,0,40,31,640,1,53298,1
2,28845,30964,32567,60755,4406,-4590,-920,-433,-9,2,19,220,506,-148,1,0,40,31,680,1,53298,1
2,28825,30967,32574,60756,4417,-4597,-906,-438,-19,10,19,224,506,-146,1,0,40,31,720,1,53298,1
2,28812,30963,32573,60757,4429,-4594,-916,-454,-11,13,19,224,514,-146,1,0,40,31,760,1,53298,1
2,28826,30960,32571,60758,4439,-4591,-918,-441,-15,8,20,224,510,-152,1,0,40,31,800,1,53298,1
2,28821,30962,32573,60759,4451,-4584,-904,-450,-6,-16,20,228,504,-158,1,0,40,31,840,1,53298,1
2,28816,30963,32568,60760,4462,-4590,-907,-453,-14,-42,40,228,496,-158,1,0,40,31,880,1,53298,1
2,28811,30964,32567,60761,4473,-4603,-914,-438,-3,-31,48,215,513,-131,1,0,40,31,920,1,53298,1
2,28813,30966,32565,60762,4473,-4596,-912,-437,1,-27,40,225,505,-151,1,0,40,31,960,1,53298,1
1,28819,30964,32564,60763,3757,-4602,-923,-448,-6,-13,29,228,514,-150,1,0,40,32,0,0,53298,1
2,28805,30961,32565,60764,3768,-4590,-910,-444,-19,-19,26,226,508,-150,1,0,40,32,40,0,53298,1
2,28810,30968,32564,60765,3779,-4585,-899,-440,-3,-19,24,229,507,-149,1,0,40,32,80,0,53298,1
2,28809,30965,32562,60766,3791,-4600,-911,-445,-8,-5,25,224,502,-150,1,0,40,32,120,0,53298,1
2,28800,30963,32562,60767,3803,-4604,-917,-442,-12,-9,19,226,510,-158,1,0,40,32,160,0,53298,1
2,28808,30969,32567,60768,3815,-4594,-910,-432,-11,-14,23,228,508,-154,1,0,40,32,200,0,53298,1
2,28796,30968,32567,60769,3827,-4602,-916,-439,3,-15,29,225,501,-151,1,0,40,32,240,0,53298,1
2,28795,30966,32565,60770,3838,-4598,-920,-440,-6,-26,37,230,514,-152,1,0,40,32,280,0,53298,1
2,28808,30967,32564,60771,3850,-4586,-901,-444,-3,-19,37,222,510,-154,1,0,40,32,320,0,53298,1
2,28807,30961,32565,60772,3861,-4605,-919,-442,-12,-14,26,222,512,-144,1,0,40,32,360,0,53298,1
2,28811,30967,32561,60773,3872,-4600,-920,-443,-14,-8,21,225,513,-155,1,0,40,32,400,0,53298,1
2,28821,30963,32565,60774,3883,-4598,-921,-442,-13,-11,16,231,507,-159,1,0,40,32,440,0,53298,1
2,28823,30959,32564,60775,3894,-4601,-925,-442,-14,-16,14,228,518,-152,1,0,40,32,480,0,53298,1
2,28813,30960,32562,60776,3905,-4603,-911,-442,-9,-16,24,230,502,-150,1,0,40,32,520,0,53298,1
2,28832,30958,32560,60777,3915,-4611,-925,-441,-11,-9,25,230,512,-152,1,0,40,32,560,0,53298,1
2,28832,30955,32561,60778,3926,-4600,-921,-444,-33,-7,19,219,513,-141,1,0,40,32,600,0,53298,1
2,28820,30959,32564,60779,3937,-4599,-906,-436,-30,-23,14,223,509,-147,1,0,40,32,640,0,53298,1
2,28832,30982,32566,60780,3948,-4650,-873,-410,-353,-58,-21,233,503,-151,1,0,40,32,680,0,53298,1
2,28840,30978,32569,60781,3958,-4603,-847,-392,-1138,-149,-159,221,507,-153,1,0,40,32,720,0,53298,1
2,28818,31004,32575,60782,3969,-4633,-861,-390,-1250,-255,-191,231,507,-159,1,0,40,32,760,0,53298,1
2,28850,31026,32575,60783,3979,-4704,-814,-308,-1406,-442,-157,236,506,-162,1,0,40,32,800,0,53298,1
2,28827,31020,32583,60784,3990,-4572,-967,-497,-2226,-671,-188,224,504,-150,1,0,40,32,840,0,53298,1
2,28894,31028,32579,60785,4001,-4607,-911,-385,-2284,-802,-109,229,499,-145,1,0,40,32,880,0,53298,1
2,28918,31037,32583,60786,4013,-4638,-919,-344,-2440,-954,-31,234,502,-146,1,0,40,32,920,0,53298,1
2,28910,31059,32581,60787,4013,-4597,-861,-445,-2353,-1019,54,238,510,-150,1,0,40,32,960,0,53298,1
1,28926,31060,32580,60788,3302,-4734,-848,-393,-3153,-987,62,236,500,-144,1,0,40,33,0,1,53298,1
2,28942,30995,32579,60789,3314,-4632,-770,-84,-2984,-1225,62,242,500,-148,1,0,40,33,40,1,53298,1
2,28917,30974,32582,60790,3325,-4554,-746,10,-3592,-1507,97,238,496,-144,1,0,40,33,80,1,53298,1
2,28895,30955,32578,60791,3337,-4435,-972,-219,-4054,-1580,202,235,489,-133,1,0,40,33,120,1,53298,1
2,28815,30906,32567,60792,3348,-4247,-1332,-617,-2516,-1032,149,238,502,-146,1,0,40,33,160,1,53298,1
2,28683,30887,32578,60793,3359,-4415,-1100,-559,1422,161,295,240,496,-144,1,0,40,33,200,1,53298,1
2,28619,30925,32578,60794,3370,-4986,-658,-242,2706,781,455,239,497,-149,1,0,40,33,240,1,53298,1
2,28640,30997,32573,60795,3380,-4772,-625,-239,2357,308,307,240,498,-142,1,0,40,33,280,1,53298,1
2,28671,30976,32575,60796,3391,-4499,-950,-261,859,145,41,239,493,-139,1,0,40,33,320,1,53298,1
2,28697,30987,32565,60797,3402,-4614,-869,-274,407,268,123,233,495,-141,1,0,40,33,360,1,53298,1
2,28687,31010,32565,60798,3413,-4664,-828,-273,845,282,104,240,500,-148,1,0,40,33,400,1,53298,1
2,28670,31014,32567,60799,3423,-4594,-846,-292,705,266,32,233,505,-143,1,0,40,33,440,1,53298,1
2,28658,31013,32563,60800,3434,-4611,-861,-284,440,219,59,230,496,-140,1,0,40,33,480,1,53298,1
2,28652,31018,32559,60801,3445,-4629,-859,-294,472,130,66,235,495,-145,1,0,40,33,520,1,53298,1
2,28672,31023,32564,60802,3457,-4613,-866,-316,519,78,77,233,501,-145,1,0,40,33,560,1,53298,1
2,28630,31043,32570,60803,3469,-4607,-855,-296,461,27,108,232,502,-144,1,0,40,33,600,1,53298,1
2,28640,31049,32566,60804,3480,-4629,-836,-271,432,3,109,237,491,-151,1,0,40,33,640,1,53298,1
2,28622,31050,32569,60805,3492,-4619,-851,-283,289,9,72,231,497,-141,1,0,40,33,680,1,53298,1
2,28612,31055,32570,60806,3503,-4604,-855,-306,195,26,53,230,498,-144,1,0,40,33,720,1,53298,1
2,28639,31043,32574,60807,3514,-4633,-869,-297,195,58,47,232,498,-146,1,0,40,33,760,1,53298,1
2,28638,31039,32570,60808,3525,-4617,-870,-309,208,64,47,229,499,-145,1,0,40,33,800,1,53298,1
2,28617,31043,32565,60809,3537,-4606,-829,-275,198,60,40,231,505,-137,1,0,40,33,840,1,53298,1
2,28630,31035,32562,60810,3549,-4615,-860,-314,83,52,10,232,500,-140,1,0,40,33,880,1,53298,1
2,28647,31039,32555,60811,3561,-4610,-865,-308,73,54,2,239,501,-149,1,0,40,33,920,1,53298,1
2,28674,31040,32556,60812,3561,-4606,-867,-312,108,57,22,227,501,-153,1,0,40,33,960,1,53298,1
1,28640,31034,32566,60813,2847,-4614,-862,-307,184,5,48,232,500,-146,1,0,40,34,0,1,53298,1
2,28644,31033,32557,60814,2858,-4613,-857,-302,125,5,51,233,493,-149,1,0,40,34,40,1,53298,1
2,28653,31035,32558,60815,2869,-4616,-846,-303,46,-5,45,230,490,-150,1,0,40,34,80,1,53298,1
2,28671,31039,32561,60816,2880,-4616,-861,-311,48,-8,31,233,497,-151,1,0,40,34,120,1,53298,1
2,28687,31037,32563,60817,2891,-4616,-860,-313,46,-9,21,234,494,-142,1,0,40,34,160,1,53298,1
2,28719,31032,32560,60818,2903,-4605,-860,-326,15,-6,34,228,504,-146,1,0,40,34,200,1,53298,1
2,28702,31035,32561,60819,2915,-4616,-850,-313,7,4,23,238,494,-134,1,0,40,34,240,1,53298,1
2,28728,31031,32561,60820,2926,-4613,-846,-318,18,12,21,236,498,-146,1,0,40,34,280,1,53298,1
2,28737,31039,32566,60821,2938,-4607,-861,-317,21,3,2,230,498,-142,1,0,40,34,320,1,53298,1
2,28706,31032,32563,60822,2950,-4621,-861,-316,-7,-4,-10,236,494,-156,1,0,40,34,360,1,53298,1
2,28736,31036,32559,60823,2962,-4615,-853,-317,-28,-28,0,228,498,-150,1,0,40,34,400,1,53298,1
2,28718,31035,32557,60824,2974,-4610,-869,-325,-17,-50,31,229,495,-127,1,0,40,34,440,1,53298,1
2,28705,31030,32555,60825,2985,-4610,-869,-310,-15,-80,34,233,497,-139,1,0,40,34,480,1,53298,1
2,28704,31033,32549,60826,2997,-4616,-855,-314,4,-95,13,238,494,-152,1,0,40,34,520,1,53298,1
2,28696,31024,32539,60827,3010,-4610,-856,-287,5,-81,21,229,491,-145,1,0,40,34,560,1,53298,1
2,28697,31030,32550,60828,3021,-4619,-863,-301,-2,-33,19,236,502,-156,1,0,40,34,600,1,53298,1
2,28715,31042,32548,60829,3032,-4610,-864,-289,3,6,17,232,502,-148,1,0,40,34,640,1,53298,1
2,28704,31036,32545,60830,3044,-4613,-862,-293,-12,46,248,241,497,-143,1,0,40,34,680,1,53298,1
2,28690,31034,32547,60831,3055,-4615,-862,-311,-26,62,-9,233,503,-145,1,0,40,34,720,1,53298,1
2,28690,31031,32546,60832,3067,-4600,-862,-308,-15,61,-17,236,502,-140,1,0,40,34,760,1,53298,1
2,28695,31028,32544,60833,3079,-4613,-848,-304,10,48,-14,241,489,-145,1,0,40,34,800,1,53298,1
2,28714,31029,32542,60834,3091,-4620,-867,-306,13,66,-9,234,502,-146,1,0,40,34,840,1,53298,1
2,28692,31026,32544,60835,3103,-4611,-861,-319,7,84,-239,227,493,-147,1,0,40,34,880,1,53298,1
2,28689,31020,32545,60836,3114,-4607,-864,-301,26,69,46,230,502,-150,1,0,40,34,920,1,53298,1
2,28699,31030,32548,60837,3114,-4619,-860,-334,25,82,23,225,501,-141,1,0,40,34,960,1,53298,1
1,28694,31023,32549,60838,2392,-4623,-862,-319,11,40,34,231,495,-145,1,0,40,35,0,0,53298,1
2,28695,31020,32546,60839,2403,-4605,-866,-347,11,-38,76,232,502,-154,1,0,40,35,40,0,53298,1
2,28708,31020,32546,60840,2413,-4608,-848,-343,34,-158,109,229,499,-141,1,0,40,35,80,0,53298,1
2,28709,31023,32550,60841,2424,-4621,-871,-318,42,-248,135,228,506,-148,1,0,40,35,120,0,53298,1
2,28718,31020,32550,60842,2435,-4614,-860,-307,16,-279,120,231,497,-145,1,0,40,35,160,0,53298,1
2,28718,31023,32546,60843,2446,-4609,-856,-293,9,-227,72,233,505,-143,1,0,40,35,200,0,53298,1
2,28722,31027,32547,60844,2456,-4622,-842,-294,-3,-194,26,230,498,-146,1,0,40,35,240,0,53298,1
2,28715,31042,32547,60845,2467,-4628,-856,-290,-63,-215,17,237,493,-145,1,0,40,35,280,0,53298,1
2,28708,31043,32556,60846,2477,-4611,-863,-301,-93,-245,79,237,491,-139,1,0,40,35,320,0,53298,1
2,28730,31041,32548,60847,2488,-4619,-873,-291,-22,-224,147,230,496,-148,1,0,40,35,360,0,53298,1
2,28736,31043,32549,60848,2498,-4613,-847,-283,35,-165,161,234,492,-142,1,0,40,35,400,0,53298,1
2,28727,31047,32546,60849,2508,-4620,-844,-274,35,-126,162,230,492,-150,1,0,40,35,440,0,53298,1
2,28725,31051,32547,60850,2519,-4608,-854,-294,52,-101,109,228,502,-146,1,0,40,35,480,0,53298,1
2,28712,31058,32549,60851,2529,-4619,-821,-271,54,-64,32,227,501,-141,1,0,40,35,520,0,53298,1
2,28702,31055,32555,60852,2540,-4618,-851,-254,25,-15,-10,233,491,-149,1,0,40,35,560,0,53298,1
2,28706,31054,32551,60853,2551,-4617,-840,-270,-28,-231,-23,224,496,-148,1,0,40,35,600,0,53298,1
2,28710,31043,32554,60854,2562,-4635,-858,-305,-28,17,-35,227,503,-143,1,0,40,35,640,0,53298,1
2,28705,31049,32550,60855,2573,-4614,-841,-283,29,18,-16,236,502,-150,1,0,40,35,680,0,53298,1
2,28705,31042,32547,60856,2583,-4616,-866,-269,-4,6,42,234,498,-138,1,0,40,35,720,0,53298,1
2,28723,31043,32548,60857,2593,-4628,-841,-266,-3,226,59,228,498,-134,1,0,40,35,760,0,53298,1
2,28708,31046,32545,60858,2604,-4623,-847,-281,-19,-94,64,236,492,-146,1,0,40,35,800,0,53298,1
2,28716,31045,32541,60859,2614,-4605,-857,-287,-47,-57,138,229,495,-139,1,0,40,35,840,0,53298,1
2,28721,31049,32540,60860,2623,-4613,-867,-260,-2,-200,117,238,494,-150,1,0,40,35,880,0,53298,1
2,28700,31054,32547,60861,2634,-4613,-809,-277,113,149,2,233,497,-145,1,0,40,35,920,0,53298,1
2,28724,31046,32544,60862,2634,-4618,-853,-286,14,58,-16,238,492,-142,1,0,40,35,960,0,53298,1
1,28720,31048,32545,60863,1938,-4634,-850,-308,-17,-172,13,227,503,-143,1,0,40,36,0,1,53298,1
2,28716,31051,32540,60864,1949,-4609,-854,-279,-107,-319,119,232,498,-144,1,0,40,36,40,1,53298,1
2,28730,31048,32550,60865,1959,-4610,-865,-305,64,-339,193,230,496,-146,1,0,40,36,80,1,53298,1
2,28736,31048,32540,60866,1970,-4589,-821,-241,69,-137,251,232,488,-146,1,0,40,36,120,1,53298,1
2,28704,31045,32535,60867,1982,-4577,-847,-211,-125,64,276,227,499,-145,1,0,40,36,160,1,53298,1
2,28684,31035,32535,60868,1993,-4682,-821,-273,63,263,69,234,492,-156,1,0,40,36,200,1,53298,1
2,28691,31029,32537,60869,2005,-4580,-820,-212,28,664,-22,223,501,-143,1,0,40,36,240,1,53298,1
2,28691,31039,32544,60870,2017,-4629,-882,-290,183,638,-181,235,499,-139,1,0,40,36,280,1,53298,1
2,28695,31045,32545,60871,2028,-4664,-805,-343,6,209,-308,232,496,-142,1,0,40,36,320,1,53298,1
2,28700,31044,32547,60872,2039,-4637,-844,-345,-197,-383,-160,233,501,-141,1,0,40,36,360,1,53298,1
2,28687,31048,32549,60873,2049,-4627,-878,-355,-22,-956,193,233,497,-147,1,0,40,36,400,1,53298,1
2,28694,31079,32546,60874,2061,-4608,-909,-313,269,-1192,592,226,500,-136,1,0,40,36,440,1,53298,1
2,28687,31081,32548,60875,2071,-4621,-854,-204,164,-993,792,233,499,-137,1,0,40,36,480,1,53298,1
2,28681,31100,32545,60876,2082,-4628,-765,-164,251,-665,782,232,492,-144,1,0,40,36,520,1,53298,1
2,28715,31068,32535,60877,2093,-4810,-709,-42,-279,-811,934,215,495,-129,1,0,40,36,560,1,53298,1
2,28623,30623,32502,60878,2104,-5377,-956,-521,-2100,-2489,1433,224,502,-140,1,0,40,36,600,1,53298,1
2,28649,30502,32493,60879,2116,-7086,-1922,1156,-54,-6094,-2381,235,475,-135,1,0,40,36,640,1,53298,1
2,28663,30453,32494,60880,2127,-7633,-4926,2499,-137,-10942,-9824,258,470,-128,1,0,40,36,680,1,53298,1
2,28362,30471,32525,60881,2139,-6832,-2644,301,-6210,-7642,-5827,282,448,-128,1,0,40,36,720,1,53298,1
2,29938,30657,32530,60882,2151,-8892,-3561,1520,-10512,-262,3353,278,452,-126,1,0,40,36,760,1,53298,1
2,31579,31040,32498,60883,2163,648,9006,-5549,4524,17488,24889,237,477,-155,1,0,40,36,800,1,53298,1
2,31602,30935,32415,60884,2177,-735,11924,-6601,-7886,31312,32767,139,489,-203,1,0,40,36,840,1,53298,1
2,31591,30402,32420,60885,2190,-6081,5707,-4263,-1358,32767,32767,30,464,-268,1,0,40,36,880,1,53298,1
2,31545,30569,32384,60886,2203,-11256,2431,-51,3084,29614,32767,-36,374,-306,1,0,40,36,920,1,53298,1
2,31604,30090,32455,60887,2203,-20326,-2768,1953,1743,9787,29713,-45,315,-305,1,0,40,36,960,1,53298,1
1,31586,30202,32474,60888,1485,-6844,-3682,1417,-11010,-2524,-3476,-45,311,-285,1,0,40,37,0,0,53298,1
2,31581,30372,32402,60889,1497,-5366,-1207,1516,-10997,-8518,-16734,-34,340,-264,1,0,40,37,40,0,53298,1
2,31543,30258,32344,60890,1510,-3748,-188,-1052,-3821,-7553,-17463,-21,349,-261,1,0,40,37,80,0,53298,1
2,31501,30310,32350,60891,1522,-513,1581,-2893,10247,-2696,-8459,-16,378,-264,1,0,40,37,120,0,53298,1
2,31509,30149,32351,60892,1534,530,3174,-1776,9877,989,-628,-23,387,-289,1,0,40,37,160,0,53298,1
2,31478,30641,32335,60893,1545,-2544,1915,-661,3112,-347,-480,-29,377,-297,1,0,40,37,200,0,53298,1
2,31417,30718,32270,60894,1555,-4023,1193,-299,-2152,-3421,-4803,-26,382,-290,1,0,40,37,240,0,53298,1
2,31396,30766,32235,60895,1566,-5097,1333,-713,-2088,-6379,-10567,-25,409,-277,1,0,40,37,280,0,53298,1
2,31412,30808,32244,60896,1576,-5404,1597,-536,-1263,-8864,-14172,-5,423,-261,1,0,40,37,320,0,53298,1
2,31423,30825,32247,60897,1588,-4740,1695,-1229,-259,-8995,-14822,12,448,-244,1,0,40,37,360,0,53298,1
2,31416,30855,32239,60898,1600,-4338,993,-562,1716,-8918,-14674,43,463,-227,1,0,40,37,400,0,53298,1
2,31421,30852,32240,60899,1611,-4875,912,-843,3248,-10536,-14907,60,488,-218,1,0,40,37,440,0,53298,1
2,31410,30862,32250,60900,1622,-5074,495,-32,1259,-12617,-15609,96,492,-194,1,0,40,37,480,0,53298,1
2,31382,30837,32221,60901,1634,-5592,400,-74,-1506,-13962,-16420,146,492,-166,1,0,40,37,520,0,53298,1
2,31374,30848,32222,60902,1645,-5244,785,-432,-2255,-13533,-16386,181,483,-155,1,0,40,37,560,0,53298,1
2,31364,30845,32211,60903,1657,-4982,414,-176,-3309,-12521,-15841,219,481,-127,1,0,40,37,600,0,53298,1
2,31336,30831,32196,60904,1668,-5223,471,-540,-1854,-10819,-14850,248,456,-104,1,0,40,37,640,0,53298,1
2,31323,30819,32177,60905,1680,-4761,417,-366,-420,-8314,-12768,273,441,-95,1,0,40,37,680,0,53298,1
2,31323,30811,32175,60906,1691,-4585,424,-340,142,-6488,-10125,291,417,-89,1,0,40,37,720,0,53298,1
2,31305,30807,32174,60907,1703,-4296,375,-285,254,-4194,-7270,296,416,-80,1,0,40,37,760,0,53298,1
2,31254,30787,32126,60908,1715,-3911,334,-394,39,-1554,-3979,304,412,-84,1,0,40,37,800,0,53298,1
2,31255,30765,32108,60909,1728,-3998,206,-90,-2365,629,-869,306,422,-92,1,0,40,37,840,0,53298,1
2,31231,30747,32091,60910,1741,-4974,-473,738,-5490,675,1017,312,412,-100,1,0,40,37,880,0,53298,1
2,31249,30727,32075,60911,1753,-5298,-1914,1653,-2995,235,73,317,419,-99,1,0,40,37,920,0,53298,1
2,31216,30683,32047,60912,1753,-4966,-3128,1159,1906,-222,-1537,321,419,-101,1,0,40,37,960,0,53298,1
1,31198,30692,32032,60913,1031,-4792,-1416,1146,5368,-871,-1915,316,412,-92,1,0,40,38,0,0,53298,1
2,31226,30737,32055,60914,1042,-4188,-1394,812,1539,-679,-1780,317,417,-93,1,0,40,38,40,0,53298,1
2,31200,30725,32057,60915,1054,-4021,-1216,935,-2250,-393,-1117,320,406,-92,1,0,40,38,80,0,53298,1
2,31210,30724,32035,60916,1066,-4066,-956,1189,-1776,-279,146,308,410,-92,1,0,40,38,120,0,53298,1
2,31200,30711,32030,60917,1078,-4456,-1118,844,-205,-423,940,316,404,-98,1,0,40,38,160,0,53298,1
2,31217,30708,32030,60918,1090,-4259,-1317,695,-1024,153,1420,314,406,-92,1,0,40,38,200,0,53298,1
2,31215,30729,32055,60919,1103,-4306,-1057,944,-1326,634,2056,305,417,-81,1,0,40,38,240,0,53298,1
2,31230,30727,32083,60920,1116,-4297,-1479,1138,-1045,893,2500,317,413,-81,1,0,40,38,280,0,53298,1
2,31225,30700,32080,60921,1128,-4593,-1714,1521,-1022,826,2007,304,416,-90,1,0,40,38,320,0,53298,1
2,31280,30715,32110,60922,1140,-5148,-2646,1470,-2081,118,-241,313,419,-95,1,0,40,38,360,0,53298,1
2,31230,30661,32090,60923,1153,-5564,-3327,-459,-1148,-936,-1999,311,411,-93,1,0,40,38,400,0,53298,1
2,31315,30710,32153,60924,1166,-4821,69,-2839,-769,3370,5934,305,417,-91,1,0,40,38,440,0,53298,1
2,31344,30599,32122,60925,1177,-877,11077,-7777,269,17622,29353,267,457,-119,1,0,40,38,480,0,53298,1
2,31326,30325,32127,60926,1189,-1830,13699,-3596,2849,31514,32767,161,495,-161,1,0,40,38,520,0,53298,1
2,31423,30652,32243,60927,1202,-8507,6403,-363,12481,32767,32767,18,470,-210,1,0,40,38,560,0,53298,1
2,31383,30572,32286,60928,1215,-22006,2250,1436,9431,26722,32767,-59,383,-269,1,0,40,38,600,0,53298,1
2,31403,30323,32360,60929,1228,-15141,-2563,1559,2482,14113,21929,-52,334,-282,1,0,40,38,640,0,53298,1
2,31424,30732,32333,60930,1240,-6796,-1383,1639,-8904,3134,2464,-41,325,-281,1,0,40,38,680,0,53298,1
2,31421,30789,32295,60931,1252,-3729,-1204,-362,-7060,-960,-3703,-27,323,-265,1,0,40,38,720,0,53298,1
2,31440,30372,32238,60932,1264,-2201,-921,-849,805,-981,-3638,-18,338,-276,1,0,40,38,760,0,53298,1
2,31394,30035,32212,60933,1275,-410,26,-561,3280,581,-385,-10,330,-280,1,0,40,38,800,0,53298,1
2,31364,31325,32198,60934,1286,-971,328,-369,4437,687,711,-16,336,-288,1,0,40,38,840,0,53298,1
2,31288,29888,32123,60935,1297,-1886,388,-648,4453,-946,-2032,-24,330,-300,1,0,40,38,880,0,53298,1
2,31333,30055,32125,60936,1308,-3041,612,-998,3376,-3705,-7330,-26,348,-296,1,0,40,38,920,0,53298,1
2,31285,29978,32130,60937,1308,-4046,1295,-1125,1429,-6595,-12364,-32,372,-292,1,0,40,38,960,0,53298,1
1,31253,29902,32147,60938,576,-4144,2436,-1405,-369,-8384,-14715,-28,396,-276,1,0,40,39,0,0,53298,1
2,31215,29900,32051,60939,587,-4151,2301,-1399,-404,-8642,-14736,-18,426,-274,1,0,40,39,40,0,53298,1
2,31227,29883,32062,60940,598,-4329,2131,-1530,-183,-8359,-13851,-2,436,-270,1,0,40,39,80,0,53298,1
2,31252,29858,32107,60941,609,-4061,1661,-1371,2105,-7794,-12493,12,460,-250,1,0,40,39,120,0,53298,1
2,31293,29920,32125,60942,620,-4191,1414,-1266,3776,-7691,-11580,29,483,-237,1,0,40,39,160,0,53298,1
2,31354,30190,32192,60943,632,-4637,1466,-1226,3979,-7990,-11188,53,495,-229,1,0,40,39,200,0,53298,1
2,31413,30954,32204,60944,643,-4609,896,-855,2753,-7539,-10555,82,506,-206,1,0,40,39,240,0,53298,1
2,31278,30797,32065,60945,654,-4785,666,-854,1121,-7479,-10200,106,516,-198,1,0,40,39,280,0,53298,1
2,31157,30063,32007,60946,666,-4835,508,-715,905,-7299,-10089,133,505,-179,1,0,40,39,320,0,53298,1
2,31194,29860,31932,60947,678,-4401,143,-435,1039,-6752,-9507,148,516,-156,1,0,40,39,360,0,53298,1
2,31160,29804,31961,60948,688,-4812,-43,-305,957,-6789,-9086,171,517,-153,1,0,40,39,400,0,53298,1
2,31109,29828,31923,60949,700,-4624,-94,-216,328,-6921,-8975,188,504,-134,1,0,40,39,440,0,53298,1
2,31081,29781,31915,60950,711,-4880,-185,-312,-776,-6520,-8639,218,496,-128,1,0,40,39,480,0,53298,1
2,31097,29791,31918,60951,723,-4800,-177,-351,-848,-5643,-8216,225,497,-111,1,0,40,39,520,0,53298,1
2,31085,29788,31912,60952,734,-4430,-191,-405,-904,-4706,-7462,251,469,-105,1,0,40,39,560,0,53298,1
2,31040,29885,31911,60953,745,-4174,-3088,133,-196,-54,-1484,254,474,-106,1,0,40,39,600,0,53298,1
2,31032,29801,31896,60954,755,-4103,-2113,1490,3176,937,1667,250,488,-102,1,0,40,39,640,0,53298,1
2,31030,29783,31902,60955,766,-5025,-2871,1216,-5547,1099,201,243,481,-105,1,0,40,39,680,0,53298,1
2,31050,29806,31965,60956,777,-5400,-16,-471,-863,142,-793,247,485,-111,1,0,40,39,720,0,53298,1
2,31049,29779,31936,60957,787,-5224,-936,350,863,-209,-744,254,486,-116,1,0,40,39,760,0,53298,1
2,30996,29835,31922,60958,798,-4666,-920,361,-184,-110,-706,253,479,-111,1,0,40,39,800,0,53298,1
2,31004,30383,31939,60959,809,-4471,-1089,122,217,-335,-400,256,482,-102,1,0,40,39,840,0,53298,1
2,30945,30336,31937,60960,819,-4529,-884,226,178,-369,-225,261,483,-103,1,0,40,39,880,0,53298,1
2,30828,30123,31905,60961,830,-4768,-965,202,245,-472,-92,254,476,-102,1,0,40,39,920,0,53298,1
2,30736,34140,31924,60962,830,-4645,-950,295,302,-351,-48,253,475,-103,1,0,40,39,960,0,53298,1
1,30617,31954,31853,60963,123,-4584,-872,314,54,-56,-85,251,475,-109,1,0,40,40,0,1,53298,1
1,30513,30061,31861,60964,133,-4650,-954,274,-176,238,-210,254,478,-102,1,0,40,40,40,1,53298,1
1,30465,30025,31807,60965,144,-4623,-953,203,-375,404,-186,250,476,-102,1,0,40,40,80,1,53298,1
1,30421,30011,31829,60966,154,-4580,-1032,231,-294,411,-44,249,481,-103,1,0,40,40,120,1,53298,1
1,30402,29820,31850,60967,165,-4631,-985,228,-27,445,62,246,488,-106,1,0,40,40,160,1,53298,1
1,30421,29791,31887,60968,175,-4604,-1008,220,47,389,222,261,489,-109,1,0,40,40,200,1,53298,1
1,30391,30079,31835,60969,185,-4619,-964,207,66,403,516,254,494,-106,1,0,40,40,240,1,53298,1
1,30384,30008,31870,60970,196,-4619,-955,219,123,455,664,255,485,-113,1,0,40,40,280,1,53298,1
1,30325,29797,31841,60971,208,-4615,-929,202,179,538,729,248,486,-114,1,0,40,40,320,1,53298,1
1,30359,29892,31890,60972,219,-4701,-911,208,174,574,881,247,483,-119,1,0,40,40,360,1,53298,1
1,30306,34172,31834,60973,230,-4848,-901,38,-473,330,1156,238,482,-116,1,0,40,40,400,1,53298,1
1,30275,34262,31779,60974,241,-4672,-848,40,-428,-328,1403,248,492,-108,1,0,40,40,440,1,53298,1
3,30318,34146,31750,60975,251,-4490,-890,178,-775,-764,1626,248,484,-120,1,0,40,40,480,1,53298,1
3,30343,30407,31752,60976,261,-4347,-835,281,31,-1064,1620,238,486,-116,1,0,40,40,520,1,53298,1
3,30335,30157,31782,60977,272,-4611,-568,299,870,-761,1429,246,488,-108,1,0,40,40,560,1,53298,1
3,30351,30392,31786,60978,283,-4709,-651,226,576,-522,979,243,491,-111,1,0,40,40,600,1,53298,1
0,30359,30242,31778,60979,296,-4709,-651,226,576,-522,979,230,488,-98,1,0,40,40,640,1,53298,1
2,30382,29825,31803,60980,308,-4629,-730,234,37,-346,136,233,481,-107,1,0,40,40,680,1,53298,1
2,30375,29767,31794,60981,318,-4649,-730,209,57,-492,108,237,489,-105,1,0,40,40,720,1,53298,1
2,30352,29848,31794,60982,329,-4619,-716,272,44,-660,52,238,478,-104,1,0,40,40,760,1,53298,1
2,30340,29863,31821,60983,340,-4627,-731,309,35,-701,39,229,485,-109,1,0,40,40,800,1,53298,1
2,30352,29913,31848,60984,350,-4607,-699,321,158,-556,88,232,490,-92,1,0,40,40,840,1,53298,1
2,30343,29877,31826,60985,360,-4623,-688,309,306,-256,67,238,478,-104,1,0,40,40,880,1,53298,1
2,30331,29884,31841,60986,371,-4621,-695,327,288,74,15,234,480,-92,1,0,40,40,920,1,53298,1
2,30335,29817,31839,60987,371,-4607,-686,312,92,285,-53,233,489,-93,1,0,40,40,960,1,53298,1
1,30334,29780,31832,60988,0,-4967,-448,96,-570,368,6,233,483,-101,1,0,40,41,0,0,53298,1
2,30336,29830,31889,60989,39682,-5466,-472,-575,-1496,358,594,236,480,-100,1,0,40,41,40,0,53298,1
2,30200,29880,31866,60990,39693,-5167,833,-1471,645,870,2098,227,491,-107,1,0,40,41,80,0,53298,1
2,30963,30283,31845,60991,39704,-935,8786,-5522,32,6046,6629,223,493,-113,1,0,40,41,120,0,53298,1
2,31202,29885,31836,60992,39714,-1766,13120,-7142,-9640,19725,24602,170,516,-146,1,0,40,41,160,0,53298,1
2,31210,30192,31793,60993,39725,-10579,6841,-2897,-9106,32262,32767,57,511,-191,1,0,40,41,200,0,53298,1
2,31097,30166,31736,60994,39737,-22626,-335,-2942,-13123,32196,32767,-51,429,-241,1,0,40,41,240,0,53298,1
2,31117,29983,31799,60995,39748,-6205,-2173,-1455,9434,20197,32767,-60,332,-280,1,0,40,41,280,0,53298,1
2,31485,30013,32310,60996,39760,-5564,-495,2702,13542,15211,19242,-31,289,-319,1,0,40,41,320,0,53298,1
2,31461,31388,32233,60997,39771,-3145,323,1772,5737,6038,4755,-28,290,-318,1,0,40,41,360,0,53298,1
2,31523,31303,32270,60998,39782,-1433,-1231,-760,-7041,-80,1887,-12,288,-308,1,0,40,41,400,0,53298,1
2,31543,30479,32291,60999,39794,-1187,-773,-636,-583,651,1788,-7,291,-305,1,0,40,41,440,0,53298,1
2,31526,30485,32292,61000,39806,-1230,-288,-226,5222,215,1514,-13,291,-321,1,0,40,41,480,0,53298,1
2,31535,30340,32311,61001,39817,-1690,-2,-463,4657,-1496,-1404,-9,289,-327,1,0,40,41,520,0,53298,1
2,31531,30088,32310,61002,39827,-2754,720,-872,2464,-4852,-7165,-8,302,-326,1,0,40,41,560,0,53298,1
2,31523,30138,32301,61003,39839,-3619,1366,-1397,1081,-9192,-13515,-16,314,-332,1,0,40,41,600,0,53298,1
2,31538,30074,32319,61004,39851,-3912,1883,-1451,303,-12055,-18018,-20,344,-330,1,0,40,41,640,0,53298,1
2,31558,30127,32327,61005,39861,-4189,1978,-1665,-2079,-13024,-20127,-13,375,-319,1,0,40,41,680,0,53298,1
2,31569,30113,32338,61006,39872,-4436,1836,-1758,-2225,-13222,-20656,-9,409,-309,1,0,40,41,720,0,53298,1
2,31593,30020,32349,61007,39884,-4197,1820,-1682,297,-12497,-19971,13,439,-297,1,0,40,41,760,0,53298,1
2,31604,30078,32355,61008,39895,-4317,1932,-1652,3289,-11170,-18159,39,471,-281,1,0,40,41,800,0,53298,1
2,31615,30129,32373,61009,39906,-5019,1586,-1205,4635,-10376,-16051,77,501,-253,1,0,40,41,840,0,53298,1
2,31642,29994,32400,61010,39918,-5407,1511,-1128,3273,-10837,-14679,106,524,-226,1,0,40,41,880,0,53298,1
2,31646,29959,32414,61011,39930,-5006,1399,-1359,427,-10971,-13694,132,516,-204,1,0,40,41,920,0,53298,1
2,31652,30615,32411,61012,39942,-5105,674,-1177,69,-9806,-12085,162,522,-178,1,0,40,41,960,0,53298,1
1,31669,30793,32424,61013,0,-5150,536,-1573,1366,-8582,-10630,188,516,-160,1,0,40,42,0,1,53298,1
2,31571,29930,32321,61014,39229,-4655,317,-989,3892,-7164,-9279,206,512,-146,1,0,40,42,40,1,53298,1
2,31529,30157,32300,61015,39240,-4561,345,-746,3241,-6057,-7229,227,501,-139,1,0,40,42,80,1,53298,1
2,31532,29944,32309,61016,39250,-4118,637,-1119,859,-3870,-5223,237,491,-121,1,0,40,42,120,1,53298,1
2,31552,29912,32320,61017,39261,-3912,317,-895,-170,-1864,-2867,243,495,-125,1,0,40,42,160,1,53298,1
2,31597,30033,32354,61018,39272,-4141,-150,-537,-155,276,-486,236,492,-122,1,0,40,42,200,1,53298,1
2,31599,30012,32353,61019,39283,-4437,-502,-175,713,1068,717,242,496,-134,1,0,40,42,240,1,53298,1
2,31621,30020,32369,61020,39295,-4474,-822,113,268,838,936,235,499,-131,1,0,40,42,280,1,53298,1
2,31583,30013,32356,61021,39306,-4740,-2262,1089,-1230,-19,227,237,505,-117,1,0,40,42,320,1,53298,1
2,31648,30260,32413,61022,39317,-5551,-54,-385,-3344,-278,-742,237,503,-119,1,0,40,42,360,1,53298,1
2,31633,30001,32410,61023,39328,-5121,-891,-395,-1782,-551,-722,232,500,-120,1,0,40,42,400,1,53298,1
2,31561,29917,32390,61024,39338,-4318,-918,321,-262,-577,-1023,240,486,-122,1,0,40,42,440,1,53298,1
2,31555,29949,32404,61025,39348,-4371,-774,244,-277,-79,-492,246,506,-122,1,0,40,42,480,1,53298,1
2,31565,29943,32422,61026,39358,-4813,-932,-226,-463,276,28,237,503,-119,1,0,40,42,520,1,53298,1
2,31550,29975,32430,61027,39368,-4771,-787,-114,222,120,132,245,497,-121,1,0,40,42,560,1,53298,1
2,31543,30135,32429,61028,39378,-4519,-846,66,620,-217,156,244,502,-120,1,0,40,42,600,1,53298,1
2,31495,29986,32431,61029,39387,-4622,-783,-13,443,-154,330,239,501,-123,1,0,40,42,640,1,53298,1
2,31491,30166,32441,61030,39397,-4692,-791,-4,524,-205,309,234,494,-120,1,0,40,42,680,1,53298,1
2,31473,30206,32444,61031,39406,-4618,-777,60,515,-201,126,234,504,-122,1,0,40,42,720,1,53298,1
2,31438,30387,32445,61032,39416,-4625,-794,46,196,-107,-8,243,501,-111,1,0,40,42,760,1,53298,1
2,31429,30164,32443,61033,39427,-4639,-810,-8,-20,-45,-61,239,501,-123,1,0,40,42,800,1,53298,1
2,31392,30347,32445,61034,39437,-4624,-829,-6,-5,-55,-58,229,505,-115,1,0,40,42,840,1,53298,1
2,31355,30286,32443,61035,39448,-4624,-804,23,42,-108,13,234,498,-106,1,0,40,42,880,1,53298,1
2,31323,30382,32445,61036,39458,-4619,-804,40,60,-136,88,238,496,-114,1,0,40,42,920,1,53298,1
2,31318,30249,32444,61037,39469,-4633,-798,48,74,-125,114,238,492,-118,1,0,40,42,960,1,53298,1
1,31310,30107,32435,61038,0,-4620,-787,45,72,-77,91,235,497,-111,1,0,40,43,0,0,53298,1
2,31288,30073,32435,61039,38776,-4625,-792,32,35,-61,72,241,497,-113,1,0,40,43,40,0,53298,1
2,31284,30095,32426,61040,38787,-4632,-796,21,36,-64,55,238,502,-122,1,0,40,43,80,0,53298,1
2,31266,30032,32431,61041,38797,-4634,-781,25,39,-73,41,237,493,-117,1,0,40,43,120,0,53298,1
2,31245,30042,32431,61042,38808,-4626,-788,33,35,-74,41,234,504,-118,1,0,40,43,160,0,53298,1
2,31219,30040,32432,61043,38818,-4633,-798,29,57,-73,80,232,508,-108,1,0,40,43,200,0,53298,1
2,31202,30029,32432,61044,38829,-4641,-815,40,99,-76,112,233,491,-123,1,0,40,43,240,0,53298,1
2,31202,30102,32432,61045,38838,-4674,-753,61,-22,-88,173,230,502,-118,1,0,40,43,280,0,53298,1
2,31190,29979,32434,61046,38848,-4957,-504,-4,-1331,-211,134,237,495,-117,1,0,40,43,320,0,53298,1
2,31224,30602,32446,61047,38858,-5705,-696,-237,-4059,-619,404,240,494,-120,1,0,40,43,360,0,53298,1
2,31199,30646,32400,61048,38869,-6601,-1025,215,-1466,-1747,2607,241,493,-125,1,0,40,43,400,0,53298,1
2,31183,30362,32365,61049,38879,-5805,-3562,1934,2854,-3138,1096,241,483,-121,1,0,40,43,440,0,53298,1
2,31187,30375,32378,61050,38891,-5646,-1563,300,-4619,-3620,-3036,254,480,-130,1,0,40,43,480,0,53298,1
2,31180,30430,32370,61051,38902,-4287,-266,-882,-2809,-4423,-4928,266,472,-126,1,0,40,43,520,0,53298,1
2,31523,30801,32396,61052,38913,-1186,6169,-4477,-7367,761,-2127,262,464,-134,1,0,40,43,560,0,53298,1
2,31630,30215,32420,61053,38924,1477,13628,-7347,-6789,14067,13022,258,482,-170,1,0,40,43,600,0,53298,1
2,31654,30816,32403,61054,38935,-2995,11054,-5597,-1377,29960,32767,176,512,-210,1,0,40,43,640,0,53298,1
2,31637,29986,32404,61055,38947,-14954,4906,-1993,3097,32767,32767,35,479,-277,1,0,40,43,680,0,53298,1
2,31607,30106,32407,61056,38961,-23277,1544,-548,5479,32767,32767,-39,369,-325,1,0,40,43,720,0,53298,1
2,31595,30096,32421,61057,38973,-7294,-5761,-3311,-501,21395,32767,-50,292,-338,1,0,40,43,760,0,53298,1
2,31412,30296,32230,61058,38985,-4788,-973,3131,638,10691,7182,-27,283,-331,1,0,40,43,800,0,53298,1
2,31426,29913,32179,61059,38996,-3932,-216,64,-8259,-5879,-8096,-23,293,-313,1,0,40,43,840,0,53298,1
2,31333,30065,32030,61060,39008,-711,-877,-2359,-13174,-8105,-10718,-12,314,-290,1,0,40,43,880,0,53298,1
2,31234,29874,32063,61061,39020,568,1222,-1647,2207,-1787,-4798,-10,316,-298,1,0,40,43,920,0,53298,1
2,31297,29861,32022,61062,39031,-1800,888,-384,7131,1565,1462,-21,315,-317,1,0,40,43,960,0,53298,1
1,31252,29824,31980,61063,0,-2467,-5,-504,4119,-698,167,-29,313,-313,1,0,40,44,0,1,53298,1
2,31333,30857,32049,61064,38324,-3728,541,-767,3266,-4519,-7055,-23,321,-317,1,0,40,44,40,1,53298,1
2,31252,31457,32066,61065,38335,-4984,1507,-1147,1170,-9538,-15709,-25,351,-317,1,0,40,44,80,1,53298,1
2,31315,32057,32047,61066,38346,-4710,1933,-1660,-559,-13633,-21399,-17,383,-311,1,0,40,44,120,1,53298,1
2,31382,31263,32202,61067,38356,-4115,2073,-1792,-801,-13474,-22093,1,423,-293,1,0,40,44,160,1,53298,1
2,31519,31359,32319,61068,38366,-4025,2021,-1955,95,-11794,-20102,22,456,-284,1,0,40,44,200,1,53298,1
2,31549,31811,32349,61069,38377,-4361,2018,-1653,2517,-10428,-17772,43,473,-275,1,0,40,44,240,1,53298,1
2,31567,31776,32368,61070,38389,-4832,1831,-1305,3880,-9569,-15667,71,499,-259,1,0,40,44,280,1,53298,1
2,31586,29964,32415,61071,38400,-5165,1796,-1351,2378,-9245,-14057,97,513,-233,1,0,40,44,320,1,53298,1
2,31601,29943,32421,61072,38411,-5200,1524,-1398,-448,-8890,-12700,129,517,-195,1,0,40,44,360,1,53298,1
2,31618,29950,32431,61073,38422,-4954,1300,-1400,-1433,-7751,-11045,152,522,-180,1,0,40,44,400,1,53298,1
2,31588,29969,32420,61074,38433,-4745,826,-1177,-1306,-6469,-8951,182,516,-178,1,0,40,44,440,1,53298,1
2,31578,30127,32421,61075,38444,-4512,550,-1232,-674,-5251,-6834,193,515,-161,1,0,40,44,480,1,53298,1
2,31575,30444,32416,61076,38455,-4214,431,-1057,792,-3892,-4897,214,504,-162,1,0,40,44,520,1,53298,1
2,31585,30143,32428,61077,38466,-4208,172,-867,981,-2401,-2939,218,504,-150,1,0,40,44,560,1,53298,1
2,31586,29942,32434,61078,38479,-4272,9,-667,704,-1067,-1477,218,510,-146,1,0,40,44,600,1,53298,1
2,31594,30078,32446,61079,38490,-4375,-187,-426,297,-135,-520,215,511,-135,1,0,40,44,640,1,53298,1
2,31617,30246,32444,61080,38501,-4543,-468,-156,-255,158,-62,221,511,-145,1,0,40,44,680,1,53298,1
2,31617,30137,32453,61081,38513,-4735,-797,10,-811,-93,-176,225,511,-145,1,0,40,44,720,1,53298,1
2,31614,30199,32452,61082,38525,-4601,-837,54,-698,-829,-848,220,504,-156,1,0,40,44,760,1,53298,1
2,31593,30371,32452,61083,38536,-4353,-700,32,-579,-1543,-1609,229,507,-155,1,0,40,44,800,1,53298,1
2,31597,30308,32453,61084,38547,-4221,-484,-172,-356,-1872,-1902,231,509,-143,1,0,40,44,840,1,53298,1
2,31594,30302,32449,61085,38559,-4000,-417,-267,76,-1947,-1925,243,497,-139,1,0,40,44,880,1,53298,1
2,31597,30060,32493,61086,38569,-4218,-1677,-81,-818,-1289,-2278,226,502,-122,1,0,40,44,920,1,53298,1
2,31609,29979,32516,61087,38579,-5782,-304,-17,-3106,1544,-37,232,506,-126,1,0,40,44,960,1,53298,1
1,31319,30705,32544,61088,0,-6154,-499,-877,1159,115,50,242,498,-130,1,0,40,45,0,0,53298,1
2,31098,30681,32505,61089,37871,-4305,-1182,-138,294,-489,-860,237,499,-129,1,0,40,45,40,0,53298,1
2,31053,30394,32508,61090,37881,-4285,-744,212,107,-236,-535,239,505,-131,1,0,40,45,80,0,53298,1
2,31039,30382,32522,61091,37892,-4824,-715,-71,-165,290,-48,250,514,-124,1,0,40,45,120,0,53298,1
2,30987,30657,32538,61092,37902,-4761,-670,-245,392,239,-9,249,505,-133,1,0,40,45,160,0,53298,1
2,30922,30829,32538,61093,37913,-4561,-718,-13,187,-56,-131,236,508,-128,1,0,40,45,200,0,53298,1
2,30917,30833,32541,61094,37923,-4618,-710,-81,-149,-121,12,241,503,-127,1,0,40,45,240,0,53298,1
2,30890,30792,32546,61095,37933,-4662,-740,-87,-23,-195,46,241,503,-129,1,0,40,45,280,0,53298,1
2,30861,30878,32543,61096,37945,-4622,-711,-37,254,-223,12,247,507,-127,1,0,40,45,320,0,53298,1
2,30826,30936,32535,61097,37956,-4598,-713,-46,117,-131,24,246,506,-128,1,0,40,45,360,0,53298,1
2,30830,30875,32535,61098,37966,-4634,-735,-34,-4,-4,41,239,507,-123,1,0,40,45,400,0,53298,1
2,30806,30869,32533,61099,37977,-4628,-702,-54,60,123,28,239,509,-139,1,0,40,45,440,0,53298,1
2,30826,30935,32539,61100,37987,-4633,-713,-66,48,132,3,232,512,-124,1,0,40,45,480,0,53298,1
2,30789,30947,32537,61101,37998,-4637,-720,-69,-22,113,-25,237,509,-135,1,0,40,45,520,0,53298,1
2,30756,30978,32538,61102,38009,-4644,-729,-95,-10,47,-32,233,509,-129,1,0,40,45,560,0,53298,1
2,30775,30942,32542,61103,38019,-4626,-735,-76,-12,-8,-22,247,499,-129,1,0,40,45,600,0,53298,1
2,30760,30904,32541,61104,38029,-4659,-738,-69,-14,-34,1,244,504,-124,1,0,40,45,640,0,53298,1
2,30731,30847,32540,61105,38040,-5090,-153,276,-1265,-172,-50,246,512,-134,1,0,40,45,680,0,53298,1
2,30735,30675,32567,61106,38050,-5441,-790,-453,-6389,-874,-426,250,510,-132,1,0,40,45,720,0,53298,1
2,30680,30090,32520,61107,38061,-5802,-2128,480,-4386,-1907,1156,246,502,-138,1,0,40,45,760,0,53298,1
2,30713,30342,32489,61108,38072,-5826,-4295,1471,1329,-2599,-1990,255,493,-123,1,0,40,45,800,0,53298,1
2,30725,30357,32500,61109,38085,-5610,-2492,722,497,-4818,-6612,270,494,-130,1,0,40,45,840,0,53298,1
2,30718,30113,32496,61110,38096,-4829,-300,-443,1231,-5618,-9423,284,472,-134,1,0,40,45,880,0,53298,1
2,30819,30384,32515,61111,38108,-3293,3069,-2438,-3497,-2815,-7898,310,452,-144,1,0,40,45,920,0,53298,1
2,31277,30935,32514,61112,38119,-1144,10260,-5160,-3860,5688,2508,300,452,-154,1,0,40,45,960,0,53298,1
1,31475,30994,32492,61113,0,-1072,13605,-5907,-3350,18453,23623,261,493,-169,1,0,40,46,0,0,53298,1
2,31420,30018,32410,61114,37420,-6446,8067,-4151,-1769,31146,32767,161,521,-227,1,0,40,46,40,0,53298,1
2,31323,30949,32468,61115,37431,-19764,2600,-1635,3603,32767,32767,-2,452,-304,1,0,40,46,80,0,53298,1
2,31206,31549,32400,61116,37442,-20672,-1789,-764,10755,26482,32767,-41,337,-333,1,0,40,46,120,0,53298,1
2,31086,30597,32215,61117,37453,-4202,-5671,-799,926,16598,32767,-43,287,-337,1,0,40,46,160,0,53298,1
2,31084,29994,32181,61118,37463,-4624,296,2612,568,8705,3305,-27,295,-341,1,0,40,46,200,0,53298,1
2,31041,31110,32009,61119,37473,-3189,-1212,-117,-9965,-4098,-7462,-14,304,-328,1,0,40,46,240,0,53298,1
2,31120,31636,32041,61120,37484,-1593,-2670,-1562,-17172,-7521,-9431,-14,316,-282,1,0,40,46,280,0,53298,1
2,31115,31755,32069,61121,37495,-1262,-1022,-1311,4291,-4513,-11090,-7,331,-303,1,0,40,46,320,0,53298,1
2,31086,30860,32102,61122,37505,-2280,549,-104,9804,-4598,-10975,1,337,-311,1,0,40,46,360,0,53298,1
2,31135,29876,32134,61123,37516,-2891,1144,-563,6950,-7471,-11848,-5,363,-323,1,0,40,46,400,0,53298,1
2,31156,30102,32157,61124,37527,-3953,1094,-1200,382,-9841,-14976,3,381,-313,1,0,40,46,440,0,53298,1
2,31188,30223,32189,61125,37537,-4965,1559,-1732,-186,-10158,-17833,1,409,-297,1,0,40,46,480,0,53298,1
2,31196,30150,32192,61126,37547,-4938,2215,-1454,1886,-10026,-19111,27,447,-299,1,0,40,46,520,0,53298,1
2,31229,30139,32238,61127,37558,-5062,2113,-1515,1948,-10518,-18243,47,481,-277,1,0,40,46,560,0,53298,1
2,31248,30140,32247,61128,37568,-5059,1944,-1689,1373,-10624,-16479,81,511,-257,1,0,40,46,600,0,53298,1
2,31272,30137,32270,61129,37579,-5267,1392,-1340,1408,-10290,-14443,110,522,-230,1,0,40,46,640,0,53298,1
2,31293,30146,32291,61130,37589,-5251,1249,-1517,156,-9769,-12808,132,532,-192,1,0,40,46,680,0,53298,1
2,31289,30141,32295,61131,37601,-4915,767,-1216,-127,-8424,-11352,168,526,-188,1,0,40,46,720,0,53298,1
2,31307,30133,32306,61132,37613,-4963,495,-1105,304,-6937,-9770,183,531,-159,1,0,40,46,760,0,53298,1
2,31306,30104,32315,61133,37624,-4726,461,-879,428,-6123,-8592,207,521,-157,1,0,40,46,800,0,53298,1
2,31313,30100,32315,61134,37637,-4453,163,-694,-306,-5160,-7163,230,512,-148,1,0,40,46,840,0,53298,1
2,31322,30124,32317,61135,37648,-4371,-58,-710,-673,-4319,-5648,255,513,-141,1,0,40,46,880,0,53298,1
2,31325,30141,32335,61136,37661,-4159,19,-696,-110,-3404,-4374,249,503,-139,1,0,40,46,920,0,53298,1
2,31311,30160,32330,61137,37673,-3931,-31,-510,63,-2337,-3040,253,493,-137,1,0,40,46,960,0,53298,1
1,31313,30163,32337,61138,0,-4063,-1252,-185,-516,-1047,-1667,265,495,-133,1,0,40,47,0,0,53298,1
2,31367,30173,32368,61139,36969,-5038,-1801,-100,-2666,640,-178,266,500,-134,1,0,40,47,40,0,53298,1
2,31389,30185,32408,61140,36981,-4993,-1172,-69,1240,1337,-969,258,514,-122,1,0,40,47,80,0,53298,1
2,31382,30190,32432,61141,36993,-5640,364,442,1485,1422,-1039,268,514,-130,1,0,40,47,120,0,53298,1
2,31292,30194,32423,61142,37005,-4595,-1093,-166,120,630,-831,262,504,-126,1,0,40,47,160,0,53298,1
2,31221,30188,32420,61143,37016,-4444,-1077,-141,-444,859,-785,260,508,-128,1,0,40,47,200,0,53298,1
2,31132,30187,32426,61144,37028,-4600,-1041,-81,-152,880,-367,265,507,-125,1,0,40,47,240,0,53298,1
2,31041,30221,32424,61145,37040,-4748,-962,-244,323,647,-47,268,510,-142,1,0,40,47,280,0,53298,1
2,30935,30205,32418,61146,37051,-4615,-997,-150,402,273,10,265,505,-139,1,0,40,47,320,0,53298,1
2,30849,30203,32429,61147,37063,-4608,-968,-105,188,77,18,270,514,-140,1,0,40,47,360,0,53298,1
2,30777,29967,32405,61148,37074,-4640,-981,-157,53,38,-42,271,509,-135,1,0,40,47,400,0,53298,1
2,30723,30041,32409,61149,37084,-4629,-983,-105,43,30,-145,265,503,-139,1,0,40,47,440,0,53298,1
2,30665,30291,32410,61150,37094,-4615,-1005,-151,-23,86,-184,268,498,-146,1,0,40,47,480,0,53298,1
2,30664,29979,32412,61151,37105,-4623,-1008,-140,-62,86,-139,266,512,-130,1,0,40,47,520,0,53298,1
2,30625,29945,32420,61152,37115,-4618,-1000,-143,-6,76,-60,260,510,-124,1,0,40,47,560,0,53298,1
2,30611,29975,32421,61153,37126,-4615,-995,-159,55,54,3,270,506,-130,1,0,40,47,600,0,53298,1
2,30584,30000,32407,61154,37137,-4621,-1000,-147,60,-9,56,278,522,-138,1,0,40,47,640,0,53298,1
2,30649,29941,32420,61155,37148,-4617,-1003,-160,79,-31,81,268,504,-134,1,0,40,47,680,0,53298,1
2,30621,29943,32414,61156,37160,-4625,-987,-142,90,-3,61,270,506,-140,1,0,40,47,720,0,53298,1
2,30577,29937,32410,61157,37171,-4625,-997,-132,33,25,16,277,511,-139,1,0,40,47,760,0,53298,1
2,30566,30075,32422,61158,37182,-4623,-1002,-150,1,19,-6,267,503,-133,1,0,40,47,800,0,53298,1
2,30555,30185,32418,61159,37193,-4639,-1008,-148,26,-10,-1,266,514,-136,1,0,40,47,840,0,53298,1
2,30646,30235,32427,61160,37204,-4613,-990,-136,45,-79,21,274,514,-140,1,0,40,47,880,0,53298,1
2,30577,30289,32436,61161,37215,-4615,-991,-154,68,-135,60,269,507,-141,1,0,40,47,920,0,53298,1
2,30577,30345,32428,61162,37226,-4622,-1000,-149,56,-161,73,267,511,-139,1,0,40,47,960,0,53298,1
1,30531,30456,32443,61163,0,-4616,-987,-141,45,-147,76,270,512,-140,1,0,40,48,0,1,53298,1
2,30519,30503,32430,61164,36516,-4626,-1004,-126,23,-130,65,263,515,-127,1,0,40,48,40,1,53298,1
2,30537,30583,32443,61165,36526,-4636,-999,-123,34,-106,55,271,511,-139,1,0,40,48,80,1,53298,1
2,30542,30596,32449,61166,36537,-4626,-981,-131,11,-104,56,274,508,-142,1,0,40,48,120,1,53298,1
2,30530,30576,32447,61167,36547,-4631,-1001,-137,6,-128,64,272,512,-134,1,0,40,48,160,1,53298,1
2,30548,30601,32449,61168,36557,-4615,-977,-111,5,-184,83,264,504,-138,1,0,40,48,200,1,53298,1
2,30513,30591,32451,61169,36567,-4638,-994,-132,-1,-242,105,267,509,-137,1,0,40,48,240,1,53298,1
2,30536,30563,32455,61170,36577,-4624,-989,-101,0,-283,113,273,519,-139,1,0,40,48,280,1,53298,1
2,30519,30561,32455,61171,36587,-4630,-1004,-112,-18,-311,164,268,506,-142,1,0,40,48,320,1,53298,1
2,30466,30532,32451,61172,36598,-4643,-978,-111,31,-309,206,263,497,-133,1,0,40,48,360,1,53298,1
2,30470,30524,32456,61173,36608,-4651,-984,-98,50,-318,149,268,516,-136,1,0,40,48,400,1,53298,1
2,30479,30544,32454,61174,36619,-4629,-984,-89,14,-342,86,263,513,-135,1,0,40,48,440,1,53298,1
2,30485,30550,32453,61175,36630,-4618,-991,-71,-47,-370,78,276,506,-132,1,0,40,48,480,1,53298,1
2,30469,30636,32456,61176,36640,-4613,-994,-79,-27,-377,146,262,504,-120,1,0,40,48,520,1,53298,1
2,30470,30594,32455,61177,36651,-4622,-956,-63,84,-338,216,261,503,-129,1,0,40,48,560,1,53298,1
2,30455,30587,32461,61178,36662,-4625,-956,-49,97,-297,208,273,515,-135,1,0,40,48,600,1,53298,1
2,30487,30563,32466,61179,36672,-4631,-949,-20,45,-222,160,263,509,-127,1,0,40,48,640,1,53298,1
2,30520,30559,32460,61180,36682,-4627,-954,-52,26,-134,92,265,499,-129,1,0,40,48,680,1,53298,1
2,30511,30540,32459,61181,36692,-4633,-959,-17,-14,-67,16,264,508,-132,1,0,40,48,720,1,53298,1
2,30565,30378,32462,61182,36702,-4767,-904,2,-206,1,-27,263,503,-123,1,0,40,48,760,1,53298,1
2,30527,30503,32466,61183,36712,-5102,-960,-621,-3533,-151,-527,267,509,-125,1,0,40,48,800,1,53298,1
2,30520,30019,32510,61184,36722,-6028,-545,-781,-3190,-78,-199,275,501,-135,1,0,40,48,840,1,53298,1
2,30389,30713,32547,61185,36732,-7354,2087,-2984,-922,1201,1674,269,509,-145,1,0,40,48,880,1,53298,1
2,30983,30267,32433,61186,36743,1291,8683,-3922,7652,4848,10053,244,520,-162,1,0,40,48,920,1,53298,1
2,31510,30585,32417,61187,36754,-4288,11848,-7777,-10560,21202,31607,163,529,-191,1,0,40,48,960,1,53298,1
1,31450,30023,32367,61188,0,-10229,5001,-3377,-6734,31589,32767,40,498,-242,1,0,40,49,0,0,53298,1
2,31207,29959,32190,61189,36065,-19119,-1076,-1703,-5526,30225,32767,-38,410,-290,1,0,40,49,40,0,53298,1
2,31094,30015,32079,61190,36076,-7718,-4241,-605,4984,20168,32767,-45,323,-313,1,0,40,49,80,0,53298,1
2,31046,29865,31933,61191,36087,-4259,-1302,3129,2110,12267,13237,-27,305,-321,1,0,40,49,120,0,53298,1
2,31250,30048,32205,61192,36097,-2886,-1135,1180,-10807,890,-1170,-15,307,-311,1,0,40,49,160,0,53298,1
2,31248,30455,32174,61193,36108,-727,-1201,-843,-10101,-3168,-3540,-10,306,-292,1,0,40,49,200,0,53298,1
2,31175,30394,32053,61194,36119,-1051,-1236,-585,-2588,-1862,-2303,-8,318,-286,1,0,40,49,240,0,53298,1
2,31168,30454,32063,61195,36130,-1571,-746,-542,2682,-1518,-2830,-17,317,-299,1,0,40,49,280,0,53298,1
2,31150,30458,32070,61196,36141,-2616,-187,-763,6453,-3045,-5247,-20,322,-302,1,0,40,49,320,0,53298,1
2,31137,30364,32064,61197,36151,-4493,348,-914,10590,-6212,-11541,-23,349,-323,1,0,40,49,360,0,53298,1
2,31116,30411,32042,61198,36162,-6141,2013,-865,8482,-11010,-19901,-14,376,-328,1,0,40,49,400,0,53298,1
2,31128,30428,32067,61199,36174,-5730,2619,-1387,513,-15260,-24806,-1,421,-313,1,0,40,49,440,0,53298,1
2,31145,30378,32060,61200,36184,-5025,2553,-1696,-4286,-15089,-24737,21,463,-285,1,0,40,49,480,0,53298,1
2,31189,30371,32082,61201,36195,-4974,1684,-1617,-3097,-13489,-22335,51,499,-257,1,0,40,49,520,0,53298,1
2,31197,30309,32123,61202,36206,-5025,1671,-1686,949,-11934,-19938,90,522,-218,1,0,40,49,560,0,53298,1
2,31214,30369,32137,61203,36217,-5055,1651,-1376,5285,-10703,-17345,132,526,-204,1,0,40,49,600,0,53298,1
2,31218,30236,32182,61204,36229,-5299,1652,-1251,4933,-10123,-14605,163,523,-179,1,0,40,49,640,0,53298,1
2,31199,30422,32168,61205,36240,-4770,1209,-1229,1912,-9145,-12327,201,521,-165,1,0,40,49,680,0,53298,1
2,31179,31378,32147,61206,36251,-4380,613,-1181,-218,-7144,-10212,223,521,-137,1,0,40,49,720,0,53298,1
2,31177,31242,32160,61207,36263,-4277,569,-1100,441,-5085,-8017,241,509,-137,1,0,40,49,760,0,53298,1
2,31190,31912,32185,61208,36274,-5373,1358,-2534,-1205,-860,-3952,259,505,-137,1,0,40,49,800,0,53298,1
2,31275,29910,32268,61209,36285,-5518,-655,-446,2310,1370,-761,249,503,-133,1,0,40,49,840,0,53298,1
2,31120,30556,32240,61210,36296,-5292,-1650,617,188,639,-724,251,507,-139,1,0,40,49,880,0,53298,1
2,31033,30119,32263,61211,36305,-4697,-540,-67,60,174,-648,247,515,-133,1,0,40,49,920,0,53298,1
2,30977,30057,32252,61212,36315,-4430,-885,-207,641,52,-321,246,506,-132,1,0,40,49,960,0,53298,1
1,30925,30125,32276,61213,0,-4706,-779,-13,-47,199,-48,250,504,-130,1,0,40,50,0,0,53298,1
2,30885,30152,32278,61214,35615,-4723,-792,-221,313,140,141,248,504,-132,1,0,40,50,40,0,53298,1
2,30832,29940,32276,61215,35625,-4631,-797,-114,430,45,127,252,516,-128,1,0,40,50,80,0,53298,1
2,30776,29931,32269,61216,35636,-4621,-797,-96,159,-99,67,248,514,-138,1,0,40,50,120,0,53298,1
2,30758,29910,32265,61217,35646,-4664,-800,-128,-45,-253,42,249,501,-133,1,0,40,50,160,0,53298,1
2,30738,30009,32272,61218,35657,-4645,-835,-102,-27,-374,-30,243,505,-129,1,0,40,50,200,0,53298,1
2,30705,30021,32273,61219,35668,-4629,-825,-89,31,-375,-35,238,510,-130,1,0,40,50,240,0,53298,1
2,30690,30014,32264,61220,35678,-4631,-816,-61,29,-322,15,251,505,-135,1,0,40,50,280,0,53298,1
2,30662,30033,32275,61221,35689,-4644,-818,-62,-9,-247,52,247,513,-133,1,0,40,50,320,0,53298,1
2,30640,30014,32278,61222,35700,-4646,-833,-68,-19,-178,74,257,515,-127,1,0,40,50,360,0,53298,1
2,30623,30058,32294,61223,35710,-4625,-815,-66,5,-193,86,247,511,-119,1,0,40,50,400,0,53298,1
2,30589,30174,32296,61224,35721,-4634,-812,-67,10,-246,116,243,503,-131,1,0,40,50,440,0,53298,1
2,30566,30279,32296,61225,35732,-4634,-811,-63,10,-284,133,251,509,-133,1,0,40,50,480,0,53298,1
2,30565,30367,32308,61226,35744,-4623,-803,-43,17,-300,139,244,512,-128,1,0,40,50,520,0,53298,1
2,30538,30395,32307,61227,35755,-4637,-799,-50,17,-283,127,250,514,-126,1,0,40,50,560,0,53298,1
2,30495,30394,32307,61228,35766,-4629,-802,-28,9,-225,88,247,507,-137,1,0,40,50,600,0,53298,1
2,30490,30285,32313,61229,35777,-4623,-802,-26,-10,-163,53,248,512,-126,1,0,40,50,640,0,53298,1
2,30488,30320,32315,61230,35788,-4613,-799,-34,-13,-92,23,252,518,-132,1,0,40,50,680,0,53298,1
2,30487,30195,32305,61231,35798,-4631,-798,-33,-17,-38,18,251,503,-127,1,0,40,50,720,0,53298,1
2,30478,30056,32314,61232,35808,-4626,-801,-34,2,10,18,249,517,-127,1,0,40,50,760,0,53298,1
2,30488,30170,32315,61233,35818,-4624,-797,-31,-4,31,22,237,511,-129,1,0,40,50,800,0,53298,1
2,30551,30157,32323,61234,35828,-4631,-798,-45,-16,8,20,247,517,-127,1,0,40,50,840,0,53298,1
2,30501,30151,32322,61235,35838,-4630,-802,-42,-23,-36,23,246,514,-122,1,0,40,50,880,0,53298,1
2,30520,30276,32336,61236,35848,-4646,-818,-31,-39,-77,30,253,503,-121,1,0,40,50,920,0,53298,1
2,30512,30235,32324,61237,35859,-4623,-801,-27,-12,-86,46,238,510,-120,1,0,40,50,960,0,53298,1
1,30496,30158,32328,61238,0,-4631,-799,-28,27,-77,71,242,506,-130,1,0,40,51,0,1,53298,1
2,30509,30271,32325,61239,35163,-4623,-808,-42,35,-68,68,253,501,-129,1,0,40,51,40,1,53298,1
2,30537,30262,32311,61240,35175,-4631,-770,-25,37,-20,66,242,508,-124,1,0,40,51,80,1,53298,1
2,30527,30296,32328,61241,35186,-4703,-787,19,-104,-44,60,246,512,-124,1,0,40,51,120,1,53298,1
2,30529,30494,32339,61242,35197,-5059,-339,-259,-3010,-172,-363,240,510,-120,1,0,40,51,160,1,53298,1
2,30450,30528,32325,61243,35207,-5964,-930,-732,-5055,-250,-316,254,506,-120,1,0,40,51,200,1,53298,1
2,30576,30662,32287,61244,35219,-6390,-1567,-120,-1775,-445,1038,262,518,-128,1,0,40,51,240,1,53298,1
2,30774,29943,32280,61245,35230,-5182,2473,-3035,-3679,1236,-224,260,506,-138,1,0,40,51,280,1,53298,1
2,30992,30046,32271,61246,35242,-711,10395,-5851,-13191,9314,8151,253,517,-167,1,0,40,51,320,1,53298,1
2,30930,30024,32180,61247,35253,-2655,11340,-5390,-7846,22104,31403,159,539,-227,1,0,40,51,360,1,53298,1
2,30907,30151,32172,61248,35265,-9519,3511,-1622,-1751,31493,32767,40,490,-284,1,0,40,51,400,1,53298,1
2,30975,30044,32215,61249,35276,-17988,1617,364,12593,28011,32767,-25,377,-335,1,0,40,51,440,1,53298,1
2,30887,30780,32276,61250,35288,-8698,-2835,-1659,9807,18742,32767,-31,319,-345,1,0,40,51,480,1,53298,1
2,30806,29995,32217,61251,35300,-4241,-1952,2080,-5458,14116,18464,-24,284,-336,1,0,40,51,520,1,53298,1
2,30803,29875,32126,61252,35311,-2827,-847,427,-9085,3291,1334,-7,285,-319,1,0,40,51,560,1,53298,1
2,30900,29875,32144,61253,35322,-1826,-2189,-1437,-13453,-5140,-3033,-8,298,-296,1,0,40,51,600,1,53298,1
2,30909,30415,32122,61254,35333,-1203,-2253,-1435,-1065,-4576,-4654,-9,301,-305,1,0,40,51,640,1,53298,1
2,30909,29910,32139,61255,35344,-1715,-90,-539,7713,-1792,-7198,-5,311,-301,1,0,40,51,680,1,53298,1
2,30868,29901,32155,61256,35354,-2296,1103,-378,9458,-3870,-8013,-4,316,-324,1,0,40,51,720,1,53298,1
2,30885,29877,32167,61257,35365,-3409,949,-527,3148,-8066,-10681,-18,336,-320,1,0,40,51,760,1,53298,1
2,30887,29885,32161,61258,35376,-4704,728,-1108,-791,-11166,-16159,-19,359,-325,1,0,40,51,800,1,53298,1
2,30901,29884,32146,61259,35386,-5482,1280,-1058,125,-13696,-21622,-3,399,-317,1,0,40,51,840,1,53298,1
2,30927,29891,32188,61260,35396,-5670,1727,-1025,496,-16436,-24516,10,440,-292,1,0,40,51,880,1,53298,1
2,30915,29906,32207,61261,35407,-5375,2189,-1661,-1993,-17092,-24439,47,485,-255,1,0,40,51,920,1,53298,1
2,30970,29923,32261,61262,35417,-5658,2054,-1707,158,-15711,-22427,91,515,-235,1,0,40,51,960,1,53298,1
1,30975,30032,32292,61263,0,-5786,2064,-1960,1460,-13444,-20012,122,526,-194,1,0,40,52,0,1,53298,1
2,30986,29984,32314,61264,34712,-5727,1656,-1359,3406,-11381,-16997,169,529,-163,1,0,40,52,40,1,53298,1
2,30992,29972,32305,61265,34723,-5347,1612,-1294,2701,-9752,-14093,200,520,-144,1,0,40,52,80,1,53298,1
2,30966,29972,32312,61266,34733,-4502,1377,-1170,1391,-8325,-11473,232,510,-132,1,0,40,52,120,1,53298,1
2,30974,30927,32285,61267,34744,-3091,3441,-3123,1084,-5203,-7646,241,501,-127,1,0,40,52,160,1,53298,1
2,31035,30233,32322,61268,34754,-3965,2101,-1814,106,650,-1595,243,503,-127,1,0,40,52,200,1,53298,1
2,30873,30010,32372,61269,34764,-5682,-2830,698,-423,1692,-301,237,497,-123,1,0,40,52,240,1,53298,1
2,30595,29988,32384,61270,34775,-4972,168,-24,-621,1131,-1080,249,493,-135,1,0,40,52,280,1,53298,1
2,30434,29970,32350,61271,34785,-4385,-1062,-347,972,347,-847,245,501,-117,1,0,40,52,320,1,53298,1
2,30366,29924,32352,61272,34795,-4534,-817,163,156,320,-494,238,500,-112,1,0,40,52,360,1,53298,1
2,30367,29934,32367,61273,34805,-4726,-877,-122,-298,219,-146,242,504,-120,1,0,40,52,400,1,53298,1
2,30297,30081,32362,61274,34815,-4680,-833,-90,261,18,-126,236,498,-122,1,0,40,52,440,1,53298,1
2,30291,30746,32349,61275,34825,-4601,-776,46,325,9,-311,243,499,-125,1,0,40,52,480,1,53298,1
2,30228,30581,32356,61276,34836,-4597,-831,-20,-47,316,-756,241,503,-123,1,0,40,52,520,1,53298,1
2,30288,30302,32377,61277,34847,-4687,-857,-18,-207,615,-990,248,504,-136,1,0,40,52,560,1,53298,1
2,30295,30591,32366,61278,34858,-4654,-943,-140,-593,563,-775,247,497,-127,1,0,40,52,600,1,53298,1
2,30298,31831,32355,61279,34868,-4620,-952,-125,-463,179,-562,252,504,-126,1,0,40,52,640,1,53298,1
2,30276,32012,32356,61280,34879,-4640,-953,-90,-99,-183,-304,248,496,-128,1,0,40,52,680,1,53298,1
2,30253,32290,32370,61281,34889,-4644,-952,-111,60,-622,94,254,498,-132,1,0,40,52,720,1,53298,1
2,30206,32133,32361,61282,34899,-4618,-904,-33,150,-1001,386,256,498,-128,1,0,40,52,760,1,53298,1
2,30204,31142,32368,61283,34909,-4619,-904,14,94,-1082,503,252,500,-128,1,0,40,52,800,1,53298,1
2,30177,32055,32364,61284,34920,-4633,-876,32,176,-955,496,251,497,-119,1,0,40,52,840,1,53298,1
2,30177,31592,32367,61285,34931,-4619,-840,69,192,-732,420,239,497,-119,1,0,40,52,880,1,53298,1
2,30178,31342,32366,61286,34941,-4633,-856,61,18,-470,255,239,491,-115,1,0,40,52,920,1,53298,1
2,30153,31400,32360,61287,34952,-4639,-870,49,-42,-231,96,245,495,-129,1,0,40,52,960,1,53298,1
1,30141,31576,32355,61288,0,-4633,-883,56,-34,-86,10,248,490,-114,1,0,40,53,0,0,53298,1
2,30087,31910,32366,61289,34261,-4629,-873,49,-19,9,-3,250,498,-112,1,0,40,53,40,0,53298,1
2,30125,32083,32366,61290,34272,-4628,-881,61,-6,96,6,253,507,-121,1,0,40,53,80,0,53298,1
2,30101,32951,32358,61291,34283,-4628,-878,52,-6,185,-15,253,499,-117,1,0,40,53,120,0,53298,1
2,30098,31792,32360,61292,34295,-4628,-871,51,-22,253,-25,249,495,-123,1,0,40,53,160,0,53298,1
2,30102,30315,32379,61293,34306,-4620,-871,27,-41,280,-58,254,500,-126,1,0,40,53,200,0,53298,1
2,30090,29938,32396,61294,34317,-4633,-881,15,-40,265,-83,250,504,-118,1,0,40,53,240,0,53298,1
2,30058,29939,32395,61295,34327,-4633,-878,22,-32,188,-67,241,501,-125,1,0,40,53,280,0,53298,1
2,30074,29941,32400,61296,34338,-4641,-898,27,-17,100,-19,241,501,-115,1,0,40,53,320,0,53298,1
2,30128,30039,32404,61297,34348,-4883,-658,49,-1096,-52,-90,243,499,-109,1,0,40,53,360,0,53298,1
2,30171,30833,32414,61298,34358,-5195,-754,-759,-4853,-497,-620,254,494,-124,1,0,40,53,400,0,53298,1
2,30112,30740,32463,61299,34370,-5849,-744,-960,-3440,134,-701,255,497,-127,1,0,40,53,440,0,53298,1
2,30045,31114,32395,61300,34381,-5774,-1637,-657,1959,819,597,259,491,-131,1,0,40,53,480,0,53298,1
2,30149,31032,32324,61301,34393,-5262,-3444,1303,10287,1063,771,255,501,-135,1,0,40,53,520,0,53298,1
2,30237,30895,32327,61302,34405,-5401,-1257,6,1131,244,-3349,270,504,-138,1,0,40,53,560,0,53298,1
2,30528,30698,32323,61303,34416,-2564,4654,-4530,-7081,2048,-3309,279,489,-157,1,0,40,53,600,0,53298,1
2,30914,30684,32336,61304,34427,479,11425,-5851,-2743,12265,8108,261,509,-181,1,0,40,53,640,0,53298,1
2,30976,30693,32306,61305,34438,-3376,9132,-5289,-5382,26838,30761,177,543,-231,1,0,40,53,680,0,53298,1
2,30855,30611,32276,61306,34449,-9808,2929,-2071,-3295,32767,32767,53,517,-307,1,0,40,53,720,0,53298,1
2,30908,30666,32312,61307,34460,-16817,2018,-1327,4001,31277,32767,-24,420,-346,1,0,40,53,760,0,53298,1
2,30827,30701,32306,61308,34471,-9916,-3144,-712,-4476,19834,32767,-49,333,-351,1,0,40,53,800,0,53298,1
2,30792,30630,32278,61309,34481,-4041,-2328,-195,-6804,10560,17314,-45,307,-337,1,0,40,53,840,0,53298,1
2,30792,30741,32203,61310,34491,-3691,-540,396,-4147,2248,-652,-25,305,-343,1,0,40,53,880,0,53298,1
2,30813,30924,32155,61311,34502,-2107,-644,-432,-9151,-3741,-6943,-21,317,-315,1,0,40,53,920,0,53298,1
2,30814,30895,32142,61312,34512,-1327,-994,-1626,-6537,-4977,-5827,-12,326,-316,1,0,40,53,960,0,53298,1
1,30826,30863,32145,61313,0,-1246,22,-1247,6617,-2136,-4675,-13,331,-315,1,0,40,54,0,1,53298,1
2,30830,30941,32179,61314,33812,-1815,1002,-840,6476,-1373,-3711,-18,342,-332,1,0,40,54,40,1,53298,1
2,30838,30889,32213,61315,33822,-2993,1544,-958,2749,-3177,-4472,-18,348,-338,1,0,40,54,80,1,53298,1
2,30820,30838,32201,61316,33833,-3989,1301,-1080,321,-5898,-8389,-26,358,-336,1,0,40,54,120,1,53298,1
2,30842,30782,32203,61317,33843,-5187,1410,-1459,-480,-8994,-13554,-23,387,-323,1,0,40,54,160,1,53298,1
2,30828,30718,32209,61318,33854,-5027,2151,-1594,-309,-12135,-18338,-9,429,-319,1,0,40,54,200,1,53298,1
2,30841,30699,32237,61319,33864,-5079,1559,-1279,-871,-13669,-19328,5,461,-287,1,0,40,54,240,1,53298,1
2,30861,30675,32263,61320,33875,-5024,1701,-1973,-3418,-13069,-18944,34,492,-268,1,0,40,54,280,1,53298,1
2,30895,30693,32283,61321,33887,-4817,533,-795,-207,-12228,-17803,75,515,-239,1,0,40,54,320,1,53298,1
2,30924,30688,32307,61322,33898,-5444,936,-1295,342,-11617,-17065,109,533,-205,1,0,40,54,360,1,53298,1
2,30917,30661,32324,61323,33910,-4769,1099,-926,1323,-11258,-16708,155,521,-195,1,0,40,54,400,1,53298,1
2,30935,30642,32329,61324,33922,-4677,1010,-773,433,-9920,-15569,196,518,-160,1,0,40,54,440,1,53298,1
2,30948,30641,32333,61325,33933,-4577,1308,-935,-1466,-8341,-13721,232,514,-144,1,0,40,54,480,1,53298,1
2,30958,30638,32333,61326,33944,-4198,1049,-910,-2076,-6382,-10952,266,510,-138,1,0,40,54,520,1,53298,1
2,30960,30579,32332,61327,33955,-3465,-214,-606,-2494,-4488,-7799,266,494,-134,1,0,40,54,560,1,53298,1
2,30960,30528,32362,61328,33966,-3726,1335,-1601,-1712,-240,-2453,275,503,-137,1,0,40,54,600,1,53298,1
2,30301,30141,32365,61329,33978,-5257,-2241,-42,-651,1177,176,272,506,-128,1,0,40,54,640,1,53298,1
2,29924,30284,32404,61330,33988,-5390,-564,-56,1038,1034,-980,276,490,-130,1,0,40,54,680,1,53298,1
2,29897,30042,32415,61331,34000,-5210,-460,272,2024,-11,-523,274,490,-124,1,0,40,54,720,1,53298,1
2,29942,30775,32422,61332,34011,-4373,-1172,66,279,-284,-430,274,498,-130,1,0,40,54,760,1,53298,1
2,29890,30639,32426,61333,34022,-4531,-1008,112,-226,105,-144,270,500,-130,1,0,40,54,800,1,53298,1
2,29860,30349,32434,61334,34034,-4700,-1060,-61,77,169,137,268,502,-118,1,0,40,54,840,1,53298,1
2,29847,30785,32439,61335,34046,-4742,-931,-32,468,-9,208,266,496,-116,1,0,40,54,880,1,53298,1
2,29961,30801,32436,61336,34056,-4563,-1034,44,320,-274,121,269,495,-117,1,0,40,54,920,1,53298,1
2,29928,30732,32431,61337,34068,-4624,-983,44,124,-405,178,271,507,-133,1,0,40,54,960,1,53298,1
1,29816,30902,32441,61338,0,-4654,-982,67,126,-426,132,275,499,-121,1,0,40,55,0,0,53298,1
2,29883,30987,32439,61339,33362,-4623,-990,66,140,-332,62,271,497,-131,1,0,40,55,40,0,53298,1
2,29874,31055,32431,61340,33374,-4611,-987,62,64,-221,62,272,498,-130,1,0,40,55,80,0,53298,1
2,29919,31095,32431,61341,33386,-4626,-973,83,78,-151,77,277,499,-117,1,0,40,55,120,0,53298,1
2,29933,31050,32429,61342,33397,-4635,-984,76,85,-126,65,273,499,-125,1,0,40,55,160,0,53298,1
2,29980,31033,32427,61343,33409,-4619,-986,68,52,-114,83,273,495,-125,1,0,40,55,200,0,53298,1
2,30047,31019,32423,61344,33420,-4631,-982,76,84,-120,105,267,501,-119,1,0,40,55,240,0,53298,1
2,30012,31058,32427,61345,33432,-4636,-980,99,111,-86,93,273,487,-125,1,0,40,55,280,0,53298,1
2,29930,31093,32433,61346,33444,-4610,-973,86,59,-55,75,272,496,-126,1,0,40,55,320,0,53298,1
2,29955,31116,32434,61347,33455,-4624,-977,69,44,-31,50,270,496,-116,1,0,40,55,360,0,53298,1
2,30055,31116,32443,61348,33466,-4611,-976,79,50,-35,32,270,492,-122,1,0,40,55,400,0,53298,1
2,30046,31098,32437,61349,33478,-4610,-958,81,42,-36,21,274,498,-118,1,0,40,55,440,0,53298,1
2,30029,31104,32434,61350,33489,-4633,-987,66,20,-53,45,259,495,-119,1,0,40,55,480,0,53298,1
2,30071,31101,32433,61351,33500,-4636,-990,66,42,-95,77,267,495,-123,1,0,40,55,520,0,53298,1
2,30112,31112,32431,61352,33511,-4645,-975,97,49,-123,105,264,496,-120,1,0,40,55,560,0,53298,1
2,30070,31103,32418,61353,33523,-4835,-771,31,-1058,-198,-72,268,488,-120,1,0,40,55,600,0,53298,1
2,30075,31145,32420,61354,33534,-4691,-1055,45,-2647,-432,-425,278,500,-118,1,0,40,55,640,0,53298,1
2,30076,31092,32416,61355,33545,-4506,-1075,158,-1555,-371,-255,272,496,-126,1,0,40,55,680,0,53298,1
2,30117,31031,32427,61356,33556,-4778,-945,-74,-1220,-371,-126,281,503,-121,1,0,40,55,720,0,53298,1
2,30138,31033,32451,61357,33567,-5675,-482,-703,-2288,-358,-240,283,497,-117,1,0,40,55,760,0,53298,1
2,30064,31075,32442,61358,33578,-6522,-591,-934,-1655,168,129,290,496,-130,1,0,40,55,800,0,53298,1
2,30141,31151,32397,61359,33589,-6542,86,-818,6755,634,4006,265,493,-129,1,0,40,55,840,0,53298,1
2,30592,30545,32376,61360,33601,-1989,5362,-3450,7086,4013,8797,252,504,-146,1,0,40,55,880,0,53298,1
2,30940,30222,32362,61361,33614,-2479,8702,-4881,-11928,15345,21384,212,518,-176,1,0,40,55,920,0,53298,1
2,30835,30052,32310,61362,33625,-4428,7226,-4133,-4290,25832,32767,123,521,-227,1,0,40,55,960,0,53298,1
1,30802,30170,32307,61363,0,-10592,2748,-1395,-537,31854,32767,12,450,-298,1,0,40,56,0,0,53298,1
2,30773,30737,32328,61364,32913,-14779,918,-352,3427,28297,32767,-35,353,-329,1,0,40,56,40,0,53298,1
2,30778,29977,32303,61365,32925,-7052,-2779,-1766,-142,19680,32767,-35,303,-327,1,0,40,56,80,0,53298,1
2,30728,30323,32255,61366,32938,-4039,-1568,1380,-725,14772,16303,-13,281,-339,1,0,40,56,120,0,53298,1
2,30720,30893,32228,61367,32950,-2927,-50,1103,70,4496,1527,-5,283,-329,1,0,40,56,160,0,53298,1
2,30712,30372,32212,61368,32962,-1516,-1326,-1242,-7181,-3514,-1535,-15,283,-313,1,0,40,56,200,0,53298,1
2,30719,30238,32218,61369,32974,-1130,-630,-1215,1089,-2255,-2707,-4,296,-312,1,0,40,56,240,0,53298,1
2,30726,30333,32229,61370,32986,-1390,1349,-374,8023,-1077,-3793,-2,290,-330,1,0,40,56,280,0,53298,1
2,30745,29968,32244,61371,32997,-1882,1397,-383,3488,-3796,-4374,-6,300,-336,1,0,40,56,320,0,53298,1
2,30747,29909,32235,61372,33008,-2813,855,-1311,-2156,-6423,-7914,-17,303,-337,1,0,40,56,360,0,53298,1
2,30738,29906,32224,61373,33019,-3358,1876,-1566,-287,-9069,-13434,-18,326,-322,1,0,40,56,400,0,53298,1
2,30720,29906,32230,61374,33030,-3774,2066,-1769,1178,-11849,-17129,-26,352,-328,1,0,40,56,440,0,53298,1
2,30720,29924,32236,61375,33041,-3954,2182,-1899,589,-12820,-18740,-18,384,-308,1,0,40,56,480,0,53298,1
2,30721,29930,32250,61376,33053,-4094,2070,-1966,266,-12579,-18408,-1,421,-307,1,0,40,56,520,0,53298,1
2,30748,29911,32260,61377,33065,-4435,1780,-1746,369,-11576,-17617,14,458,-290,1,0,40,56,560,0,53298,1
2,30756,29919,32270,61378,33076,-5063,1514,-1561,1916,-10857,-16600,36,484,-268,1,0,40,56,600,0,53298,1
2,30775,29969,32303,61379,33088,-5167,1710,-1661,2712,-10595,-15855,64,510,-244,1,0,40,56,640,0,53298,1
2,30796,29929,32314,61380,33099,-4934,1471,-1273,3282,-10049,-14711,93,525,-221,1,0,40,56,680,0,53298,1
2,30803,29946,32343,61381,33111,-5080,1235,-1093,2444,-9450,-13174,127,521,-197,1,0,40,56,720,0,53298,1
2,30790,29965,32343,61382,33124,-4661,1251,-1100,627,-9031,-12037,152,526,-180,1,0,40,56,760,0,53298,1
2,30789,29944,32350,61383,33136,-4554,698,-814,-369,-7867,-10421,180,516,-164,1,0,40,56,800,0,53298,1
2,30791,29954,32359,61384,33149,-4721,413,-907,-521,-7118,-8775,201,515,-157,1,0,40,56,840,0,53298,1
2,30790,29960,32362,61385,33161,-4490,287,-841,-445,-6393,-7633,223,505,-145,1,0,40,56,880,0,53298,1
2,30750,30373,32348,61386,33174,-4206,101,-821,-410,-5125,-6277,225,499,-127,1,0,40,56,920,0,53298,1
2,30729,31048,32330,61387,33186,-4012,-39,-902,30,-3613,-4914,238,504,-122,1,0,40,56,960,0,53298,1
1,30806,30140,32365,61388,0,-4109,2739,-2751,-562,-792,-2846,246,494,-116,1,0,40,57,0,1,53298,1
2,30815,30011,32383,61389,32462,-4981,-328,-155,1395,1835,-354,247,501,-127,1,0,40,57,40,1,53298,1
2,30751,30602,32421,61390,32474,-5357,-808,760,1059,716,-559,248,502,-122,1,0,40,57,80,1,53298,1
2,30693,31150,32381,61391,32486,-4884,-320,25,353,-42,-234,252,504,-118,1,0,40,57,120,1,53298,1
2,30693,30103,32386,61392,32497,-4406,-1007,-120,126,-318,-99,252,496,-134,1,0,40,57,160,1,53298,1
2,30677,30062,32410,61393,32509,-4537,-807,137,-526,-185,17,244,500,-120,1,0,40,57,200,1,53298,1
2,30619,30005,32415,61394,32520,-4789,-770,-44,163,-259,247,244,502,-112,1,0,40,57,240,1,53298,1
2,30566,29977,32407,61395,32532,-4713,-741,-63,484,-223,155,237,499,-129,1,0,40,57,280,1,53298,1
2,30517,29935,32411,61396,32544,-4588,-776,95,108,-296,-23,244,506,-110,1,0,40,57,320,1,53298,1
2,30517,29941,32417,61397,32555,-4619,-800,55,-246,-317,-65,248,496,-118,1,0,40,57,360,1,53298,1
2,30557,30003,32420,61398,32565,-4680,-810,46,-160,-307,-101,249,501,-113,1,0,40,57,400,1,53298,1
2,30561,29951,32414,61399,32576,-4636,-817,63,30,-284,-105,246,504,-128,1,0,40,57,440,1,53298,1
2,30546,29964,32414,61400,32586,-4625,-808,76,77,-238,-37,247,511,-117,1,0,40,57,480,1,53298,1
2,30560,29926,32418,61401,32597,-4637,-813,77,91,-139,48,245,497,-111,1,0,40,57,520,1,53298,1
2,30554,30001,32426,61402,32608,-4635,-791,71,125,-89,77,240,502,-106,1,0,40,57,560,1,53298,1
2,30591,29936,32420,61403,32619,-4639,-806,89,87,-64,74,237,505,-121,1,0,40,57,600,1,53298,1
2,30512,29932,32410,61404,32630,-4637,-790,75,44,-65,72,231,499,-115,1,0,40,57,640,1,53298,1
2,30478,30040,32419,61405,32640,-4637,-767,83,-4,-98,50,249,501,-125,1,0,40,57,680,1,53298,1
2,30495,30088,32422,61406,32651,-4632,-792,81,-62,-129,26,241,507,-121,1,0,40,57,720,1,53298,1
2,30455,30142,32426,61407,32661,-4666,-794,77,-157,-150,42,237,497,-107,1,0,40,57,760,1,53298,1
2,30473,30233,32430,61408,32672,-4674,-772,111,-310,-197,55,250,494,-114,1,0,40,57,800,1,53298,1
2,30501,30236,32423,61409,32683,-4788,-709,73,-871,-314,67,250,500,-116,1,0,40,57,840,1,53298,1
2,30454,30565,32417,61410,32694,-5167,-979,-13,-1797,-680,260,246,500,-126,1,0,40,57,880,1,53298,1
2,30350,30028,32392,61411,32706,-5797,-1284,685,-2212,-1952,1070,250,496,-114,1,0,40,57,920,1,53298,1
2,30384,30728,32419,61412,32718,-6269,-3627,2205,-2788,-2915,-1261,257,493,-109,1,0,40,57,960,1,53298,1
1,30414,30245,32421,61413,0,-6103,-3245,1068,-7048,-5803,-6274,271,485,-113,1,0,40,58,0,0,53298,1
2,30556,30165,32434,61414,32014,-3576,11326,-6372,-9518,-3408,-4870,290,474,-136,1,0,40,58,40,0,53298,1
2,30745,30121,32411,61415,32026,-388,321,26,4527,-259,-60,291,465,-135,1,0,40,58,80,0,53298,1
2,30836,30286,32387,61416,32039,-3097,1323,-448,-3351,2525,2377,293,471,-139,1,0,40,58,120,0,53298,1
2,30719,30275,32406,61417,32051,-2906,2879,-2489,-5943,6749,8282,279,481,-163,1,0,40,58,160,0,53298,1
2,30459,30249,32403,61418,32063,-1947,6473,-3520,-652,12353,16381,241,499,-181,1,0,40,58,200,0,53298,1
2,30384,30173,32398,61419,32074,-3120,7264,-3759,1880,21350,29571,165,525,-225,1,0,40,58,240,0,53298,1
2,30442,30079,32399,61420,32086,-7023,4547,-2475,6174,28579,32767,49,509,-263,1,0,40,58,280,0,53298,1
2,30445,31204,32432,61421,32098,-13308,3051,-1387,7922,31248,32767,-18,428,-328,1,0,40,58,320,0,53298,1
2,30455,30713,32387,61422,32111,-14331,-816,-789,-679,25680,32767,-44,342,-344,1,0,40,58,360,0,53298,1
2,30423,30699,32361,61423,32123,-3954,-2250,396,-8909,14698,21528,-36,308,-336,1,0,40,58,400,0,53298,1
2,30412,30605,32328,61424,32135,-3556,-54,645,-9153,4246,1720,-30,296,-318,1,0,40,58,440,0,53298,1
2,30450,29915,32283,61425,32146,-2265,-494,-604,-8519,-2592,-3885,-27,317,-305,1,0,40,58,480,0,53298,1
2,30530,30709,32292,61426,32158,-1192,-671,-1500,-1067,-2568,-2931,-26,314,-310,1,0,40,58,520,0,53298,1
2,30583,30373,32306,61427,32169,-1775,690,-683,7735,-503,-1512,-17,317,-307,1,0,40,58,560,0,53298,1
2,30540,29936,32305,61428,32181,-2387,1628,-41,7996,-1571,-2100,-29,323,-323,1,0,40,58,600,0,53298,1
2,30491,29932,32305,61429,32193,-3143,1379,-742,184,-4606,-5548,-26,336,-322,1,0,40,58,640,0,53298,1
2,30515,29926,32286,61430,32205,-3777,1791,-1379,-2201,-7586,-10824,-25,355,-325,1,0,40,58,680,0,53298,1
2,30490,29950,32292,61431,32217,-4112,2049,-1459,-1043,-10310,-14867,-26,380,-314,1,0,40,58,720,0,53298,1
2,30463,29954,32296,61432,32228,-3963,2513,-1820,-598,-11742,-16732,-29,413,-291,1,0,40,58,760,0,53298,1
2,30492,29946,32309,61433,32239,-3815,2220,-1765,-530,-11561,-16171,-10,438,-276,1,0,40,58,800,0,53298,1
2,30529,29940,32317,61434,32250,-4352,1852,-1735,-1158,-10335,-15077,7,471,-253,1,0,40,58,840,0,53298,1
2,30542,29940,32347,61435,32262,-4482,1484,-1336,338,-9649,-14740,30,484,-242,1,0,40,58,880,0,53298,1
2,30576,29937,32354,61436,32274,-4733,1007,-645,1842,-9297,-14297,54,502,-218,1,0,40,58,920,0,53298,1
2,30582,29933,32366,61437,32286,-4752,1231,-763,1353,-9772,-14232,93,507,-201,1,0,40,58,960,0,53298,1
1,30621,29942,32378,61438,0,-4432,1153,-827,928,-9237,-13549,118,522,-178,1,0,40,59,0,1,53298,1
2,30649,29938,32388,61439,31564,-4737,827,-683,986,-7881,-12069,144,516,-162,1,0,40,59,40,1,53298,1
2,30638,29955,32409,61440,31576,-4825,860,-749,479,-7115,-10926,170,512,-152,1,0,40,59,80,1,53298,1
2,30656,29961,32402,61441,31588,-4807,574,-662,252,-5977,-9607,190,506,-134,1,0,40,59,120,1,53298,1
2,30671,29960,32417,61442,31600,-4782,361,-775,405,-4905,-8052,216,502,-118,1,0,40,59,160,1,53298,1
2,30658,29947,32417,61443,31613,-4214,425,-796,1297,-3864,-6817,224,500,-116,1,0,40,59,200,1,53298,1
2,30633,29937,32395,61444,31625,-3381,421,-610,1308,-2463,-5497,239,491,-121,1,0,40,59,240,1,53298,1
2,30662,29926,32409,61445,31637,-5212,3272,-1676,951,-74,-3016,236,494,-122,1,0,40,59,280,1,53298,1
2,30604,29947,32425,61446,31649,-6863,-1835,-94,3083,461,249,239,503,-109,1,0,40,59,320,1,53298,1
2,30593,29989,32394,61447,31660,-4696,-691,311,-674,574,-1274,237,497,-109,1,0,40,59,360,1,53298,1
2,30366,29951,32372,61448,31671,-4316,-715,310,747,267,-816,251,493,-123,1,0,40,59,400,1,53298,1
2,30267,30176,32367,61449,31682,-4682,-796,144,-437,336,-110,236,490,-120,1,0,40,59,440,1,53298,1
2,30238,29984,32391,61450,31693,-4810,-723,-29,74,145,87,245,495,-117,1,0,40,59,480,1,53298,1
2,30212,30098,32380,61451,31705,-4589,-735,143,554,-114,-33,245,493,-113,1,0,40,59,520,1,53298,1
2,30179,30402,32380,61452,31716,-4622,-699,162,247,-161,54,237,495,-109,1,0,40,59,560,1,53298,1
2,30165,30341,32377,61453,31727,-4657,-740,119,37,-160,81,239,485,-111,1,0,40,59,600,1,53298,1
2,30179,30297,32381,61454,31739,-4643,-716,147,190,-99,29,230,488,-112,1,0,40,59,640,1,53298,1
2,30193,30188,32379,61455,31750,-4619,-703,164,187,57,-27,244,492,-108,1,0,40,59,680,1,53298,1
2,30160,30035,32377,61456,31762,-4652,-719,137,1,164,-66,244,496,-118,1,0,40,59,720,1,53298,1
2,30179,30039,32380,61457,31773,-4646,-731,108,-51,181,-87,231,495,-121,1,0,40,59,760,1,53298,1
2,30158,30141,32385,61458,31786,-4627,-751,126,8,119,-79,232,500,-118,1,0,40,59,800,1,53298,1
2,30125,30189,32390,61459,31798,-4633,-743,113,12,57,-47,244,494,-120,1,0,40,59,840,1,53298,1
2,30122,30235,32389,61460,31809,-4646,-736,116,33,-21,-7,240,488,-116,1,0,40,59,880,1,53298,1
2,30128,30254,32392,61461,31821,-4626,-733,138,30,-65,4,238,492,-108,1,0,40,59,920,1,53298,1
2,30137,30247,32389,61462,31833,-4647,-741,117,2,-55,20,240,496,-114,1,0,40,59,960,1,53298,1
1,30129,30269,32382,61463,0,-4626,-718,121,10,-81,19,241,491,-121,1,0,41,0,0,1,53298,1
2,30119,30289,32383,61464,31115,-4624,-725,119,9,-46,14,232,498,-114,1,0,41,0,40,1,53298,1
2,30081,30287,32383,61465,31126,-4636,-743,132,0,-12,21,240,498,-108,1,0,41,0,80,1,53298,1
2,30065,30297,32380,61466,31138,-4646,-742,118,16,-2,15,235,495,-113,1,0,41,0,120,1,53298,1
2,30060,30324,32385,61467,31151,-4649,-735,122,-7,-12,10,234,492,-126,1,0,41,0,160,1,53298,1
2,30104,30352,32387,61468,31163,-4623,-736,106,-18,-34,16,235,499,-115,1,0,41,0,200,1,53298,1
2,30074,30361,32390,61469,31175,-4629,-734,122,4,-62,30,238,494,-102,1,0,41,0,240,1,53298,1
2,30083,30400,32389,61470,31187,-4635,-728,123,-6,-86,51,243,495,-107,1,0,41,0,280,1,53298,1
2,30093,30360,32392,61471,31199,-4666,-708,157,-122,-108,47,243,491,-107,1,0,41,0,320,1,53298,1
2,30120,30335,32387,61472,31211,-5034,-277,34,-1841,-203,-140,240,494,-120,1,0,41,0,360,1,53298,1
2,30129,29963,32376,61473,31222,-5705,-262,-100,-4533,-821,21,248,494,-114,1,0,41,0,400,1,53298,1
2,30277,30270,32355,61474,31234,-6310,-944,617,-3680,-2653,2452,240,480,-104,1,0,41,0,440,1,53298,1
2,30285,30210,32325,61475,31247,-5568,-3931,2024,-1407,-4029,879,241,483,-113,1,0,41,0,480,1,53298,1
2,30295,30201,32330,61476,31259,-5692,-2690,915,-5764,-5127,-3199,260,474,-112,1,0,41,0,520,1,53298,1
2,30268,30195,32315,61477,31273,-4648,-1963,721,-500,-6860,-7079,276,456,-114,1,0,41,0,560,1,53298,1
2,30276,30195,32321,61478,31285,-3838,244,-918,-1650,-5896,-8758,289,445,-111,1,0,41,0,600,1,53298,1
2,30465,30233,32336,61479,31298,-1621,6317,-4471,-2045,-244,-4625,305,439,-123,1,0,41,0,640,1,53298,1
2,30752,30218,32340,61480,31310,-351,11269,-5717,-804,12384,10164,284,462,-148,1,0,41,0,680,1,53298,1
2,30780,30208,32319,61481,31323,-3278,9529,-5389,-961,26136,32416,192,504,-188,1,0,41,0,720,1,53298,1
2,30736,30055,32342,61482,31335,-8776,4905,-2247,7081,32767,32767,74,500,-250,1,0,41,0,760,1,53298,1
2,30741,29970,32395,61483,31348,-16668,3860,-54,10814,32767,32767,-28,426,-312,1,0,41,0,800,1,53298,1
2,30690,29959,32356,61484,31361,-17072,-2240,-622,-4084,25314,32767,-39,335,-317,1,0,41,0,840,1,53298,1
2,30688,30064,32315,61485,31373,-4509,-3156,-471,-7747,14975,25529,-37,297,-321,1,0,41,0,880,1,53298,1
2,30676,29984,32282,61486,31386,-4159,-511,1201,-4004,5768,2065,-30,304,-310,1,0,41,0,920,1,53298,1
2,30634,29959,32273,61487,31398,-2429,-494,-349,-5980,-3353,-5842,-15,319,-301,1,0,41,0,960,1,53298,1
1,30630,29926,32269,61488,0,-354,-319,-1833,-1347,-3701,-6071,-19,329,-301,1,0,41,1,0,1,53298,1
2,30661,29927,32285,61489,30667,-717,1058,-1019,6714,-185,-3267,-9,323,-307,1,0,41,1,40,1,53298,1
2,30682,29954,32287,61490,30679,-2035,1389,-27,7132,392,-1498,-9,327,-327,1,0,41,1,80,1,53298,1
2,30656,29972,32288,61491,30689,-3031,466,-304,-2186,-2818,-3516,-16,328,-316,1,0,41,1,120,1,53298,1
2,30671,29956,32290,61492,30701,-4242,307,-763,-4283,-6299,-10064,-28,346,-304,1,0,41,1,160,1,53298,1
2,30674,29933,32304,61493,30712,-5313,1352,-749,-1890,-9694,-17493,-11,377,-295,1,0,41,1,200,1,53298,1
2,30703,29935,32313,61494,30724,-5074,1642,-926,-757,-12562,-21490,-2,426,-294,1,0,41,1,240,1,53298,1
2,30725,29943,32335,61495,30736,-4794,1673,-1254,600,-13068,-22022,21,453,-271,1,0,41,1,280,1,53298,1
2,30738,29944,32356,61496,30747,-4616,1811,-1146,3834,-12612,-20937,53,487,-247,1,0,41,1,320,1,53298,1
2,30760,29945,32367,61497,30759,-4775,1795,-1014,4436,-11943,-18957,81,509,-227,1,0,41,1,360,1,53298,1
2,30779,29946,32381,61498,30770,-5132,1525,-698,3194,-11637,-17113,124,532,-202,1,0,41,1,400,1,53298,1
2,30790,29966,32392,61499,30782,-5305,1419,-1041,-415,-11942,-15844,160,528,-180,1,0,41,1,440,1,53298,1
2,30787,29945,32400,61500,30793,-4916,1171,-1244,-3754,-10803,-15116,189,513,-147,1,0,41,1,480,1,53298,1
2,30780,29948,32407,61501,30806,-4815,438,-1570,-6712,-7678,-13917,235,507,-141,1,0,41,1,520,1,53298,1
2,30784,29947,32416,61502,30818,-4864,632,-1536,-2988,-3671,-11711,251,499,-141,1,0,41,1,560,1,53298,1
2,30770,29954,32426,61503,30831,-4498,756,-962,1146,-686,-8598,282,500,-140,1,0,41,1,600,1,53298,1
2,30800,29965,32441,61504,30844,-4227,586,-378,2698,1020,-5011,285,493,-143,1,0,41,1,640,1,53298,1
2,30793,29958,32446,61505,30857,-4061,35,-124,2156,1359,-1901,286,502,-148,1,0,41,1,680,1,53298,1
2,30788,29974,32449,61506,30870,-3736,-334,-98,2127,1384,103,278,504,-144,1,0,41,1,720,1,53298,1
2,30794,29969,32444,61507,30882,-3425,-307,-36,2990,1279,1431,269,501,-139,1,0,41,1,760,1,53298,1
2,31027,29975,32487,61508,30895,-10477,-3169,-513,3768,815,1551,273,513,-129,1,0,41,1,800,1,53298,1
2,30633,29948,32442,61509,30907,-5136,-1068,-9,564,297,-1181,269,509,-125,1,0,41,1,840,1,53298,1
2,30381,29962,32417,61510,30919,-4105,-761,81,1250,226,-881,270,510,-118,1,0,41,1,880,1,53298,1
2,30207,29941,32428,61511,30931,-4379,-1284,470,-534,363,-138,266,508,-128,1,0,41,1,920,1,53298,1
2,30132,30022,32436,61512,30943,-5037,-972,-360,137,266,359,270,504,-130,1,0,41,1,960,1,53298,1
1,30079,29929,32428,61513,0,-4698,-989,-131,835,1,105,269,507,-129,1,0,41,2,0,0,53298,1
2,30034,29933,32424,61514,30216,-4511,-941,71,300,-306,-36,259,509,-123,1,0,41,2,40,0,53298,1
2,30022,29943,32442,61515,30227,-4611,-999,-37,-188,-230,-8,280,508,-134,1,0,41,2,80,0,53298,1
2,30015,29930,32435,61516,30238,-4701,-956,-70,58,-193,-36,275,503,-127,1,0,41,2,120,0,53298,1
2,30004,29933,32437,61517,30249,-4591,-1001,-16,179,-245,-77,273,509,-137,1,0,41,2,160,0,53298,1
2,30012,29947,32436,61518,30261,-4610,-996,17,37,-215,35,267,505,-129,1,0,41,2,200,0,53298,1
2,29999,29966,32435,61519,30272,-4643,-989,-19,39,-80,75,267,509,-141,1,0,41,2,240,0,53298,1
2,29987,29961,32428,61520,30285,-4615,-975,-12,148,38,39,275,505,-131,1,0,41,2,280,0,53298,1
2,29980,29954,32435,61521,30296,-4637,-979,-15,24,111,25,273,509,-131,1,0,41,2,320,0,53298,1
2,29998,29958,32440,61522,30309,-4627,-983,-40,4,143,-29,257,515,-121,1,0,41,2,360,0,53298,1
2,29979,29977,32439,61523,30321,-4624,-977,-39,42,125,-59,270,508,-124,1,0,41,2,400,0,53298,1
2,29978,30012,32435,61524,30333,-4623,-980,-22,-5,93,-69,269,507,-141,1,0,41,2,440,0,53298,1
2,29970,30057,32440,61525,30344,-4645,-1001,-44,-41,47,-57,269,509,-127,1,0,41,2,480,0,53298,1
2,29975,30050,32442,61526,30355,-4624,-988,-37,0,-13,-21,266,506,-134,1,0,41,2,520,0,53298,1
2,30002,30099,32439,61527,30367,-4634,-1005,-33,10,-63,25,271,507,-127,1,0,41,2,560,0,53298,1
2,30005,30109,32436,61528,30379,-4621,-983,-37,25,-83,69,275,501,-127,1,0,41,2,600,0,53298,1
2,29994,30142,32440,61529,30391,-4639,-989,-10,40,-96,85,267,499,-125,1,0,41,2,640,0,53298,1
2,30020,30156,32440,61530,30403,-4632,-1003,-40,1,-101,78,263,509,-125,1,0,41,2,680,0,53298,1
2,30005,30165,32443,61531,30415,-4627,-996,-11,23,-123,88,268,510,-128,1,0,41,2,720,0,53298,1
2,30021,30216,32440,61532,30427,-4636,-983,-23,25,-133,82,273,505,-131,1,0,41,2,760,0,53298,1
2,30023,30235,32440,61533,30438,-4663,-963,19,-7,-142,79,266,506,-130,1,0,41,2,800,0,53298,1
2,30030,30265,32428,61534,30450,-4649,-980,-52,-361,-215,92,270,506,-126,1,0,41,2,840,0,53298,1
2,30036,30263,32436,61535,30460,-4662,-990,-35,-663,-376,152,268,506,-134,1,0,41,2,880,0,53298,1
2,30034,30276,32429,61536,30471,-4676,-990,-7,-635,-630,417,278,502,-120,1,0,41,2,920,0,53298,1
2,30007,30363,32432,61537,30483,-4951,-705,27,-1545,-1125,649,270,500,-120,1,0,41,2,960,0,53298,1
1,30104,30210,32415,61538,0,-5777,-1210,-206,-3071,-2134,1455,267,509,-119,1,0,41,3,0,1,53298,1
2,30125,30444,32400,61539,29768,-5954,-2549,928,-1259,-3096,1359,279,497,-121,1,0,41,3,40,1,53298,1
2,30154,30421,32401,61540,29781,-5581,-2295,591,-1508,-3816,-2787,285,493,-131,1,0,41,3,80,1,53298,1
2,30093,30305,32396,61541,29794,-4306,745,-1610,-3651,-3223,-4742,297,481,-127,1,0,41,3,120,1,53298,1
2,30319,29982,32375,61542,29806,-1325,7217,-4315,-2474,2914,213,297,475,-149,1,0,41,3,160,1,53298,1
2,30626,30097,32380,61543,29817,-1541,9200,-4800,-3494,14423,15725,258,512,-168,1,0,41,3,200,1,53298,1
2,30554,30131,32338,61544,29829,-3977,5693,-3495,-2378,24480,32767,165,553,-213,1,0,41,3,240,1,53298,1
2,30553,30105,32363,61545,29841,-9791,2574,-1674,6243,30119,32767,53,525,-267,1,0,41,3,280,1,53298,1
2,30563,30172,32370,61546,29853,-15382,1873,-122,10247,28385,32767,-31,425,-339,1,0,41,3,320,1,53298,1
2,30512,30372,32313,61547,29865,-10179,-1514,-411,-1668,18379,32767,-46,358,-336,1,0,41,3,360,1,53298,1
2,30501,30617,32307,61548,29877,-4973,-1656,-17,-8112,7637,15595,-36,336,-326,1,0,41,3,400,1,53298,1
2,30493,30716,32262,61549,29888,-3404,-763,109,-7183,1048,970,-25,335,-325,1,0,41,3,440,1,53298,1
2,30493,30726,32242,61550,29899,-1907,-628,-646,-8203,-2696,-3725,-21,337,-315,1,0,41,3,480,1,53298,1
2,30550,30744,32240,61551,29911,-1510,-492,-1155,-4822,-3621,-3047,-21,343,-295,1,0,41,3,520,1,53298,1
2,30565,30625,32236,61552,29921,-1637,-224,-624,2134,-1921,-2327,-13,345,-301,1,0,41,3,560,1,53298,1
2,30590,30608,32278,61553,29931,-2458,911,-671,1852,-1265,-3310,-18,354,-300,1,0,41,3,600,1,53298,1
2,30618,30631,32289,61554,29943,-3249,1619,-647,2120,-3780,-5716,-24,360,-306,1,0,41,3,640,1,53298,1
2,30622,30681,32294,61555,29954,-3854,1597,-713,-54,-6246,-9047,-23,387,-301,1,0,41,3,680,1,53298,1
2,30630,30639,32291,61556,29965,-4400,1981,-1235,-531,-8112,-12482,-16,400,-288,1,0,41,3,720,1,53298,1
2,30633,30583,32305,61557,29976,-4670,1707,-811,65,-10257,-15088,-5,421,-277,1,0,41,3,760,1,53298,1
2,30633,30485,32335,61558,29988,-4767,1872,-1259,-1453,-11500,-16230,16,460,-258,1,0,41,3,800,1,53298,1
2,30650,30501,32347,61559,30000,-4567,1255,-881,-588,-11419,-15858,43,475,-237,1,0,41,3,840,1,53298,1
2,30681,30357,32369,61560,30012,-4982,1267,-945,301,-11140,-15044,70,488,-192,1,0,41,3,880,1,53298,1
2,30684,30295,32372,61561,30024,-4648,1284,-805,1420,-10727,-14238,95,507,-181,1,0,41,3,920,1,53298,1
2,30689,30055,32378,61562,30037,-4807,769,-442,2050,-10005,-13175,137,511,-167,1,0,41,3,960,1,53298,1
1,30690,30165,32390,61563,0,-5005,941,-759,996,-9299,-12398,168,502,-146,1,0,41,4,0,0,53298,1
2,30699,30147,32398,61564,29320,-4711,762,-603,1126,-8386,-11753,183,499,-123,1,0,41,4,40,0,53298,1
2,30693,30166,32403,61565,29333,-4864,626,-604,-122,-6883,-10550,207,489,-109,1,0,41,4,80,0,53298,1
2,30689,30140,32405,61566,29345,-4420,536,-684,-975,-5505,-9332,226,480,-112,1,0,41,4,120,0,53298,1
2,30712,30145,32395,61567,29359,-3919,406,-743,47,-3816,-7971,238,470,-114,1,0,41,4,160,0,53298,1
2,30679,30447,32388,61568,29371,-3508,358,-701,586,-1882,-6036,252,474,-98,1,0,41,4,200,0,53298,1
2,30686,30462,32430,61569,29383,-5420,331,49,3537,2599,-2120,255,483,-107,1,0,41,4,240,0,53298,1
2,30687,30279,32488,61570,29394,-6115,-1798,1590,2769,1297,-1209,244,480,-108,1,0,41,4,280,0,53298,1
2,30496,30255,32498,61571,29406,-5617,-54,-133,1587,675,-377,237,481,-95,1,0,41,4,320,0,53298,1
2,30236,30268,32471,61572,29418,-4342,-1307,-81,-532,224,-1045,252,482,-106,1,0,41,4,360,0,53298,1
2,30185,30283,32468,61573,29430,-4236,-896,810,-310,277,-581,246,482,-106,1,0,41,4,400,0,53298,1
2,30106,30244,32475,61574,29442,-4698,-934,186,84,404,160,238,480,-110,1,0,41,4,440,0,53298,1
2,29941,30225,32477,61575,29453,-4896,-731,94,858,175,270,248,482,-100,1,0,41,4,480,0,53298,1
2,29903,30241,32475,61576,29465,-4558,-808,397,435,-226,24,243,479,-105,1,0,41,4,520,0,53298,1
2,29895,30443,32489,61577,29477,-4567,-845,339,-55,-307,36,251,489,-97,1,0,41,4,560,0,53298,1
2,29840,30640,32488,61578,29489,-4691,-871,299,-63,-241,-14,247,473,-99,1,0,41,4,600,0,53298,1
2,29820,30879,32488,61579,29501,-4621,-820,350,122,-118,-150,246,482,-98,1,0,41,4,640,0,53298,1
2,29815,30902,32487,61580,29513,-4579,-848,375,-19,3,-175,241,483,-105,1,0,41,4,680,0,53298,1
2,29799,30907,32492,61581,29524,-4619,-865,324,-114,133,-123,249,481,-109,1,0,41,4,720,0,53298,1
2,29767,30868,32486,61582,29535,-4627,-846,298,-12,162,-112,240,488,-96,1,0,41,4,760,0,53298,1
2,29821,30864,32484,61583,29546,-4630,-858,303,-27,120,-89,246,482,-106,1,0,41,4,800,0,53298,1
2,29891,30781,32489,61584,29557,-4635,-871,303,-49,21,-124,249,487,-109,1,0,41,4,840,0,53298,1
2,29908,30730,32486,61585,29568,-4627,-886,295,-50,-80,-143,250,480,-102,1,0,41,4,880,0,53298,1
2,29947,30698,32482,61586,29579,-4629,-876,297,-6,-222,-61,253,481,-101,1,0,41,4,920,0,53298,1
2,29968,30662,32490,61587,29590,-4645,-905,281,8,-438,86,243,479,-95,1,0,41,4,960,0,53298,1
1,30015,30660,32484,61588,0,-4627,-877,320,74,-701,258,249,479,-109,1,0,41,5,0,1,53298,1
2,29895,30650,32492,61589,28870,-4626,-862,360,116,-875,302,255,485,-107,1,0,41,5,40,1,53298,1
2,29851,30617,32488,61590,28881,-4613,-866,392,39,-928,353,244,480,-94,1,0,41,5,80,1,53298,1
2,29784,30635,32487,61591,28892,-4603,-840,403,-93,-873,411,246,480,-92,1,0,41,5,120,1,53298,1
2,29862,30609,32492,61592,28903,-4632,-828,429,-12,-744,396,239,481,-89,1,0,41,5,160,1,53298,1
2,29809,30550,32483,61593,28914,-4650,-787,469,-47,-574,262,242,482,-102,1,0,41,5,200,1,53298,1
2,29937,30461,32485,61594,28926,-4912,-392,298,-1405,-432,-15,244,476,-90,1,0,41,5,240,1,53298,1
2,29954,30070,32472,61595,28938,-5221,-610,116,-3780,-332,-454,258,478,-96,1,0,41,5,280,1,53298,1
2,29942,30563,32423,61596,28949,-6210,-169,-85,-2122,143,-205,246,476,-86,1,0,41,5,320,1,53298,1
2,29910,30940,32401,61597,28961,-5362,-1246,353,2185,575,1376,247,475,-91,1,0,41,5,360,1,53298,1
2,30006,30658,32357,61598,28973,-4747,-2727,953,6259,697,2726,239,473,-97,1,0,41,5,400,1,53298,1
2,30163,30775,32386,61599,28985,-4784,-1730,933,36,235,-1547,259,459,-111,1,0,41,5,440,1,53298,1
2,30244,30745,32399,61600,28998,-2821,3696,-3406,-5912,675,-1203,262,472,-124,1,0,41,5,480,1,53298,1
2,30561,30732,32389,61601,29009,-288,9557,-5369,-5726,9324,8749,237,489,-155,1,0,41,5,520,1,53298,1
2,30592,30692,32345,61602,29021,-2840,7932,-4689,-5576,23521,27032,171,517,-199,1,0,41,5,560,1,53298,1
2,30563,30700,32336,61603,29032,-6655,3449,-2120,-622,31476,32767,59,505,-255,1,0,41,5,600,1,53298,1
2,30534,30814,32394,61604,29043,-14219,3627,-341,12628,32142,32767,-18,426,-312,1,0,41,5,640,1,53298,1
2,30514,30793,32380,61605,29055,-15027,-1067,203,2438,24760,32767,-53,349,-329,1,0,41,5,680,1,53298,1
2,30472,30699,32331,61606,29066,-4259,-2067,-586,-3701,14199,24453,-46,312,-326,1,0,41,5,720,1,53298,1
2,30502,30842,32302,61607,29077,-4369,-290,1076,-1302,5188,3075,-39,309,-319,1,0,41,5,760,1,53298,1
2,30525,30745,32254,61608,29088,-2836,-889,205,-3642,-3853,-6240,-28,324,-308,1,0,41,5,800,1,53298,1
2,30508,30705,32225,61609,29098,-2252,-566,-698,-6472,-7115,-8435,-22,334,-308,1,0,41,5,840,1,53298,1
2,30527,30730,32250,61610,29108,-1848,-306,-598,-1122,-6302,-8690,-16,342,-300,1,0,41,5,880,1,53298,1
2,30568,30687,32275,61611,29119,-2616,444,-245,-1297,-5811,-8986,-11,351,-299,1,0,41,5,920,1,53298,1
2,30525,30693,32289,61612,29129,-3339,1234,-295,-1667,-8271,-10530,-10,372,-284,1,0,41,5,960,1,53298,1
1,30555,30648,32306,61613,0,-4584,747,-682,-3675,-11038,-13596,-15,413,-271,1,0,41,6,0,1,53298,1
2,30584,30501,32338,61614,28422,-5529,848,-1447,-1827,-11935,-17392,2,428,-246,1,0,41,6,40,1,53298,1
2,30594,30461,32340,61615,28433,-5582,1388,-1365,3422,-12050,-20305,41,467,-241,1,0,41,6,80,1,53298,1
2,30575,30417,32346,61616,28444,-5674,1927,-1225,5475,-12131,-20915,72,496,-214,1,0,41,6,120,1,53298,1
2,30577,30358,32374,61617,28454,-5361,2190,-1306,3662,-12009,-19595,108,502,-188,1,0,41,6,160,1,53298,1
2,30600,30391,32380,61618,28465,-4959,1314,-853,1302,-11191,-17413,146,496,-164,1,0,41,6,200,1,53298,1
2,30592,30411,32393,61619,28477,-4868,1243,-854,-1099,-10219,-15129,173,501,-137,1,0,41,6,240,1,53298,1
2,30592,30409,32407,61620,28488,-4385,1106,-603,-1529,-8891,-12915,205,499,-121,1,0,41,6,280,1,53298,1
2,30595,30401,32417,61621,28499,-4232,613,-861,-1913,-6996,-10751,234,490,-124,1,0,41,6,320,1,53298,1
2,30591,30302,32410,61622,28510,-3972,628,-928,-167,-4683,-8917,246,482,-118,1,0,41,6,360,1,53298,1
2,30667,30404,32409,61623,28521,-3603,835,-640,894,-2443,-6574,257,477,-101,1,0,41,6,400,1,53298,1
2,30670,30356,32449,61624,28532,-5366,-1429,202,-1938,2221,-1386,265,481,-121,1,0,41,6,440,1,53298,1
2,30580,30422,32525,61625,28542,-6926,-262,308,1228,1444,-1125,264,488,-106,1,0,41,6,480,1,53298,1
2,30362,30401,32484,61626,28554,-4935,-1296,-24,267,84,-860,268,480,-114,1,0,41,6,520,1,53298,1
2,30317,30408,32466,61627,28565,-3992,-1284,293,246,-325,-958,261,479,-119,1,0,41,6,560,1,53298,1
2,30262,30442,32468,61628,28575,-4329,-1012,601,64,309,-322,263,477,-121,1,0,41,6,600,1,53298,1
2,30181,30488,32484,61629,28586,-4956,-957,42,239,697,190,265,477,-105,1,0,41,6,640,1,53298,1
2,30059,30477,32484,61630,28596,-4761,-974,127,604,533,105,267,477,-119,1,0,41,6,680,1,53298,1
2,30015,30520,32478,61631,28607,-4505,-984,328,198,369,-140,273,479,-115,1,0,41,6,720,1,53298,1
2,29948,30420,32476,61632,28618,-4620,-1037,169,-180,295,-105,265,481,-111,1,0,41,6,760,1,53298,1
2,29925,30397,32479,61633,28629,-4696,-995,167,54,102,-83,258,472,-110,1,0,41,6,800,1,53298,1
2,29899,30419,32477,61634,28640,-4605,-1023,229,153,-30,-121,264,478,-114,1,0,41,6,840,1,53298,1
2,29900,30405,32472,61635,28650,-4606,-1020,224,41,-24,-65,260,480,-106,1,0,41,6,880,1,53298,1
2,29897,30436,32477,61636,28661,-4627,-1020,196,57,-1,8,267,477,-115,1,0,41,6,920,1,53298,1
2,29895,30391,32468,61637,28673,-4628,-1000,211,147,14,22,261,483,-103,1,0,41,6,960,1,53298,1
1,29903,30328,32471,61638,0,-4626,-1014,229,66,35,3,261,485,-117,1,0,41,7,0,0,53298,1
2,29911,30324,32468,61639,27974,-4618,-1020,182,19,35,5,263,483,-113,1,0,41,7,40,0,53298,1
2,29854,30341,32468,61640,27984,-4620,-1005,210,32,2,24,261,481,-121,1,0,41,7,80,0,53298,1
2,29865,30378,32468,61641,27994,-4620,-1012,207,4,-10,18,257,477,-111,1,0,41,7,120,0,53298,1
2,29908,30400,32470,61642,28004,-4627,-1028,193,10,-42,30,266,478,-112,1,0,41,7,160,0,53298,1
2,29984,30419,32479,61643,28014,-4622,-1012,202,40,-90,27,267,483,-111,1,0,41,7,200,0,53298,1
2,30002,30438,32486,61644,28024,-4631,-1022,205,34,-83,23,258,482,-110,1,0,41,7,240,0,53298,1
2,29871,30417,32483,61645,28036,-4611,-1010,203,29,-96,52,262,478,-124,1,0,41,7,280,0,53298,1
2,29846,30444,32485,61646,28046,-4610,-1011,225,45,-100,59,257,483,-117,1,0,41,7,320,0,53298,1
2,29805,30436,32489,61647,28057,-4647,-1004,252,63,-101,88,274,482,-106,1,0,41,7,360,0,53298,1
2,29853,30475,32488,61648,28068,-4668,-979,250,128,-183,126,255,481,-113,1,0,41,7,400,0,53298,1
2,29872,30496,32489,61649,28078,-4767,-888,61,-795,-263,-64,271,489,-105,1,0,41,7,440,0,53298,1
2,29910,30441,32470,61650,28088,-4804,-998,58,-1373,-367,-203,272,478,-124,1,0,41,7,480,0,53298,1
2,29891,30483,32472,61651,28099,-4730,-1094,76,-1095,-312,-272,266,484,-104,1,0,41,7,520,0,53298,1
2,29910,30573,32465,61652,28108,-4437,-1152,276,140,-70,-267,260,478,-106,1,0,41,7,560,0,53298,1
2,29944,30516,32469,61653,28118,-4343,-1040,490,242,139,-300,264,476,-114,1,0,41,7,600,0,53298,1
2,29919,30546,32470,61654,28129,-4494,-1060,415,-415,155,-229,265,485,-117,1,0,41,7,640,0,53298,1
2,29933,30578,32476,61655,28139,-4548,-1120,178,-348,225,-89,272,482,-126,1,0,41,7,680,0,53298,1
2,29900,30554,32468,61656,28149,-4510,-1130,233,147,307,-77,268,484,-114,1,0,41,7,720,0,53298,1
2,29940,30545,32468,61657,28159,-4403,-1168,307,907,350,23,265,481,-119,1,0,41,7,760,0,53298,1
2,29917,30583,32481,61658,28170,-4812,-894,161,1256,360,191,272,488,-118,1,0,41,7,800,0,53298,1
2,29929,30602,32495,61659,28181,-4982,-868,78,1148,123,218,264,480,-112,1,0,41,7,840,0,53298,1
2,29916,30635,32494,61660,28191,-4601,-1062,177,410,-102,-10,262,482,-110,1,0,41,7,880,0,53298,1
2,29935,30673,32501,61661,28202,-4551,-1071,249,69,-102,11,273,487,-113,1,0,41,7,920,0,53298,1
2,29902,30535,32496,61662,28213,-4928,-819,211,-302,-54,99,264,478,-118,1,0,41,7,960,0,53298,1
1,29817,30333,32474,61663,0,-5723,-585,-305,-3740,-721,-437,268,484,-112,1,0,41,8,0,1,53298,1
2,29809,31058,32437,61664,27525,-6148,-494,-196,-2600,-976,445,269,477,-111,1,0,41,8,40,1,53298,1
2,29835,31138,32400,61665,27536,-4992,-214,-382,3713,-675,3433,258,482,-120,1,0,41,8,80,1,53298,1
2,30541,30281,32394,61666,27548,-2761,2028,-1211,7125,417,6690,248,478,-112,1,0,41,8,120,1,53298,1
2,30879,30091,32406,61667,27560,-2406,8777,-4881,-5252,6899,13056,212,498,-140,1,0,41,8,160,1,53298,1
2,30852,29964,32350,61668,27571,-3192,8009,-4014,-14305,14880,28796,150,498,-170,1,0,41,8,200,1,53298,1
2,30770,29962,32373,61669,27583,-7459,1725,-3238,-18160,23232,32767,56,484,-212,1,0,41,8,240,1,53298,1
2,30767,30048,32395,61670,27595,-13783,1671,-632,7915,23265,32767,-32,416,-240,1,0,41,8,280,1,53298,1
2,30706,30007,32368,61671,27607,-12774,-1127,-78,15744,20621,32767,-63,349,-277,1,0,41,8,320,1,53298,1
2,31065,30006,32426,61672,27617,-4048,-37,-253,9036,15436,24133,-43,315,-309,1,0,41,8,360,1,53298,1
2,31072,30009,32365,61673,27628,-3776,577,1514,3812,8188,6185,-27,307,-307,1,0,41,8,400,1,53298,1
2,30995,31745,32285,61674,27637,-2595,-439,481,-3479,1028,-760,-15,315,-307,1,0,41,8,440,1,53298,1
2,31013,33188,32277,61675,27646,-1774,-714,-715,-11075,-3345,-1824,-28,312,-286,1,0,41,8,480,1,53298,1
2,30965,32161,32272,61676,27656,-1572,-926,-584,-7675,-2820,-2998,-23,319,-285,1,0,41,8,520,1,53298,1
2,30992,31904,32285,61677,27666,-2047,-390,-640,-585,-2490,-5622,-25,317,-289,1,0,41,8,560,1,53298,1
2,30990,30546,32309,61678,27676,-3033,601,-371,3718,-4095,-8638,-18,338,-288,1,0,41,8,600,1,53298,1
2,31010,30475,32338,61679,27685,-4475,575,-475,4817,-7658,-13046,-20,360,-284,1,0,41,8,640,1,53298,1
2,31029,29960,32373,61680,27695,-5286,1232,-1102,4631,-11120,-18411,-14,394,-288,1,0,41,8,680,1,53298,1
2,31012,29967,32388,61681,27705,-5500,1679,-864,3969,-13322,-22477,3,431,-277,1,0,41,8,720,1,53298,1
2,31029,30245,32386,61682,27714,-5611,2430,-1269,758,-14600,-23651,31,465,-253,1,0,41,8,760,1,53298,1
2,31050,30085,32408,61683,27725,-4856,2282,-1225,-1553,-14653,-22490,72,486,-206,1,0,41,8,800,1,53298,1
2,31073,30301,32411,61684,27735,-4940,1860,-1161,-374,-13249,-20264,115,511,-177,1,0,41,8,840,1,53298,1
2,31075,30287,32422,61685,27746,-4848,1825,-1140,1286,-12367,-17825,159,507,-157,1,0,41,8,880,1,53298,1
2,31081,30211,32424,61686,27757,-4353,1562,-907,1508,-10800,-15122,192,506,-140,1,0,41,8,920,1,53298,1
2,31075,30071,32413,61687,27768,-4468,817,-562,926,-8682,-12517,209,503,-121,1,0,41,8,960,1,53298,1
1,31081,30704,32437,61688,0,-1444,3454,-4616,-1137,-6160,-10449,237,491,-117,1,0,41,9,0,0,53298,1
2,30986,29990,32485,61689,27077,-5987,4568,-1790,1735,2404,-1703,232,492,-114,1,0,41,9,40,0,53298,1
2,30385,29996,32455,61690,27087,-4618,-1686,-178,-1108,739,-1483,235,495,-117,1,0,41,9,80,0,53298,1
2,30352,29946,32450,61691,27097,-4108,-1240,1000,904,962,-1258,234,492,-126,1,0,41,9,120,0,53298,1
2,30390,29934,32452,61692,27108,-4214,-723,316,1081,503,-203,242,500,-114,1,0,41,9,160,0,53298,1
2,30368,29965,32470,61693,27119,-5033,-572,-184,378,704,450,237,485,-123,1,0,41,9,200,0,53298,1
2,30324,29942,32470,61694,27129,-4847,-642,-114,314,357,340,228,490,-112,1,0,41,9,240,0,53298,1
2,30307,30129,32483,61695,27140,-4468,-764,106,410,-41,80,235,495,-121,1,0,41,9,280,0,53298,1
2,30305,30260,32487,61696,27151,-4616,-641,108,276,37,117,233,493,-119,1,0,41,9,320,0,53298,1
2,30300,30265,32486,61697,27162,-4736,-643,-2,140,93,-50,228,506,-116,1,0,41,9,360,0,53298,1
2,30304,30186,32483,61698,27173,-4631,-690,96,40,0,-204,220,496,-106,1,0,41,9,400,0,53298,1
2,30313,29983,32484,61699,27184,-4603,-719,51,-143,0,-180,233,503,-123,1,0,41,9,440,0,53298,1
2,30304,30016,32485,61700,27195,-4641,-712,52,-3,46,-74,231,501,-113,1,0,41,9,480,0,53298,1
2,30225,29978,32475,61701,27206,-4656,-678,37,216,61,-14,227,495,-121,1,0,41,9,520,0,53298,1
2,30225,29953,32470,61702,27216,-4615,-669,70,128,38,0,231,497,-119,1,0,41,9,560,0,53298,1
2,30198,29946,32468,61703,27227,-4639,-703,47,-20,29,12,230,496,-120,1,0,41,9,600,0,53298,1
2,30194,29935,32470,61704,27238,-4643,-701,35,25,-11,-2,240,500,-122,1,0,41,9,640,0,53298,1
2,30162,29938,32469,61705,27248,-4635,-689,57,57,-45,-6,234,492,-128,1,0,41,9,680,0,53298,1
2,30160,29939,32472,61706,27258,-4636,-704,48,-14,-49,-4,231,501,-117,1,0,41,9,720,0,53298,1
2,30104,29951,32478,61707,27268,-4638,-697,51,-27,-94,28,227,493,-121,1,0,41,9,760,0,53298,1
2,30114,29937,32475,61708,27278,-4628,-695,53,28,-136,48,235,497,-119,1,0,41,9,800,0,53298,1
2,30104,29945,32472,61709,27288,-4639,-702,72,32,-153,63,228,504,-118,1,0,41,9,840,0,53298,1
2,30097,30040,32468,61710,27298,-4640,-687,57,12,-175,71,239,495,-115,1,0,41,9,880,0,53298,1
2,30071,30281,32455,61711,27308,-4627,-687,64,22,-166,77,234,494,-110,1,0,41,9,920,0,53298,1
2,30036,30458,32453,61712,27317,-4628,-680,74,29,-128,78,232,492,-114,1,0,41,9,960,0,53298,1
1,30038,30730,32448,61713,0,-4647,-700,76,24,-114,74,232,496,-106,1,0,41,10,0,1,53298,1
2,30044,30689,32451,61714,26629,-4646,-695,69,14,-110,72,234,494,-122,1,0,41,10,40,1,53298,1
2,30035,30798,32443,61715,26640,-4636,-691,57,1,-136,89,236,504,-118,1,0,41,10,80,1,53298,1
2,30039,30753,32444,61716,26651,-4659,-690,98,7,-169,104,229,489,-117,1,0,41,10,120,1,53298,1
2,30033,31423,32432,61717,26661,-4814,-449,172,-667,-254,29,231,493,-119,1,0,41,10,160,1,53298,1
2,30055,30278,32434,61718,26670,-4851,-518,103,-2267,-535,-199,237,503,-109,1,0,41,10,200,1,53298,1
2,30084,29967,32425,61719,26680,-5072,-758,128,-1353,-745,414,228,490,-116,1,0,41,10,240,1,53298,1
2,30176,30939,32429,61720,26690,-5433,-1041,1080,-188,-1553,896,228,488,-106,1,0,41,10,280,1,53298,1
2,30169,30658,32434,61721,26701,-5470,-2708,1690,-49,-2815,-974,239,495,-115,1,0,41,10,320,1,53298,1
2,30192,30677,32444,61722,26712,-5457,-1917,801,-924,-5456,-4093,252,470,-102,1,0,41,10,360,1,53298,1
2,30325,30040,32449,61723,26723,-4912,-408,-454,-531,-6992,-5637,258,466,-110,1,0,41,10,400,1,53298,1
2,30420,30017,32430,61724,26735,-935,4716,-4721,-2144,-4124,-3646,268,458,-114,1,0,41,10,440,1,53298,1
2,30319,29980,32451,61725,26746,-1219,5046,-3734,267,5090,4983,255,469,-127,1,0,41,10,480,1,53298,1
2,30341,30285,32425,61726,26756,-2822,5974,-3876,-2293,14144,15446,220,490,-148,1,0,41,10,520,1,53298,1
2,30333,31547,32377,61727,26767,-4050,4221,-2599,-1544,21704,26984,166,516,-172,1,0,41,10,560,1,53298,1
2,30340,31211,32384,61728,26777,-5895,2982,-1446,2316,25313,32767,52,498,-238,1,0,41,10,600,1,53298,1
2,30342,29990,32404,61729,26788,-9818,2235,-577,5147,25163,32767,-17,435,-277,1,0,41,10,640,1,53298,1
2,30310,30128,32385,61730,26800,-11738,440,-1022,-174,22269,32767,-48,376,-298,1,0,41,10,680,1,53298,1
2,30242,30039,32342,61731,26811,-6825,-1993,-327,-4112,15570,26405,-41,327,-313,1,0,41,10,720,1,53298,1
2,30274,30089,32316,61732,26821,-3975,-777,645,-3286,8322,8935,-44,320,-312,1,0,41,10,760,1,53298,1
2,30305,30083,32289,61733,26831,-3212,195,-129,-767,959,-1180,-35,321,-303,1,0,41,10,800,1,53298,1
2,30345,30040,32232,61734,26842,-2287,365,-679,9,-4370,-4270,-23,329,-301,1,0,41,10,840,1,53298,1
2,30355,30030,32211,61735,26852,-1694,463,-611,-674,-5353,-3832,-21,335,-301,1,0,41,10,880,1,53298,1
2,30408,30030,32225,61736,26863,-2043,749,-835,-3882,-3673,-3640,-29,345,-283,1,0,41,10,920,1,53298,1
2,30441,30110,32229,61737,26874,-2470,1328,-1045,-3824,-2054,-4321,-23,343,-287,1,0,41,10,960,1,53298,1
1,30448,30153,32243,61738,0,-3176,1698,-925,508,-2964,-5740,-26,358,-290,1,0,41,11,0,0,53298,1
2,30460,30288,32255,61739,26183,-3962,1600,-851,2747,-4849,-7949,-37,369,-277,1,0,41,11,40,0,53298,1
2,30467,30105,32275,61740,26194,-4487,2220,-1271,945,-6880,-11276,-30,406,-282,1,0,41,11,80,0,53298,1
2,30461,30070,32266,61741,26204,-4910,1224,-565,-825,-9724,-14178,-15,433,-263,1,0,41,11,120,0,53298,1
2,30458,30120,32333,61742,26215,-5091,1781,-1570,-5028,-10168,-16485,18,454,-242,1,0,41,11,160,0,53298,1
2,30502,30049,32339,61743,26226,-4407,820,-557,-741,-10292,-17068,40,468,-212,1,0,41,11,200,0,53298,1
2,30550,29994,32375,61744,26237,-4967,-48,-383,49,-10119,-17157,81,493,-201,1,0,41,11,240,0,53298,1
2,30551,29958,32390,61745,26248,-5016,331,-576,1758,-10703,-18209,113,503,-183,1,0,41,11,280,0,53298,1
2,30560,29958,32380,61746,26260,-4228,787,-538,5150,-10807,-18811,151,501,-149,1,0,41,11,320,0,53298,1
2,30540,29937,32340,61747,26271,-3685,797,-754,4420,-9806,-17964,192,502,-128,1,0,41,11,360,0,53298,1
2,30578,31216,32478,61748,26281,772,-4684,-1386,1848,-8778,-17359,217,501,-123,1,0,41,11,400,0,53298,1
2,30219,31256,32544,61749,26291,-8879,14163,-2787,-860,3921,-3482,215,505,-123,1,0,41,11,440,0,53298,1
2,29588,31212,32486,61750,26302,-4067,-2202,-684,4815,1091,-1391,219,505,-121,1,0,41,11,480,0,53298,1
2,29668,31234,32460,61751,26313,-3822,-1435,1460,-836,979,-1381,230,502,-126,1,0,41,11,520,0,53298,1
2,29749,31242,32479,61752,26323,-4297,-675,-25,431,614,-503,223,501,-113,1,0,41,11,560,0,53298,1
2,29780,31240,32506,61753,26334,-5188,-572,-575,-200,695,300,226,504,-124,1,0,41,11,600,0,53298,1
2,29835,31233,32497,61754,26345,-4762,-550,-24,461,35,66,226,506,-126,1,0,41,11,640,0,53298,1
2,29799,31232,32487,61755,26355,-4424,-744,-33,195,-212,-75,223,513,-133,1,0,41,11,680,0,53298,1
2,29779,31230,32498,61756,26366,-4627,-622,-45,13,-139,178,222,508,-122,1,0,41,11,720,0,53298,1
2,29768,31225,32492,61757,26376,-4677,-595,-48,60,-73,174,222,506,-126,1,0,41,11,760,0,53298,1
2,29703,31223,32488,61758,26387,-4649,-662,-68,108,-3,25,226,506,-122,1,0,41,11,800,0,53298,1
2,29867,31217,32481,61759,26398,-4608,-622,-26,56,62,-19,213,509,-131,1,0,41,11,840,0,53298,1
2,29916,31220,32492,61760,26408,-4632,-640,-64,-130,187,-43,229,497,-129,1,0,41,11,880,0,53298,1
2,29905,31220,32491,61761,26419,-4668,-643,-104,-74,184,-57,223,511,-133,1,0,41,11,920,0,53298,1
2,29885,31220,32491,61762,26430,-4625,-635,-73,53,78,-80,217,507,-123,1,0,41,11,960,0,53298,1
1,29851,31216,32494,61763,0,-4619,-651,-58,-55,63,-84,228,502,-124,1,0,41,12,0,0,53298,1
2,29858,31217,32490,61764,25734,-4645,-666,-89,-52,97,-27,225,507,-125,1,0,41,12,40,0,53298,1
2,29836,31216,32491,61765,25744,-4634,-656,-81,47,111,16,231,503,-127,1,0,41,12,80,0,53298,1
2,29901,31217,32497,61766,25755,-4623,-639,-54,29,150,-6,223,501,-123,1,0,41,12,120,0,53298,1
2,29861,31218,32494,61767,25764,-4642,-656,-107,-18,208,-38,230,504,-126,1,0,41,12,160,0,53298,1
2,29859,31212,32498,61768,25775,-4636,-643,-106,12,181,-42,228,502,-132,1,0,41,12,200,0,53298,1
2,29850,31208,32505,61769,25785,-4636,-662,-99,1,138,-71,221,503,-123,1,0,41,12,240,0,53298,1
2,29847,31213,32505,61770,25796,-4631,-666,-97,-13,127,-106,225,503,-129,1,0,41,12,280,0,53298,1
2,29875,31211,32500,61771,25807,-4631,-657,-90,-55,123,-88,224,496,-130,1,0,41,12,320,0,53298,1
2,29880,31214,32495,61772,25817,-4627,-667,-105,-80,72,-86,222,514,-132,1,0,41,12,360,0,53298,1
2,29832,31214,32497,61773,25828,-4640,-680,-111,-83,-43,-67,224,500,-130,1,0,41,12,400,0,53298,1
2,29809,31214,32497,61774,25839,-4635,-672,-90,-48,-111,-42,221,505,-123,1,0,41,12,440,0,53298,1
2,29802,31215,32503,61775,25849,-4642,-675,-92,-46,-139,17,226,508,-130,1,0,41,12,480,0,53298,1
2,29850,31212,32502,61776,25860,-4640,-673,-117,-58,-230,90,227,495,-133,1,0,41,12,520,0,53298,1
2,29877,31214,32507,61777,25871,-4628,-669,-93,-34,-371,188,218,496,-124,1,0,41,12,560,0,53298,1
2,29866,31217,32506,61778,25882,-4644,-659,-78,36,-476,238,223,503,-127,1,0,41,12,600,0,53298,1
2,29889,31215,32508,61779,25893,-4639,-648,-60,27,-525,218,225,499,-123,1,0,41,12,640,0,53298,1
2,29935,31213,32505,61780,25903,-4621,-630,-53,-56,-539,156,223,501,-121,1,0,41,12,680,0,53298,1
2,29949,31211,32503,61781,25913,-4623,-634,-30,-71,-517,109,219,501,-123,1,0,41,12,720,0,53298,1
2,29953,31221,32510,61782,25924,-4615,-637,-28,-37,-436,79,216,500,-124,1,0,41,12,760,0,53298,1
2,29987,31217,32512,61783,25934,-4613,-641,0,-25,-308,86,227,497,-125,1,0,41,12,800,0,53298,1
2,29985,31218,32508,61784,25944,-4637,-646,-2,-4,-144,98,226,502,-116,1,0,41,12,840,0,53298,1
2,29964,31218,32505,61785,25955,-4641,-645,-26,9,22,63,229,503,-127,1,0,41,12,880,0,53298,1
2,29977,31215,32512,61786,25966,-4625,-628,-17,-12,134,16,221,499,-123,1,0,41,12,920,0,53298,1
2,29965,31218,32508,61787,25976,-4647,-640,-42,-31,185,-27,216,500,-120,1,0,41,12,960,0,53298,1
1,29946,31218,32507,61788,0,-4630,-645,-52,-55,195,-68,224,502,-124,1,0,41,13,0,1,53298,1
2,29896,31219,32509,61789,25287,-4627,-643,-54,-40,163,-88,226,498,-120,1,0,41,13,40,1,53298,1
2,29898,31222,32510,61790,25298,-4646,-663,-50,-41,87,-56,232,508,-126,1,0,41,13,80,1,53298,1
2,29880,31222,32513,61791,25308,-4633,-657,-52,-12,1,9,235,503,-119,1,0,41,13,120,1,53298,1
2,29915,31221,32515,61792,25318,-4620,-635,-42,43,-54,74,220,510,-112,1,0,41,13,160,1,53298,1
2,29896,31223,32514,61793,25329,-4641,-657,-42,25,-51,93,222,496,-124,1,0,41,13,200,1,53298,1
2,29876,31225,32511,61794,25340,-4630,-630,-43,-7,-59,83,235,511,-121,1,0,41,13,240,1,53298,1
2,29819,31224,32512,61795,25351,-4632,-649,-39,-1,-64,50,219,499,-127,1,0,41,13,280,1,53298,1
2,29874,31225,32519,61796,25361,-4636,-647,-24,5,-13,35,216,508,-116,1,0,41,13,320,1,53298,1
2,29839,31223,32514,61797,25372,-4632,-637,-27,-13,59,-19,227,503,-119,1,0,41,13,360,1,53298,1
2,29815,31229,32520,61798,25382,-4630,-645,-52,-39,113,-53,216,498,-108,1,0,41,13,400,1,53298,1
2,29815,31230,32517,61799,25393,-4629,-646,-49,-36,130,-28,231,505,-123,1,0,41,13,440,1,53298,1
2,29788,31230,32521,61800,25403,-4647,-657,-69,-19,96,-28,220,508,-120,1,0,41,13,480,1,53298,1
2,29807,31226,32515,61801,25414,-4631,-642,-61,-22,63,-21,225,503,-125,1,0,41,13,520,1,53298,1
2,29777,31227,32512,61802,25425,-4632,-651,-60,-34,18,-9,229,497,-131,1,0,41,13,560,1,53298,1
2,29774,31230,32512,61803,25436,-4635,-659,-62,-21,-33,19,234,502,-118,1,0,41,13,600,1,53298,1
2,29773,31228,32516,61804,25447,-4625,-647,-33,5,-60,35,221,503,-127,1,0,41,13,640,1,53298,1
2,29779,31220,32507,61805,25458,-4641,-660,-54,-4,-62,60,231,497,-119,1,0,41,13,680,1,53298,1
2,29769,31218,32506,61806,25469,-4639,-648,-35,7,-64,67,221,505,-125,1,0,41,13,720,1,53298,1
2,29749,31219,32502,61807,25481,-4641,-652,-42,1,-66,48,225,499,-127,1,0,41,13,760,1,53298,1
2,29760,31212,32501,61808,25493,-4635,-646,-53,5,-54,47,221,507,-133,1,0,41,13,800,1,53298,1
2,29780,31214,32502,61809,25504,-4637,-649,-34,8,-64,70,225,501,-121,1,0,41,13,840,1,53298,1
2,29778,31214,32505,61810,25514,-4634,-641,-44,24,-58,72,221,499,-125,1,0,41,13,880,1,53298,1
2,29773,31209,32502,61811,25525,-4638,-639,-47,10,-42,58,223,499,-115,1,0,41,13,920,1,53298,1
2,29789,31210,32503,61812,25536,-4632,-650,-37,6,-18,36,223,517,-121,1,0,41,13,960,1,53298,1
1,29800,31209,32505,61813,0,-4633,-639,-38,-13,8,2,216,506,-122,1,0,41,14,0,1,53298,1
2,29809,31212,32506,61814,24840,-4624,-639,-38,-21,54,-22,223,493,-121,1,0,41,14,40,1,53298,1
2,29805,31210,32502,61815,24851,-4645,-644,-46,-7,109,-29,223,503,-129,1,0,41,14,80,1,53298,1
2,29831,31209,32506,61816,24863,-4636,-635,-55,-41,160,-89,226,502,-116,1,0,41,14,120,1,53298,1
2,29854,31207,32506,61817,24874,-4639,-658,-49,-69,175,-148,227,511,-129,1,0,41,14,160,1,53298,1
2,29872,31175,32506,61818,24884,-4638,-678,-44,-85,145,-128,214,502,-128,1,0,41,14,200,1,53298,1
2,29857,31190,32505,61819,24893,-4632,-678,-58,-22,125,-48,229,503,-117,1,0,41,14,240,1,53298,1
2,29835,31180,32508,61820,24904,-4632,-654,-62,38,102,17,225,503,-123,1,0,41,14,280,1,53298,1
2,29856,31185,32507,61821,24913,-4624,-655,-58,74,121,80,224,502,-122,1,0,41,14,320,1,53298,1
2,29810,31194,32503,61822,24923,-4625,-631,-58,74,172,92,228,502,-124,1,0,41,14,360,1,53298,1
2,29825,31195,32506,61823,24933,-4629,-631,-80,43,233,-13,224,500,-126,1,0,41,14,400,1,53298,1
2,29812,31202,32507,61824,24944,-4641,-643,-74,-56,302,-180,213,501,-121,1,0,41,14,440,1,53298,1
2,29810,31200,32507,61825,24954,-4635,-670,-101,-162,359,-320,220,502,-124,1,0,41,14,480,1,53298,1
2,29805,31199,32502,61826,24965,-4636,-686,-110,-142,337,-341,227,497,-131,1,0,41,14,520,1,53298,1
2,29830,31201,32505,61827,24975,-4641,-721,-132,-134,222,-242,232,510,-126,1,0,41,14,560,1,53298,1
2,29831,31202,32502,61828,24985,-4653,-708,-128,-39,8,-15,226,502,-130,1,0,41,14,600,1,53298,1
2,29816,31198,32497,61829,24996,-4652,-660,-94,22,-284,244,219,509,-127,1,0,41,14,640,1,53298,1
2,29828,31195,32500,61830,25006,-4711,-613,-202,-1038,-587,260,235,509,-129,1,0,41,14,680,1,53298,1
2,29825,31173,32497,61831,25016,-4577,-789,-59,-1340,-844,175,230,504,-124,1,0,41,14,720,1,53298,1
2,29833,31160,32498,61832,25026,-4576,-700,-75,-425,-868,321,226,492,-132,1,0,41,14,760,1,53298,1
2,29840,31160,32500,61833,25036,-4630,-646,-7,337,-747,353,232,496,-126,1,0,41,14,800,1,53298,1
2,29855,31161,32504,61834,25045,-4620,-610,30,536,-509,303,228,498,-116,1,0,41,14,840,1,53298,1
2,29852,31161,32496,61835,25053,-4754,-585,53,91,-280,147,222,500,-112,1,0,41,14,880,1,53298,1
2,29851,31154,32492,61836,25063,-5076,-898,-330,-2089,-316,182,231,505,-127,1,0,41,14,920,1,53298,1
2,29789,31176,32473,61837,25073,-5858,-933,-714,-276,-807,1275,221,507,-113,1,0,41,14,960,1,53298,1
1,29986,31238,32462,61838,0,-6244,-1046,-143,3936,-1402,829,218,504,-122,1,0,41,15,0,0,53298,1
2,30313,30574,32491,61839,24392,-3261,6172,-4758,-217,1273,529,221,513,-137,1,0,41,15,40,0,53298,1
2,31206,30385,32447,61840,24402,638,13635,-6713,-9506,11924,15065,181,527,-169,1,0,41,15,80,0,53298,1
2,31240,29982,32371,61841,24413,-4989,10159,-5297,-12109,28217,32767,69,513,-227,1,0,41,15,120,0,53298,1
2,31129,30262,32398,61842,24424,-20699,1105,-3108,-11443,32767,32767,-30,418,-270,1,0,41,15,160,0,53298,1
2,31084,30529,32412,61843,24436,-14521,-2170,-109,8967,25030,32767,-52,328,-310,1,0,41,15,200,0,53298,1
2,31051,29992,32412,61844,24447,-4706,-986,799,13167,17721,28868,-36,296,-322,1,0,41,15,240,0,53298,1
2,31019,30163,32380,61845,24458,-4033,698,2664,3192,9544,7517,-10,290,-324,1,0,41,15,280,0,53298,1
2,31029,30208,32349,61846,24468,-2708,-1351,354,-13996,-413,71,-17,301,-297,1,0,41,15,320,0,53298,1
2,31068,30222,32320,61847,24478,-1555,-2452,-699,-11722,-2906,-2891,-8,304,-298,1,0,41,15,360,0,53298,1
2,31072,30239,32347,61848,24489,-1398,-861,154,175,-2749,-5027,7,307,-297,1,0,41,15,400,0,53298,1
2,31046,30212,32350,61849,24499,-1521,188,50,3727,-4745,-6761,-1,317,-299,1,0,41,15,440,0,53298,1
2,31052,30202,32345,61850,24510,-2273,430,-733,-522,-6878,-9503,-3,323,-299,1,0,41,15,480,0,53298,1
2,31061,30219,32346,61851,24520,-3580,301,-983,-844,-7832,-13702,-16,352,-294,1,0,41,15,520,0,53298,1
2,31075,30209,32353,61852,24530,-4615,1272,-1022,2865,-9842,-18640,-5,373,-295,1,0,41,15,560,0,53298,1
2,31095,30209,32391,61853,24539,-4877,2135,-1079,3373,-12164,-21647,13,413,-279,1,0,41,15,600,0,53298,1
2,31110,30198,32396,61854,24550,-4996,2448,-1500,1602,-13203,-22307,22,448,-274,1,0,41,15,640,0,53298,1
2,31124,30178,32407,61855,24562,-5014,2385,-1378,828,-12942,-21420,53,477,-243,1,0,41,15,680,0,53298,1
2,31131,30207,32429,61856,24573,-5315,2077,-1376,205,-12279,-19724,82,504,-216,1,0,41,15,720,0,53298,1
2,31139,30260,32442,61857,24584,-4908,1575,-1246,617,-11186,-18252,125,519,-187,1,0,41,15,760,0,53298,1
2,31118,30024,32425,61858,24596,-4444,795,-1007,782,-9484,-16615,160,520,-164,1,0,41,15,800,0,53298,1
2,31119,30104,32406,61859,24607,-4093,642,-1053,824,-8070,-15451,191,529,-129,1,0,41,15,840,0,53298,1
2,31113,30026,32429,61860,24618,-8065,23327,-11158,-1003,-4329,-9354,194,520,-128,1,0,41,15,880,0,53298,1
2,31053,30040,32366,61861,24629,-862,1015,-2255,13209,384,34,194,530,-136,1,0,41,15,920,0,53298,1
2,30957,30008,32381,61862,24639,-4094,-2500,1005,-653,2567,-111,188,526,-138,1,0,41,15,960,0,53298,1
1,30946,30021,32422,61863,0,-4155,4,507,-1821,647,-521,194,526,-134,1,0,41,16,0,1,53298,1
2,31027,30007,32422,61864,23946,-5203,-310,-882,-1762,306,419,187,527,-125,1,0,41,16,40,1,53298,1
2,30983,29999,32416,61865,23957,-4685,-354,-263,1110,292,374,187,519,-137,1,0,41,16,80,1,53298,1
2,30959,29978,32405,61866,23967,-4511,-283,-215,693,129,261,193,527,-125,1,0,41,16,120,1,53298,1
2,30949,29978,32408,61867,23977,-4543,-443,-411,341,-109,244,179,535,-137,1,0,41,16,160,1,53298,1
2,30906,29980,32405,61868,23988,-4665,-190,-143,902,-527,385,186,526,-136,1,0,41,16,200,1,53298,1
2,30886,29993,32403,61869,23998,-4631,-282,-280,794,-618,318,182,530,-128,1,0,41,16,240,1,53298,1
2,30930,29996,32411,61870,24009,-4587,-356,-283,202,-799,289,191,529,-135,1,0,41,16,280,1,53298,1
2,30878,29994,32410,61871,24019,-4587,-251,-144,8,-960,329,181,521,-129,1,0,41,16,320,1,53298,1
2,30880,29985,32411,61872,24030,-4624,-285,-221,-215,-857,325,180,526,-128,1,0,41,16,360,1,53298,1
2,30889,29991,32413,61873,24041,-4614,-264,-168,-146,-936,350,177,523,-127,1,0,41,16,400,1,53298,1
2,30859,29997,32410,61874,24051,-4584,-253,-101,-155,-1015,380,185,521,-131,1,0,41,16,440,1,53298,1
2,30862,29997,32413,61875,24061,-4596,-252,-118,-239,-952,435,189,519,-121,1,0,41,16,480,1,53298,1
2,30864,29998,32410,61876,24072,-4595,-220,-107,-253,-979,492,185,521,-117,1,0,41,16,520,1,53298,1
2,30854,29995,32411,61877,24083,-4606,-223,-86,-396,-1122,506,178,520,-114,1,0,41,16,560,1,53298,1
2,30847,30009,32412,61878,24094,-4604,-246,-43,-423,-1226,529,180,512,-120,1,0,41,16,600,1,53298,1
2,30805,30025,32408,61879,24105,-4600,-217,17,-269,-1197,528,174,516,-120,1,0,41,16,640,1,53298,1
2,30805,30045,32404,61880,24116,-4586,-175,35,-145,-1012,479,184,514,-112,1,0,41,16,680,1,53298,1
2,30789,30040,32410,61881,24126,-4578,-164,67,-163,-764,356,182,530,-118,1,0,41,16,720,1,53298,1
2,30800,30049,32408,61882,24137,-4584,-163,67,-180,-481,220,175,515,-115,1,0,41,16,760,1,53298,1
2,30793,30062,32414,61883,24148,-4590,-169,65,-58,-205,52,176,512,-116,1,0,41,16,800,1,53298,1
2,30757,30067,32407,61884,24160,-4572,-180,70,-19,85,-84,169,517,-105,1,0,41,16,840,1,53298,1
2,30778,30085,32409,61885,24171,-4586,-189,48,23,354,-204,178,524,-108,1,0,41,16,880,1,53298,1
2,30857,30082,32411,61886,24182,-4578,-188,37,118,588,-316,185,515,-107,1,0,41,16,920,1,53298,1
2,30800,30120,32415,61887,24192,-4604,-213,1,163,757,-374,177,527,-115,1,0,41,16,960,1,53298,1
1,30793,30083,32410,61888,0,-4593,-224,-35,238,846,-365,185,517,-121,1,0,41,17,0,1,53298,1
2,30756,30116,32405,61889,23499,-4607,-232,-26,331,903,-305,175,529,-115,1,0,41,17,40,1,53298,1
2,30762,30116,32412,61890,23509,-4601,-221,-65,430,940,-300,181,521,-117,1,0,41,17,80,1,53298,1
2,30732,30064,32413,61891,23520,-4601,-227,-80,439,976,-341,186,518,-122,1,0,41,17,120,1,53298,1
2,30789,29987,32405,61892,23531,-4603,-229,-86,416,972,-388,182,522,-120,1,0,41,17,160,1,53298,1
2,30734,30000,32405,61893,23541,-4614,-268,-142,425,944,-366,174,516,-126,1,0,41,17,200,1,53298,1
2,30720,30008,32402,61894,23551,-4614,-278,-149,445,943,-345,180,524,-126,1,0,41,17,240,1,53298,1
2,30714,29985,32403,61895,23562,-4611,-274,-191,476,931,-307,184,518,-134,1,0,41,17,280,1,53298,1
2,30715,29994,32405,61896,23573,-4619,-286,-203,406,843,-277,180,526,-134,1,0,41,17,320,1,53298,1
2,30756,29989,32405,61897,23584,-4606,-295,-240,384,707,-264,183,525,-123,1,0,41,17,360,1,53298,1
2,30735,29989,32404,61898,23595,-4602,-291,-260,244,527,-227,184,528,-130,1,0,41,17,400,1,53298,1
2,30686,30016,32397,61899,23606,-4609,-305,-270,62,309,-154,186,522,-138,1,0,41,17,440,1,53298,1
2,30725,30113,32412,61900,23617,-4605,-311,-252,-60,35,-18,184,518,-132,1,0,41,17,480,1,53298,1
2,30703,30273,32420,61901,23627,-4618,-303,-247,-76,-232,147,189,525,-139,1,0,41,17,520,1,53298,1
2,30694,30281,32423,61902,23637,-4607,-296,-221,-54,-424,265,177,521,-123,1,0,41,17,560,1,53298,1
2,30713,30322,32421,61903,23647,-4611,-280,-186,-83,-517,312,184,532,-134,1,0,41,17,600,1,53298,1
2,30701,30314,32414,61904,23657,-4607,-274,-193,-160,-486,309,182,532,-134,1,0,41,17,640,1,53298,1
2,30701,30316,32415,61905,23667,-4599,-255,-191,-157,-429,205,183,521,-135,1,0,41,17,680,1,53298,1
2,30708,30329,32414,61906,23677,-4611,-256,-169,-151,-365,70,182,514,-132,1,0,41,17,720,1,53298,1
2,30692,30335,32418,61907,23688,-4598,-256,-152,-168,-258,1,177,529,-111,1,0,41,17,760,1,53298,1
2,30676,30321,32413,61908,23698,-4597,-273,-167,-167,-153,-12,188,518,-128,1,0,41,17,800,1,53298,1
2,30666,30320,32405,61909,23708,-4600,-270,-155,-82,-94,-4,190,526,-132,1,0,41,17,840,1,53298,1
2,30656,30324,32402,61910,23717,-4603,-269,-167,-24,-19,-8,178,530,-126,1,0,41,17,880,1,53298,1
2,30631,30342,32400,61911,23728,-4609,-277,-165,-44,23,-7,180,516,-122,1,0,41,17,920,1,53298,1
2,30630,30348,32394,61912,23739,-4607,-276,-196,-59,-19,22,186,524,-134,1,0,41,17,960,1,53298,1
1,30622,30345,32377,61913,0,-4583,-259,-169,-51,-108,62,183,523,-127,1,0,41,18,0,1,53298,1
