sensorStatus,cap1,cap2,cap3,counter,microseconds_since_last_tick,accX,accY,accZ,gyroX,gyroY,gyroZ,magnetX,magnetY,magnetZ,day,hour,min,sec,msec,sync,battery_fuel,crc_good
1,31154,30420,31745,31514,36169,-4338,-387,-1392,8,-4,38,192,610,-232,1,0,21,2,40,0,53298,1
2,31155,30423,31744,31515,36185,-4326,-381,-1399,2,-12,20,190,616,-238,1,0,21,2,80,0,53298,1
2,31159,30422,31743,31516,36203,-4328,-372,-1379,8,-14,12,188,610,-246,1,0,21,2,120,0,53298,1
2,31152,30420,31744,31517,36219,-4331,-378,-1388,14,-1,11,183,613,-235,1,0,21,2,160,0,53298,1
2,31151,30421,31742,31518,36236,-4341,-382,-1383,20,3,15,195,615,-233,1,0,21,2,200,0,53298,1
2,31159,30424,31744,31519,36252,-4355,-396,-1392,20,-5,20,189,609,-237,1,0,21,2,240,0,53298,1
2,31154,30418,31744,31520,36269,-4326,-375,-1408,8,-6,21,192,608,-236,1,0,21,2,280,0,53298,1
2,31151,30410,31742,31521,36285,-4345,-395,-1390,1,-16,28,192,614,-226,1,0,21,2,320,0,53298,1
2,31155,30411,31745,31522,36302,-4338,-387,-1396,6,-6,17,189,621,-233,1,0,21,2,360,0,53298,1
2,31155,30417,31742,31523,36319,-4339,-370,-1384,16,2,20,181,611,-237,1,0,21,2,400,0,53298,1
2,31152,30405,31742,31524,36336,-4335,-387,-1370,1,-2,8,192,610,-244,1,0,21,2,440,0,53298,1
2,31151,30403,31738,31525,36353,-4339,-387,-1393,5,11,11,190,614,-238,1,0,21,2,480,0,53298,1
2,31151,30401,31745,31526,36369,-4336,-377,-1372,27,9,15,185,607,-249,1,0,21,2,520,0,53298,1
2,31153,30399,31743,31527,36387,-4334,-389,-1402,11,-7,21,181,621,-229,1,0,21,2,560,0,53298,1
2,31154,30408,31742,31528,36404,-4335,-391,-1394,1,-3,25,189,607,-235,1,0,21,2,600,0,53298,1
2,31162,30405,31743,31529,36421,-4328,-380,-1400,11,-13,47,182,624,-228,1,0,21,2,640,0,53298,1
2,31155,30398,31741,31530,36438,-4325,-374,-1381,0,-28,60,189,615,-233,1,0,21,2,680,0,53298,1
2,31153,30410,31740,31531,36454,-4342,-388,-1402,-10,-20,49,190,614,-238,1,0,21,2,720,0,53298,1
2,31155,30403,31742,31532,36470,-4336,-373,-1393,1,-16,30,182,616,-234,1,0,21,2,760,0,53298,1
2,31150,30403,31740,31533,36487,-4341,-391,-1387,8,-8,11,190,616,-236,1,0,21,2,800,0,53298,1
2,31153,30402,31744,31534,36504,-4332,-381,-1396,-14,9,3,184,608,-244,1,0,21,2,840,0,53298,1
2,31150,30412,31744,31535,36520,-4328,-383,-1386,11,1,13,189,609,-235,1,0,21,2,880,0,53298,1
2,31154,30413,31743,31536,36537,-4334,-380,-1392,5,6,28,182,610,-226,1,0,21,2,920,0,53298,1
2,31159,30409,31745,31537,36555,-4334,-382,-1385,1,-4,33,179,619,-241,1,0,21,2,960,0,53298,1
1,31150,30406,31744,31538,0,-4331,-382,-1397,7,-12,33,191,617,-233,1,0,21,3,0,1,53298,1
2,31154,30407,31743,31539,35694,-4331,-375,-1393,7,-13,27,186,612,-224,1,0,21,3,40,1,53298,1
2,31158,30406,31744,31540,35710,-4339,-379,-1381,-7,-24,17,186,606,-230,1,0,21,3,80,1,53298,1
2,31155,30410,31743,31541,35727,-4329,-387,-1387,-16,-23,23,192,602,-228,1,0,21,3,120,1,53298,1
2,31156,30406,31744,31542,35742,-4332,-379,-1392,4,-2,23,192,614,-240,1,0,21,3,160,1,53298,1
2,31160,30405,31743,31543,35759,-4333,-378,-1378,22,10,19,191,603,-237,1,0,21,3,200,1,53298,1
2,31154,30410,31743,31544,35775,-4318,-373,-1397,7,11,6,190,616,-232,1,0,21,3,240,1,53298,1
2,31154,30409,31744,31545,35791,-4340,-378,-1402,21,11,4,187,609,-237,1,0,21,3,280,1,53298,1
2,31156,30408,31748,31546,35807,-4326,-376,-1396,23,-4,21,189,615,-229,1,0,21,3,320,1,53298,1
2,31161,30409,31744,31547,35822,-4317,-379,-1396,-13,-15,32,193,607,-243,1,0,21,3,360,1,53298,1
2,31161,30402,31743,31548,35837,-4337,-388,-1390,-20,-23,46,189,607,-237,1,0,21,3,400,1,53298,1
2,31151,30407,31743,31549,35853,-4341,-387,-1382,-4,-23,35,185,611,-235,1,0,21,3,440,1,53298,1
2,31154,30412,31743,31550,35869,-4344,-378,-1387,17,-11,8,183,607,-233,1,0,21,3,480,1,53298,1
2,31160,30413,31744,31551,35885,-4332,-383,-1397,7,2,6,185,611,-227,1,0,21,3,520,1,53298,1
2,31154,30410,31744,31552,35901,-4336,-379,-1404,3,11,11,192,614,-234,1,0,21,3,560,1,53298,1
2,31158,30419,31747,31553,35917,-4318,-382,-1375,14,5,29,193,607,-237,1,0,21,3,600,1,53298,1
2,31154,30420,31745,31554,35933,-4349,-389,-1395,7,11,45,189,617,-235,1,0,21,3,640,1,53298,1
2,31154,30421,31742,31555,35950,-4343,-386,-1407,20,-11,37,188,614,-230,1,0,21,3,680,1,53298,1
2,31157,30424,31740,31556,35966,-4322,-370,-1383,19,-18,21,195,619,-235,1,0,21,3,720,1,53298,1
2,31156,30423,31743,31557,35982,-4338,-379,-1395,12,-18,14,190,608,-244,1,0,21,3,760,1,53298,1
2,31159,30423,31743,31558,35999,-4341,-386,-1372,18,-11,8,194,616,-234,1,0,21,3,800,1,53298,1
2,31155,30428,31742,31559,36014,-4332,-396,-1392,6,22,14,186,608,-232,1,0,21,3,840,1,53298,1
2,31158,30426,31747,31560,36030,-4341,-385,-1399,15,28,8,186,614,-230,1,0,21,3,880,1,53298,1
2,31161,30431,31746,31561,36047,-4338,-382,-1402,28,32,-1,189,615,-243,1,0,21,3,920,1,53298,1
2,31161,30431,31748,31562,36063,-4335,-390,-1401,-15,22,-11,195,617,-237,1,0,21,3,960,1,53298,1
1,31155,30430,31746,31563,0,-4334,-386,-1400,-10,-12,-14,185,611,-241,1,0,21,4,0,1,53298,1
2,31161,30432,31745,31564,35219,-4350,-394,-1388,0,-35,10,191,599,-233,1,0,21,4,40,1,53298,1
2,31159,30425,31748,31565,35236,-4319,-373,-1383,-50,-38,23,193,611,-233,1,0,21,4,80,1,53298,1
2,31155,30428,31743,31566,35252,-4326,-377,-1387,-48,-8,50,187,613,-237,1,0,21,4,120,1,53298,1
2,31159,30432,31745,31567,35268,-4338,-391,-1395,17,-16,40,188,602,-234,1,0,21,4,160,1,53298,1
2,31159,30429,31746,31568,35284,-4343,-372,-1396,1,-21,35,188,616,-234,1,0,21,4,200,1,53298,1
2,31158,30432,31745,31569,35300,-4334,-374,-1404,-35,-29,37,193,617,-237,1,0,21,4,240,1,53298,1
2,31161,30426,31743,31570,35316,-4337,-381,-1385,-23,-39,48,182,616,-230,1,0,21,4,280,1,53298,1
2,31157,30431,31748,31571,35332,-4340,-396,-1399,-44,-47,65,195,615,-237,1,0,21,4,320,1,53298,1
2,31161,30418,31746,31572,35348,-4336,-378,-1390,-57,-50,82,179,621,-235,1,0,21,4,360,1,53298,1
2,31156,30420,31748,31573,35365,-4379,-341,-1395,-203,-72,88,184,616,-228,1,0,21,4,400,1,53298,1
2,31160,30420,31745,31574,35382,-4352,-371,-1393,-388,-244,162,192,606,-246,1,0,21,4,440,1,53298,1
2,31153,30415,31738,31575,35397,-4302,-372,-1418,-727,-373,257,183,607,-239,1,0,21,4,480,1,53298,1
2,31151,30422,31741,31576,35414,-4374,-342,-1385,-1013,-409,365,184,616,-236,1,0,21,4,520,1,53298,1
2,31157,30425,31742,31577,35430,-4353,-313,-1352,-903,-557,497,190,612,-238,1,0,21,4,560,1,53298,1
2,31161,30413,31738,31578,35447,-4433,-228,-1415,-1257,-500,400,181,613,-227,1,0,21,4,600,1,53298,1
2,31143,30410,31735,31579,35463,-4469,-137,-1270,-1910,-385,284,181,613,-237,1,0,21,4,640,1,53298,1
2,31105,34074,31702,31580,35480,-4417,-284,-1066,-2041,-623,462,181,605,-223,1,0,21,4,680,1,53298,1
2,31096,33904,31686,31581,35497,-4306,-331,-1291,-2036,-592,397,182,602,-228,1,0,21,4,720,1,53298,1
2,31099,33698,31694,31582,35514,-4241,-283,-1335,-1369,-508,368,181,603,-227,1,0,21,4,760,1,53298,1
2,31103,33995,31690,31583,35531,-4310,-246,-1309,-663,-336,390,178,602,-210,1,0,21,4,800,1,53298,1
2,31117,33554,31678,31584,35549,-4382,-270,-1314,-535,-178,361,192,596,-226,1,0,21,4,840,1,53298,1
2,31118,33843,31702,31585,35567,-4397,-206,-1296,-337,-121,261,177,597,-231,1,0,21,4,880,1,53298,1
2,31107,33776,31685,31586,35584,-4370,-188,-1278,-543,-149,108,179,599,-223,1,0,21,4,920,1,53298,1
2,31093,33960,31687,31587,35601,-4446,-280,-1288,-1015,-187,-79,178,598,-222,1,0,21,4,960,1,53298,1
1,31103,34029,31690,31588,0,-4416,-237,-1239,-1089,-282,-293,180,588,-212,1,0,21,5,0,1,53298,1
2,31090,33046,31678,31589,34745,-4549,-358,-1240,-1272,-297,-458,184,592,-234,1,0,21,5,40,1,53298,1
2,31112,33938,31694,31590,34762,-4840,-565,-1333,-1658,-190,-809,190,590,-230,1,0,21,5,80,1,53298,1
2,31124,33885,31708,31591,34780,-5009,-759,-1291,-599,-398,-1091,199,591,-229,1,0,21,5,120,1,53298,1
2,31120,33933,31728,31592,34798,-4966,-694,-1357,1062,-898,-1242,208,574,-224,1,0,21,5,160,1,53298,1
2,31150,32675,31728,31593,34817,-4553,-446,-1378,2644,-1133,-1992,213,581,-239,1,0,21,5,200,1,53298,1
2,31174,34427,31758,31594,34837,-4047,414,-1624,2464,-638,-2339,213,579,-241,1,0,21,5,240,1,53298,1
2,31192,34615,31761,31595,34857,-2500,3635,-2398,1998,877,95,224,572,-238,1,0,21,5,280,1,53298,1
2,31200,34477,31742,31596,34877,-122,7617,-3448,1890,4015,9960,199,569,-261,1,0,21,5,320,1,53298,1
2,31318,34585,31876,31597,34897,-174,9288,-3813,3322,9668,27709,119,571,-279,1,0,21,5,360,1,53298,1
2,31743,35170,32333,31598,34917,-8064,5902,-2975,2507,16398,32767,4,526,-298,1,0,21,5,400,1,53298,1
2,31643,34986,32273,31599,34937,-13997,2612,-2605,-2855,17545,32767,-65,425,-323,1,0,21,5,440,1,53298,1
2,31651,34971,32376,31600,34956,-9400,50,-1968,-11300,11662,31713,-72,334,-302,1,0,21,5,480,1,53298,1
2,31740,32145,32426,31601,34974,-3689,302,-2271,-21902,6714,11843,-49,311,-279,1,0,21,5,520,1,53298,1
2,31923,33483,32482,31602,34990,-2247,-337,-1462,-19071,5719,9780,-50,296,-252,1,0,21,5,560,1,53298,1
2,32025,34647,32374,31603,35007,-3152,-2533,-743,-2855,3446,12572,-49,277,-245,1,0,21,5,600,1,53298,1
2,31627,34023,32213,31604,35023,-2400,-2475,-758,7875,1103,7588,-41,277,-265,1,0,21,5,640,1,53298,1
2,31251,32044,31836,31605,35038,-2276,-947,-446,11951,-414,7,-45,275,-273,1,0,21,5,680,1,53298,1
2,31279,34115,31931,31606,35055,-2153,1166,4,8903,-2969,-6711,-50,292,-294,1,0,21,5,720,1,53298,1
2,31224,34068,31893,31607,35071,-2735,747,-1657,803,-4560,-11698,-51,311,-295,1,0,21,5,760,1,53298,1
2,31289,33930,32005,31608,35087,-4292,902,-2504,-104,-4836,-17106,-52,332,-306,1,0,21,5,800,1,53298,1
2,31519,33422,32157,31609,35102,-4276,3021,-2794,4902,-6037,-22011,-64,376,-306,1,0,21,5,840,1,53298,1
2,31619,34802,32249,31610,35118,-4035,3263,-2654,6659,-6228,-21879,-35,417,-305,1,0,21,5,880,1,53298,1
2,31636,34906,32264,31611,35135,-4125,2764,-2290,5910,-6180,-20152,-17,457,-309,1,0,21,5,920,1,53298,1
2,31652,34936,32254,31612,35152,-3892,3073,-2010,3873,-6195,-18428,5,489,-317,1,0,21,5,960,1,53298,1
1,31693,35005,32267,31613,0,-3897,2671,-1761,898,-5565,-15833,40,530,-302,1,0,21,6,0,0,53298,1
2,31717,34996,32248,31614,34271,-3716,2388,-1759,-1277,-4905,-13158,65,545,-289,1,0,21,6,40,0,53298,1
2,31742,34992,32242,31615,34289,-4034,1522,-1499,-1273,-3881,-10220,90,558,-280,1,0,21,6,80,0,53298,1
2,31591,34645,32074,31616,34307,-4655,729,-1396,-233,-3665,-8799,114,568,-274,1,0,21,6,120,0,53298,1
2,31469,34460,32006,31617,34324,-4439,794,-1522,391,-3894,-8432,134,578,-266,1,0,21,6,160,0,53298,1
2,31444,34376,31986,31618,34342,-4176,455,-1441,1005,-3538,-7606,166,578,-268,1,0,21,6,200,0,53298,1
2,31417,34367,31971,31619,34359,-4122,539,-1480,1044,-3208,-6637,175,581,-245,1,0,21,6,240,0,53298,1
2,31389,34318,31957,31620,34377,-3971,817,-1575,641,-2549,-5094,190,578,-246,1,0,21,6,280,0,53298,1
2,31369,34330,31948,31621,34395,-3874,622,-1550,1221,-1900,-2860,199,565,-247,1,0,21,6,320,0,53298,1
2,31345,34297,31939,31622,34413,-3853,324,-1314,1994,-1536,-1082,197,575,-243,1,0,21,6,360,0,53298,1
2,31335,34276,31937,31623,34431,-4132,119,-1359,1300,-1222,-159,200,582,-224,1,0,21,6,400,0,53298,1
2,31561,34508,32106,31624,34448,-4310,27,-1214,1402,-1028,130,201,579,-227,1,0,21,6,440,0,53298,1
2,31417,30699,32006,31625,34464,-4642,-427,-1073,549,-1133,59,201,575,-229,1,0,21,6,480,0,53298,1
2,31452,34520,32017,31626,34481,-4766,-789,-1122,-1533,-1076,-686,195,581,-215,1,0,21,6,520,0,53298,1
2,31281,33751,31901,31627,34498,-4722,-1009,-1257,-1324,-877,-1770,194,578,-214,1,0,21,6,560,0,53298,1
2,31304,33410,31896,31628,34514,-4560,-471,-1302,-533,-296,-1873,202,580,-228,1,0,21,6,600,0,53298,1
2,31343,34280,31982,31629,34529,-4545,-482,-861,2589,-155,-1602,213,577,-221,1,0,21,6,640,0,53298,1
2,31312,31279,31925,31630,34545,-4362,-373,-1032,799,-92,-1869,223,577,-221,1,0,21,6,680,0,53298,1
2,31308,32014,31914,31631,34562,-4436,-448,-949,75,192,-1790,230,580,-230,1,0,21,6,720,0,53298,1
2,31299,33712,31908,31632,34578,-4451,-474,-931,-364,-96,-1981,227,579,-231,1,0,21,6,760,0,53298,1
2,31292,33855,31911,31633,34594,-4419,-362,-938,28,-374,-1874,236,570,-222,1,0,21,6,800,0,53298,1
2,31281,34191,31911,31634,34611,-4398,-322,-914,541,-771,-1457,241,579,-221,1,0,21,6,840,0,53298,1
2,31282,34234,31915,31635,34628,-4382,-317,-989,342,-940,-1012,244,572,-220,1,0,21,6,880,0,53298,1
2,31266,34180,31909,31636,34646,-4430,-287,-1032,108,-818,-573,249,577,-213,1,0,21,6,920,0,53298,1
2,31257,34155,31905,31637,34663,-4429,-332,-1113,-481,-528,-145,254,576,-210,1,0,21,6,960,0,53298,1
1,31253,34025,31897,31638,0,-4503,-542,-1195,-849,-175,270,244,576,-230,1,0,21,7,0,1,53298,1
2,31251,34030,31896,31639,33797,-4504,-564,-1101,-30,82,627,250,574,-216,1,0,21,7,40,1,53298,1
2,31252,34075,31905,31640,33815,-4394,-428,-1006,954,80,880,239,575,-209,1,0,21,7,80,1,53298,1
2,31251,33999,31896,31641,33831,-4364,-439,-990,410,208,983,232,574,-216,1,0,21,7,120,1,53298,1
2,31245,33961,31891,31642,33848,-4340,-374,-1030,-400,469,1101,224,574,-212,1,0,21,7,160,1,53298,1
2,31250,34008,31889,31643,33865,-4351,-234,-1023,-590,613,1417,228,580,-216,1,0,21,7,200,1,53298,1
2,31253,33928,31888,31644,33882,-4399,-201,-1094,-853,784,1900,222,572,-208,1,0,21,7,240,1,53298,1
2,31252,33875,31888,31645,33899,-4444,-154,-1112,-770,906,2439,207,585,-207,1,0,21,7,280,1,53298,1
2,31250,33826,31882,31646,33915,-4397,-144,-1146,-690,1020,2885,205,585,-221,1,0,21,7,320,1,53298,1
2,31249,33874,31879,31647,33932,-4476,-192,-1188,-644,1169,3244,193,575,-219,1,0,21,7,360,1,53298,1
2,31250,33798,31879,31648,33949,-4508,-257,-1230,-98,1318,3464,181,587,-217,1,0,21,7,400,1,53298,1
2,31246,33703,31877,31649,33966,-4570,-231,-1038,471,1407,3357,183,577,-219,1,0,21,7,440,1,53298,1
2,31249,33607,31868,31650,33983,-4839,-676,-1055,-1003,1461,2491,174,578,-222,1,0,21,7,480,1,53298,1
2,31253,33741,31871,31651,34000,-4788,-840,-1024,-1435,1254,1077,163,581,-225,1,0,21,7,520,1,53298,1
2,31261,33847,31870,31652,34017,-5085,-1231,-866,-1032,571,-610,170,578,-232,1,0,21,7,560,1,53298,1
2,31261,33698,31865,31653,34034,-4879,-1497,-804,-302,-336,-2985,186,574,-232,1,0,21,7,600,1,53298,1
2,31266,33613,31859,31654,34051,-4802,-1190,-687,-57,-1420,-5443,194,578,-236,1,0,21,7,640,1,53298,1
2,31265,33550,31861,31655,34069,-4671,-718,-977,-592,-1923,-7033,219,567,-233,1,0,21,7,680,1,53298,1
2,31247,34333,31866,31656,34087,-4191,-79,-1187,-227,-2114,-7434,242,572,-232,1,0,21,7,720,1,53298,1
2,31216,32836,31844,31657,34106,-3755,873,-1551,41,-1780,-6248,274,566,-228,1,0,21,7,760,1,53298,1
2,31221,34537,31861,31658,34125,-2811,3791,-2514,748,-405,-2092,266,564,-240,1,0,21,7,800,1,53298,1
2,31268,34569,31945,31659,34144,26,8377,-3035,2505,2503,8834,229,577,-235,1,0,21,7,840,1,53298,1
2,32476,35739,32821,31660,34164,-772,8381,-3251,1988,8359,27332,149,587,-251,1,0,21,7,880,1,53298,1
2,32332,31413,32794,31661,34185,-7529,5003,-2386,3713,14040,32767,19,561,-267,1,0,21,7,920,1,53298,1
2,32342,30711,32014,31662,34206,-15265,-533,-2259,2706,15202,32767,-72,472,-292,1,0,21,7,960,1,53298,1
1,31144,30599,31896,31663,0,-9087,-262,-102,-5433,7967,27690,-84,402,-294,1,0,21,8,0,0,53298,1
2,30977,33525,31747,31664,33326,-4165,-1131,-1954,-17349,3244,8051,-77,371,-277,1,0,21,8,40,0,53298,1
2,30960,34202,31724,31665,33344,-2177,-1378,-2142,-14008,3104,2470,-70,360,-252,1,0,21,8,80,0,53298,1
2,30961,30086,31732,31666,33362,-2300,-1620,-1790,1135,2923,4741,-57,351,-267,1,0,21,8,120,0,53298,1
2,30933,34070,31717,31667,33380,-3069,-539,-440,13740,2544,4927,-67,343,-297,1,0,21,8,160,0,53298,1
2,30945,31520,31729,31668,33398,-3464,415,-106,10205,990,259,-60,354,-298,1,0,21,8,200,0,53298,1
2,30955,30278,31743,31669,33416,-3559,807,-741,-228,-1134,-5977,-76,368,-306,1,0,21,8,240,0,53298,1
2,30975,30571,31762,31670,33434,-3506,1533,-1677,-3855,-3289,-10655,-60,392,-298,1,0,21,8,280,0,53298,1
2,30986,30584,31770,31671,33452,-3197,2465,-2166,-1309,-4446,-12852,-58,424,-290,1,0,21,8,320,0,53298,1
2,31010,30593,31785,31672,33470,-3757,1966,-2004,1743,-4222,-12435,-51,437,-285,1,0,21,8,360,0,53298,1
2,31027,30598,31800,31673,33487,-3948,2381,-2077,2316,-4553,-12859,-37,473,-277,1,0,21,8,400,0,53298,1
2,31047,30608,31805,31674,33505,-4052,1723,-1766,1113,-4136,-12738,-24,490,-278,1,0,21,8,440,0,53298,1
2,31074,30619,31809,31675,33522,-4162,1468,-1639,316,-4309,-12587,3,525,-275,1,0,21,8,480,0,53298,1
2,31089,30636,31804,31676,33540,-3750,1583,-1630,159,-4126,-12271,29,543,-261,1,0,21,8,520,0,53298,1
2,31115,30656,31800,31677,33559,-4051,1013,-1165,1193,-3565,-10855,54,562,-248,1,0,21,8,560,0,53298,1
2,31138,30663,31795,31678,33576,-4259,1210,-1247,121,-3475,-10344,74,568,-234,1,0,21,8,600,0,53298,1
2,31160,30685,31797,31679,33593,-4261,1246,-1288,-1153,-2992,-9619,111,583,-235,1,0,21,8,640,0,53298,1
2,31140,30881,31790,31680,33610,-4561,619,-1124,-1381,-2789,-8604,117,595,-231,1,0,21,8,680,0,53298,1
2,31161,30619,31801,31681,33628,-4791,323,-1126,-865,-3388,-8166,155,591,-231,1,0,21,8,720,0,53298,1
2,31155,30670,31807,31682,33645,-4703,168,-1278,-517,-3733,-7781,177,593,-221,1,0,21,8,760,0,53298,1
2,31135,30067,31807,31683,33662,-4493,76,-1302,290,-3748,-7384,202,582,-208,1,0,21,8,800,0,53298,1
2,31137,30198,31805,31684,33680,-4340,-70,-1371,-52,-3011,-6850,223,577,-203,1,0,21,8,840,0,53298,1
2,31129,30417,31812,31685,33698,-4199,-45,-1439,189,-1868,-5922,239,573,-211,1,0,21,8,880,0,53298,1
2,31098,31095,31792,31686,33716,-4183,23,-1264,1286,-856,-4646,247,569,-207,1,0,21,8,920,0,53298,1
2,31120,30325,31807,31687,33734,-4309,13,-1245,1137,-13,-3313,265,581,-211,1,0,21,8,960,0,53298,1
1,31117,30497,31814,31688,0,-4277,28,-1157,1006,545,-1989,266,560,-220,1,0,21,9,0,1,53298,1
2,31124,30332,31807,31689,32850,-4445,-243,-1111,721,926,-573,274,576,-220,1,0,21,9,40,1,53298,1
2,31129,30555,31809,31690,32868,-4578,-486,-1044,652,1218,456,273,577,-215,1,0,21,9,80,1,53298,1
2,31141,30642,31814,31691,32886,-4495,-475,-1098,365,1334,872,276,578,-230,1,0,21,9,120,1,53298,1
2,31148,30646,31818,31692,32904,-4191,1247,-2021,-477,1899,1838,263,577,-237,1,0,21,9,160,1,53298,1
2,31169,30562,31821,31693,32922,-2436,5291,-2955,-2465,4438,6694,243,583,-247,1,0,21,9,200,1,53298,1
2,31245,30140,31795,31694,32939,-1908,6342,-3858,-7059,10002,17373,177,593,-275,1,0,21,9,240,1,53298,1
2,31167,30144,31786,31695,32955,-4230,5431,-3264,-5452,15066,31120,81,579,-305,1,0,21,9,280,1,53298,1
2,31014,30625,31785,31696,32972,-8998,3891,-2208,-1687,16330,32767,-19,517,-327,1,0,21,9,320,1,53298,1
2,30951,30646,31715,31697,32989,-11532,1242,-1583,-1034,12458,32767,-68,422,-336,1,0,21,9,360,1,53298,1
2,30910,30393,31675,31698,33005,-7033,-969,-1757,-3324,6969,28843,-65,361,-325,1,0,21,9,400,1,53298,1
2,30866,30490,31657,31699,33020,-3673,-437,-1369,-4878,4679,16271,-46,342,-324,1,0,21,9,440,1,53298,1
2,30802,32659,31603,31700,33035,-2570,-290,-531,-6191,5320,10888,-44,304,-308,1,0,21,9,480,1,53298,1
2,30785,32060,31569,31701,33050,-2783,-1865,-368,-5667,3048,9248,-41,305,-291,1,0,21,9,520,1,53298,1
2,30783,31850,31577,31702,33066,-2515,-2045,-838,-57,13,5168,-39,299,-305,1,0,21,9,560,1,53298,1
2,30804,29850,31597,31703,33082,-2591,-734,-775,5009,-1968,-1239,-47,307,-313,1,0,21,9,600,1,53298,1
2,30778,30121,31597,31704,33097,-2529,1284,-1133,4834,-4191,-7266,-49,307,-319,1,0,21,9,640,1,53298,1
2,30800,29905,31622,31705,33113,-2809,1872,-1972,-520,-5418,-11350,-61,337,-305,1,0,21,9,680,1,53298,1
2,30816,29960,31631,31706,33128,-3134,2676,-2471,-3082,-5161,-14480,-58,360,-312,1,0,21,9,720,1,53298,1
2,30824,34065,31637,31707,33142,-3292,2572,-2252,-249,-5433,-15412,-60,386,-316,1,0,21,9,760,1,53298,1
2,30831,30160,31656,31708,33157,-3786,2408,-2260,1261,-5297,-15386,-58,426,-304,1,0,21,9,800,1,53298,1
2,30868,30083,31668,31709,33170,-4155,1928,-2073,3013,-5522,-15529,-36,472,-298,1,0,21,9,840,1,53298,1
2,30890,30006,31684,31710,33185,-4105,1941,-1992,2940,-5606,-15519,-21,491,-301,1,0,21,9,880,1,53298,1
2,30933,30056,31699,31711,33201,-4333,1638,-1786,3150,-5202,-14760,10,532,-288,1,0,21,9,920,1,53298,1
2,31001,29935,31725,31712,33217,-4427,1676,-1794,3139,-5081,-13938,27,553,-281,1,0,21,9,960,1,53298,1
1,31060,29906,31735,31713,0,-4442,1273,-1601,2818,-4711,-13078,71,577,-277,1,0,21,10,0,0,53298,1
2,31138,29905,31733,31714,32376,-4615,1087,-1587,2203,-4351,-12465,90,596,-274,1,0,21,10,40,0,53298,1
2,31151,31718,31712,31715,32393,-4589,957,-1522,1273,-4184,-12075,131,603,-263,1,0,21,10,80,0,53298,1
2,31147,33517,31716,31716,32410,-4393,860,-1413,748,-3727,-11003,168,610,-260,1,0,21,10,120,0,53298,1
2,31123,32897,31715,31717,32427,-4295,984,-1522,582,-3577,-9519,193,603,-243,1,0,21,10,160,0,53298,1
2,31095,33455,31723,31718,32445,-3964,901,-1457,357,-3019,-7377,217,603,-251,1,0,21,10,200,0,53298,1
2,31075,32661,31719,31719,32463,-3927,561,-1478,70,-2070,-4469,229,601,-229,1,0,21,10,240,0,53298,1
2,31060,32261,31722,31720,32480,-4036,216,-1387,1193,-1505,-2118,242,594,-234,1,0,21,10,280,0,53298,1
2,31061,31674,31726,31721,32498,-4134,162,-1435,1596,-878,-487,241,589,-221,1,0,21,10,320,0,53298,1
2,31095,34169,31755,31722,32516,-4220,925,-1951,1063,100,1177,243,597,-233,1,0,21,10,360,0,53298,1
2,31127,34237,31746,31723,32534,-3366,3940,-3143,442,2207,4986,219,595,-241,1,0,21,10,400,0,53298,1
2,31154,34308,31754,31724,32552,-1902,6446,-3940,282,6664,14789,162,600,-258,1,0,21,10,440,0,53298,1
2,31064,34126,31740,31725,32572,-3669,5843,-3961,-58,12851,27813,80,586,-278,1,0,21,10,480,0,53298,1
2,30937,34088,31735,31726,32591,-7680,4337,-3535,-948,17250,32767,-12,532,-330,1,0,21,10,520,0,53298,1
2,30852,34036,31703,31727,32609,-10418,3170,-2831,-2849,17522,32767,-51,435,-343,1,0,21,10,560,0,53298,1
2,30812,32151,31629,31728,32626,-7907,287,-2000,-7769,14390,29856,-62,360,-332,1,0,21,10,600,0,53298,1
2,30809,29900,31607,31729,32642,-4651,-4,-887,-10359,9562,18640,-56,326,-314,1,0,21,10,640,0,53298,1
2,30794,30133,31586,31730,32658,-3043,-667,-600,-14735,7119,13826,-44,296,-292,1,0,21,10,680,0,53298,1
2,30781,29841,31558,31731,32674,-2684,-2464,-575,-8544,4417,12926,-41,285,-279,1,0,21,10,720,0,53298,1
2,30779,30283,31554,31732,32690,-2624,-2585,-68,4588,1040,8041,-28,286,-288,1,0,21,10,760,0,53298,1
2,30761,29847,31569,31733,32706,-2312,-1090,1,8580,-1835,773,-36,272,-300,1,0,21,10,800,0,53298,1
2,30766,29869,31597,31734,32722,-2003,1062,-782,4723,-4445,-5733,-44,290,-302,1,0,21,10,840,0,53298,1
2,30777,29842,31590,31735,32738,-2092,1452,-1615,-751,-5236,-9216,-49,305,-315,1,0,21,10,880,0,53298,1
2,30800,29851,31614,31736,32753,-3496,1501,-1994,-2635,-5400,-13090,-58,318,-304,1,0,21,10,920,0,53298,1
2,30808,29897,31623,31737,32769,-3366,2652,-2444,-1137,-6847,-17777,-62,350,-300,1,0,21,10,960,0,53298,1
1,30818,31313,31628,31738,0,-4078,2313,-2788,182,-7300,-19652,-55,389,-297,1,0,21,11,0,1,53298,1
2,30833,32627,31640,31739,31903,-4016,2449,-2455,4108,-6509,-19334,-53,433,-303,1,0,21,11,40,1,53298,1
2,30876,33665,31669,31740,31920,-4314,2311,-2246,5996,-6889,-18860,-32,478,-288,1,0,21,11,80,1,53298,1
2,30915,33703,31693,31741,31937,-4213,2353,-1878,5583,-6467,-17489,-9,523,-293,1,0,21,11,120,1,53298,1
2,30957,31343,31702,31742,31954,-4497,2401,-1788,3564,-6317,-15499,16,554,-276,1,0,21,11,160,1,53298,1
2,31034,33826,31712,31743,31972,-4224,2358,-1840,1032,-5815,-13724,46,576,-262,1,0,21,11,200,1,53298,1
2,31092,34031,31724,31744,31990,-4380,1415,-1369,626,-4913,-11579,72,590,-256,1,0,21,11,240,1,53298,1
2,31106,34025,31725,31745,32008,-4615,1443,-1538,-425,-4662,-10522,106,606,-240,1,0,21,11,280,1,53298,1
2,31112,34132,31729,31746,32026,-4153,1545,-1522,-571,-3627,-8992,137,607,-233,1,0,21,11,320,1,53298,1
2,31095,34071,31725,31747,32044,-4171,977,-1067,144,-2951,-6605,156,604,-230,1,0,21,11,360,1,53298,1
2,31069,33946,31726,31748,32063,-4337,703,-1194,-1595,-2746,-4868,173,597,-217,1,0,21,11,400,1,53298,1
2,31052,33740,31719,31749,32082,-4075,336,-1309,-1903,-2181,-3521,168,596,-202,1,0,21,11,440,1,53298,1
2,31044,33622,31720,31750,32101,-4171,-1,-1298,-296,-1818,-2114,194,598,-212,1,0,21,11,480,1,53298,1
2,31034,33452,31720,31751,32119,-4372,-198,-1287,803,-1359,-1283,195,585,-211,1,0,21,11,520,1,53298,1
2,31035,32995,31724,31752,32138,-4398,-318,-1313,1048,-939,-1258,207,591,-217,1,0,21,11,560,1,53298,1
2,31048,30659,31729,31753,32156,-4371,-152,-1374,771,-380,-1469,202,590,-210,1,0,21,11,600,1,53298,1
2,31050,31839,31730,31754,32175,-4143,646,-1766,219,715,-1064,214,590,-208,1,0,21,11,640,1,53298,1
2,31066,33858,31729,31755,32193,-3591,2545,-2340,167,2358,1225,197,593,-209,1,0,21,11,680,1,53298,1
2,31073,33920,31740,31756,32210,-1480,6228,-3123,-705,5210,8640,174,594,-222,1,0,21,11,720,1,53298,1
2,31065,34453,31735,31757,32228,-2426,6400,-3199,-708,9684,22050,97,597,-255,1,0,21,11,760,1,53298,1
2,30957,34302,31740,31758,32245,-5995,5416,-2931,-546,13398,32767,9,559,-281,1,0,21,11,800,1,53298,1
2,30884,34167,31721,31759,32264,-10207,4125,-2756,-2313,15068,32767,-61,473,-317,1,0,21,11,840,1,53298,1
2,30806,32898,31662,31760,32281,-9254,1365,-2180,-6682,13767,32767,-76,388,-316,1,0,21,11,880,1,53298,1
2,30814,30090,31648,31761,32297,-5198,278,-1446,-11258,9915,21544,-66,334,-288,1,0,21,11,920,1,53298,1
2,30808,30887,31625,31762,32313,-3345,-380,-1204,-14074,7515,15337,-42,306,-278,1,0,21,11,960,1,53298,1
1,30790,29904,31598,31763,0,-2787,-1987,-950,-5065,4846,14577,-45,293,-275,1,0,21,12,0,1,53298,1
2,30787,29871,31603,31764,31431,-2662,-2258,166,7481,2496,10948,-38,288,-296,1,0,21,12,40,1,53298,1
2,30755,30453,31592,31765,31448,-2405,-1657,923,7654,-61,3325,-40,278,-286,1,0,21,12,80,1,53298,1
2,30764,31009,31595,31766,31464,-2531,-460,-180,-435,-2892,-5363,-45,283,-297,1,0,21,12,120,1,53298,1
2,30786,30889,31608,31767,31480,-2554,466,-1065,-2580,-5071,-11398,-54,304,-302,1,0,21,12,160,1,53298,1
2,30798,31065,31621,31768,31495,-3744,1307,-1764,56,-6601,-15765,-63,321,-297,1,0,21,12,200,1,53298,1
2,30831,30175,31650,31769,31511,-3659,2771,-2317,3570,-8234,-19449,-75,363,-283,1,0,21,12,240,1,53298,1
2,30857,30244,31668,31770,31528,-4428,3005,-2731,5006,-8441,-19856,-71,409,-303,1,0,21,12,280,1,53298,1
2,30877,30381,31685,31771,31544,-4096,3001,-2502,6202,-8762,-19719,-52,448,-298,1,0,21,12,320,1,53298,1
2,30901,30751,31703,31772,31561,-4366,3000,-2417,5048,-8094,-18323,-30,490,-282,1,0,21,12,360,1,53298,1
2,30940,32010,31706,31773,31578,-4084,2744,-2020,3614,-7261,-16757,-8,534,-274,1,0,21,12,400,1,53298,1
2,30986,33941,31715,31774,31596,-4002,2660,-1906,1289,-5944,-14169,19,565,-253,1,0,21,12,440,1,53298,1
2,31017,32420,31710,31775,31614,-3939,2320,-1755,245,-4426,-11290,50,578,-238,1,0,21,12,480,1,53298,1
2,31046,32201,31716,31776,31631,-4097,2030,-1577,417,-3360,-8315,65,591,-225,1,0,21,12,520,1,53298,1
2,31060,33677,31721,31777,31649,-4062,1933,-1482,584,-2646,-5771,80,596,-216,1,0,21,12,560,1,53298,1
2,31060,33854,31725,31778,31666,-3884,1615,-1427,220,-1843,-3251,86,594,-222,1,0,21,12,600,1,53298,1
2,31053,33885,31725,31779,31685,-3868,1295,-1390,-525,-1060,-1105,95,591,-225,1,0,21,12,640,1,53298,1
2,31043,33675,31717,31780,31702,-3828,1094,-1495,-1075,-399,529,97,589,-223,1,0,21,12,680,1,53298,1
2,31030,33766,31721,31781,31720,-3910,943,-1416,-564,268,2005,86,590,-224,1,0,21,12,720,1,53298,1
2,31026,33691,31718,31782,31738,-4098,838,-1383,-383,828,3038,87,583,-223,1,0,21,12,760,1,53298,1
2,31024,33627,31713,31783,31755,-4221,666,-1407,-511,1310,3544,70,582,-222,1,0,21,12,800,1,53298,1
2,31016,33742,31720,31784,31773,-4278,612,-1378,-206,1718,3626,55,579,-227,1,0,21,12,840,1,53298,1
2,31005,33692,31713,31785,31791,-4273,557,-1288,223,1917,3337,46,578,-222,1,0,21,12,880,1,53298,1
2,30993,33605,31711,31786,31808,-4188,613,-1227,462,1843,2928,47,573,-235,1,0,21,12,920,1,53298,1
2,30993,33762,31712,31787,31824,-4090,635,-1244,381,1676,2553,44,562,-242,1,0,21,12,960,1,53298,1
1,30985,33675,31711,31788,0,-4010,640,-1275,374,1532,2188,29,561,-253,1,0,21,13,0,1,53298,1
2,30985,33652,31707,31789,30958,-4045,681,-1253,647,1386,1831,26,556,-250,1,0,21,13,40,1,53298,1
2,30980,33632,31708,31790,30975,-4093,741,-1234,722,1078,1431,20,558,-250,1,0,21,13,80,1,53298,1
2,30973,33617,31704,31791,30991,-4102,738,-1206,744,577,948,23,559,-263,1,0,21,13,120,1,53298,1
2,30974,33397,31704,31792,31008,-4058,801,-1225,619,64,395,19,555,-255,1,0,21,13,160,1,53298,1
2,30980,33375,31703,31793,31025,-3921,796,-1292,175,-257,-118,25,551,-257,1,0,21,13,200,1,53298,1
2,30975,33422,31707,31794,31042,-3880,894,-1398,75,-428,-385,25,557,-247,1,0,21,13,240,1,53298,1
2,30977,33349,31705,31795,31059,-3846,1044,-1431,291,-455,-375,16,550,-246,1,0,21,13,280,1,53298,1
2,30972,33321,31707,31796,31075,-3870,1191,-1517,351,-314,-142,23,563,-247,1,0,21,13,320,1,53298,1
2,30970,33274,31716,31797,31091,-3862,1479,-1634,355,10,359,23,559,-255,1,0,21,13,360,1,53298,1
2,30963,33272,31704,31798,31107,-3793,1837,-1803,-29,584,1226,18,564,-248,1,0,21,13,400,1,53298,1
2,30948,33097,31708,31799,31123,-3509,3188,-2238,-983,1536,2846,9,555,-247,1,0,21,13,440,1,53298,1
2,30905,33870,31723,31800,31140,-1489,7860,-3101,-5220,3488,7513,-11,533,-267,1,0,21,13,480,1,53298,1
2,30866,34420,31689,31801,31156,-2452,7861,-4056,-11459,8880,21359,-43,473,-259,1,0,21,13,520,1,53298,1
2,30846,34418,31690,31802,31173,-8563,3974,-3482,-7638,11959,32767,-89,401,-275,1,0,21,13,560,1,53298,1
2,30820,34382,31667,31803,31188,-6622,1137,-2219,-881,10099,30329,-69,337,-285,1,0,21,13,600,1,53298,1
2,30808,34352,31643,31804,31204,-3474,643,-1437,1544,8213,20955,-58,310,-304,1,0,21,13,640,1,53298,1
2,30796,34329,31619,31805,31221,-3056,-361,-423,1003,7472,16340,-54,286,-308,1,0,21,13,680,1,53298,1
2,30787,34304,31606,31806,31236,-2901,-1325,116,1541,5052,12196,-40,270,-292,1,0,21,13,720,1,53298,1
2,30786,34291,31598,31807,31252,-2383,-1221,534,881,2223,6121,-43,269,-297,1,0,21,13,760,1,53298,1
2,30802,34304,31605,31808,31268,-2311,-1307,20,-2721,-634,-380,-49,275,-279,1,0,21,13,800,1,53298,1
2,30802,34311,31612,31809,31284,-2297,-252,-742,-2292,-3468,-6728,-55,273,-295,1,0,21,13,840,1,53298,1
2,30804,34326,31623,31810,31299,-2318,1130,-1284,264,-5458,-11258,-54,288,-294,1,0,21,13,880,1,53298,1
2,30821,34343,31633,31811,31315,-3202,1765,-1632,778,-6513,-14693,-70,310,-290,1,0,21,13,920,1,53298,1
2,30835,34361,31660,31812,31331,-4102,2589,-2149,406,-7751,-19442,-76,346,-300,1,0,21,13,960,1,53298,1
1,30852,34373,31666,31813,0,-3575,3422,-2602,71,-7952,-22042,-63,405,-281,1,0,21,14,0,0,53298,1
2,30883,34405,31674,31814,30486,-3770,2973,-2491,2250,-6808,-19873,-64,442,-274,1,0,21,14,40,0,53298,1
2,30907,34420,31690,31815,30501,-4081,3014,-2292,6319,-6730,-17204,-45,481,-263,1,0,21,14,80,0,53298,1
2,30941,34437,31704,31816,30518,-4055,3085,-2183,6491,-5989,-15030,-32,514,-264,1,0,21,14,120,0,53298,1
2,30960,34445,31717,31817,30535,-4113,3053,-2014,4039,-4702,-12508,-6,544,-264,1,0,21,14,160,0,53298,1
2,30986,34457,31714,31818,30552,-3662,2926,-1952,433,-3412,-10189,7,567,-241,1,0,21,14,200,0,53298,1
2,31007,34468,31720,31819,30568,-3713,2438,-1803,-675,-2040,-6856,20,574,-234,1,0,21,14,240,0,53298,1
2,31012,34475,31720,31820,30585,-3450,2508,-1852,-60,-1258,-3663,41,581,-239,1,0,21,14,280,0,53298,1
2,31009,34475,31717,31821,30602,-3459,1931,-1615,995,-183,-483,32,576,-238,1,0,21,14,320,0,53298,1
2,31003,34490,31719,31822,30619,-3739,1557,-1458,540,629,1769,37,567,-243,1,0,21,14,360,0,53298,1
2,30997,34473,31715,31823,30635,-3804,1293,-1480,-770,1055,2863,28,570,-238,1,0,21,14,400,0,53298,1
2,30986,34472,31717,31824,30652,-3852,1092,-1480,-1011,1360,3622,8,560,-240,1,0,21,14,440,0,53298,1
2,30975,34460,31717,31825,30669,-3940,1037,-1404,-448,1481,4058,16,554,-248,1,0,21,14,480,0,53298,1
2,30965,34453,31712,31826,30685,-3967,1009,-1394,-613,1589,4016,-1,539,-251,1,0,21,14,520,0,53298,1
2,30959,34449,31714,31827,30700,-4022,881,-1394,-940,1556,3667,-1,529,-253,1,0,21,14,560,0,53298,1
2,30955,34427,31708,31828,30716,-4003,854,-1394,-843,1214,2984,-16,530,-252,1,0,21,14,600,0,53298,1
2,30941,34431,31707,31829,30732,-3967,771,-1376,-441,785,2097,-13,527,-249,1,0,21,14,640,0,53298,1
2,30940,34416,31706,31830,30747,-3888,709,-1342,-82,328,1029,-17,525,-257,1,0,21,14,680,0,53298,1
2,30944,34420,31706,31831,30764,-3870,736,-1299,141,-84,-108,-13,521,-257,1,0,21,14,720,0,53298,1
2,30948,34430,31706,31832,30780,-3866,773,-1292,178,-502,-1239,-18,528,-256,1,0,21,14,760,0,53298,1
2,30952,34432,31708,31833,30796,-3967,797,-1252,230,-943,-2206,-6,530,-250,1,0,21,14,800,0,53298,1
2,30964,34429,31709,31834,30813,-4152,732,-1270,36,-1438,-3302,-6,536,-250,1,0,21,14,840,0,53298,1
2,30971,34447,31712,31835,30830,-4241,715,-1313,-491,-1937,-4625,5,543,-235,1,0,21,14,880,0,53298,1
2,30986,34440,31715,31836,30848,-4111,795,-1372,-840,-2190,-5729,17,553,-249,1,0,21,14,920,0,53298,1
2,31006,34444,31718,31837,30865,-4145,815,-1410,-578,-2187,-6134,37,571,-231,1,0,21,14,960,0,53298,1
1,31018,34459,31718,31838,0,-4282,736,-1452,71,-2131,-6181,48,572,-220,1,0,21,15,0,1,53298,1
2,31044,34474,31726,31839,30013,-4417,590,-1546,679,-2014,-6281,67,585,-229,1,0,21,15,40,1,53298,1
2,31071,34481,31732,31840,30030,-4491,502,-1700,992,-1603,-6757,90,586,-234,1,0,21,15,80,1,53298,1
2,31078,34485,31732,31841,30046,-3821,2856,-2450,1364,-660,-6443,114,606,-238,1,0,21,15,120,1,53298,1
2,31015,33898,31690,31842,30063,503,9870,-3610,-1399,2447,648,98,598,-244,1,0,21,15,160,1,53298,1
2,30943,34153,31686,31843,30079,-562,10217,-4024,-4656,9449,21616,20,570,-260,1,0,21,15,200,1,53298,1
2,30898,34150,31715,31844,30097,-9150,5874,-3483,-2201,14527,32767,-61,483,-299,1,0,21,15,240,1,53298,1
2,30842,34084,31679,31845,30115,-12020,1934,-2137,1143,15171,32767,-77,389,-317,1,0,21,15,280,1,53298,1
2,30804,33512,31661,31846,30132,-5634,476,-1420,-3097,10746,27219,-68,338,-314,1,0,21,15,320,1,53298,1
2,30789,30208,31610,31847,30149,-2967,649,-1534,-11260,8675,16303,-58,304,-296,1,0,21,15,360,1,53298,1
2,30782,30356,31583,31848,30164,-3098,-1403,-866,-10313,7457,16612,-41,281,-281,1,0,21,15,400,1,53298,1
2,30769,29870,31579,31849,30180,-3137,-2848,-468,1921,4014,14342,-34,272,-278,1,0,21,15,440,1,53298,1
2,30761,29834,31578,31850,30196,-2310,-1603,647,8602,1112,6479,-41,265,-295,1,0,21,15,480,1,53298,1
2,30770,29837,31597,31851,30212,-2086,-920,210,1263,-1635,-1651,-33,261,-295,1,0,21,15,520,1,53298,1
2,30786,29864,31604,31852,30228,-2224,-84,-912,-3475,-3761,-8042,-43,275,-297,1,0,21,15,560,1,53298,1
2,30793,29852,31617,31853,30243,-2571,1413,-1372,-1747,-5588,-13066,-55,289,-289,1,0,21,15,600,1,53298,1
2,30798,29843,31626,31854,30259,-2213,3285,-1912,-975,-6740,-15803,-70,318,-290,1,0,21,15,640,1,53298,1
2,30815,29850,31636,31855,30274,-3194,3263,-2280,-2133,-6334,-16014,-69,349,-285,1,0,21,15,680,1,53298,1
2,30836,29841,31650,31856,30289,-4148,3203,-2376,-1172,-6253,-17719,-80,392,-272,1,0,21,15,720,1,53298,1
2,30854,29851,31656,31857,30304,-3995,2916,-2143,2092,-6410,-18602,-67,415,-267,1,0,21,15,760,1,53298,1
2,30874,29858,31668,31858,30319,-4014,2798,-2028,4828,-6152,-17499,-53,461,-263,1,0,21,15,800,1,53298,1
2,30906,29862,31682,31859,30334,-3941,2527,-1754,6939,-5816,-15265,-30,494,-272,1,0,21,15,840,1,53298,1
2,30926,29867,31695,31860,30351,-4021,2571,-1707,5786,-5411,-13036,-25,521,-253,1,0,21,15,880,1,53298,1
2,30946,29871,31704,31861,30368,-4138,2114,-1600,2892,-4688,-11290,0,550,-242,1,0,21,15,920,1,53298,1
2,30973,29875,31711,31862,30384,-4305,1870,-1597,1147,-4285,-10112,24,560,-238,1,0,21,15,960,1,53298,1
1,30986,29876,31717,31863,0,-4037,2056,-1726,-60,-3696,-9247,43,581,-231,1,0,21,16,0,1,53298,1
2,31003,29878,31720,31864,29542,-3925,1690,-1545,129,-2841,-7394,69,579,-213,1,0,21,16,40,1,53298,1
2,31009,29889,31726,31865,29558,-4075,1430,-1523,42,-2453,-5672,79,591,-213,1,0,21,16,80,1,53298,1
2,31012,29882,31726,31866,29575,-4025,815,-1466,-755,-1446,-4624,83,597,-195,1,0,21,16,120,1,53298,1
2,31024,29890,31726,31867,29592,-4305,259,-1374,-244,-501,-3734,108,598,-208,1,0,21,16,160,1,53298,1
2,31029,29893,31728,31868,29609,-4409,13,-1073,1226,-433,-3760,119,595,-213,1,0,21,16,200,1,53298,1
2,31040,29893,31728,31869,29626,-4468,-71,-1019,701,-428,-4368,126,594,-214,1,0,21,16,240,1,53298,1
2,31049,29905,31727,31870,29644,-4459,-303,-1056,318,-439,-5014,150,600,-216,1,0,21,16,280,1,53298,1
2,31057,29953,31731,31871,29661,-4549,-335,-1169,690,-381,-5793,173,603,-219,1,0,21,16,320,1,53298,1
2,31060,30123,31725,31872,29678,-4413,-119,-1071,1493,-310,-6379,183,613,-225,1,0,21,16,360,1,53298,1
2,31059,30210,31725,31873,29696,-4289,36,-1051,1766,-365,-6350,216,606,-234,1,0,21,16,400,1,53298,1
2,31054,30253,31724,31874,29714,-4084,333,-1122,1585,-509,-5577,228,604,-238,1,0,21,16,440,1,53298,1
2,31051,30261,31725,31875,29731,-3835,749,-1138,1645,-481,-3843,237,607,-237,1,0,21,16,480,1,53298,1
2,31044,30285,31725,31876,29748,-3725,1287,-1391,1114,-143,-1108,250,602,-236,1,0,21,16,520,1,53298,1
2,31060,30427,31731,31877,29765,-3584,2059,-1762,503,871,2850,228,608,-242,1,0,21,16,560,1,53298,1
2,31080,30465,31729,31878,29782,-3692,2661,-2075,-193,2638,8038,204,614,-248,1,0,21,16,600,1,53298,1
2,31075,31230,31715,31879,29800,-3830,2818,-1994,-713,4711,13835,162,616,-246,1,0,21,16,640,1,53298,1
2,31028,31231,31708,31880,29818,-4406,2778,-2346,-203,6592,19374,91,615,-253,1,0,21,16,680,1,53298,1
2,30973,30344,31727,31881,29836,-4832,4678,-2532,-464,8701,23995,22,580,-270,1,0,21,16,720,1,53298,1
2,30873,33354,31677,31882,29853,-5103,6733,-2819,-7292,10857,29576,-42,496,-284,1,0,21,16,760,1,53298,1
2,30829,32282,31645,31883,29870,-8550,5024,-3418,-14511,12516,32767,-76,402,-276,1,0,21,16,800,1,53298,1
2,30819,31003,31622,31884,29886,-8688,649,-3102,-16874,11058,32767,-84,330,-260,1,0,21,16,840,1,53298,1
2,30811,30369,31578,31885,29903,-4667,-733,-1719,-8821,7281,24741,-63,295,-261,1,0,21,16,880,1,53298,1
2,30793,29963,31569,31886,29918,-3440,-733,-814,717,4680,17759,-43,277,-261,1,0,21,16,920,1,53298,1
2,30805,30961,31523,31887,29933,-2382,-1624,-308,6140,2713,13514,-37,259,-261,1,0,21,16,960,1,53298,1
1,30907,29889,31560,31888,0,-2062,-1599,19,6987,1574,8457,-45,265,-275,1,0,21,17,0,1,53298,1
2,30926,29917,31583,31889,29070,-1926,-1232,305,3475,231,2146,-35,257,-281,1,0,21,17,40,1,53298,1
2,30915,30294,31598,31890,29086,-1900,-182,-217,-1390,-2555,-4718,-49,265,-281,1,0,21,17,80,1,53298,1
2,30960,29906,31620,31891,29101,-1873,1208,-1271,-3415,-4538,-9678,-49,269,-277,1,0,21,17,120,1,53298,1
2,30983,29924,31621,31892,29117,-2092,2753,-1783,-2402,-5404,-12541,-60,292,-278,1,0,21,17,160,1,53298,1
2,31009,29933,31640,31893,29132,-2623,3584,-2034,-2504,-5659,-14922,-64,310,-260,1,0,21,17,200,1,53298,1
2,31024,29895,31641,31894,29147,-2704,4331,-2109,-2224,-5605,-16287,-72,338,-258,1,0,21,17,240,1,53298,1
2,31044,29943,31640,31895,29163,-2547,3901,-2108,-1918,-4482,-14606,-80,360,-254,1,0,21,17,280,1,53298,1
2,31076,30341,31639,31896,29179,-2920,3720,-2014,595,-3020,-11539,-69,385,-247,1,0,21,17,320,1,53298,1
2,31089,30461,31650,31897,29195,-3099,3089,-1787,3668,-2339,-8732,-67,403,-251,1,0,21,17,360,1,53298,1
2,31095,30682,31656,31898,29211,-3297,2643,-1702,5568,-1889,-6700,-59,419,-253,1,0,21,17,400,1,53298,1
2,31095,31826,31660,31899,29227,-3424,2251,-1506,6244,-1637,-5704,-55,425,-253,1,0,21,17,440,1,53298,1
2,31102,32449,31669,31900,29243,-3346,1971,-1474,4570,-1536,-5745,-55,449,-267,1,0,21,17,480,1,53298,1
2,31116,31471,31673,31901,29259,-3513,1483,-1495,2475,-1229,-6088,-37,449,-267,1,0,21,17,520,1,53298,1
2,31129,31937,31680,31902,29275,-3680,1368,-1572,2119,-1343,-6762,-34,468,-262,1,0,21,17,560,1,53298,1
2,31139,33038,31689,31903,29292,-3813,1405,-1565,2796,-1849,-7514,-28,488,-262,1,0,21,17,600,1,53298,1
2,31150,32865,31697,31904,29309,-3856,1189,-1696,2630,-2049,-8095,-18,500,-270,1,0,21,17,640,1,53298,1
2,31177,33690,31718,31905,29326,-4099,994,-1539,2900,-2083,-8538,1,529,-269,1,0,21,17,680,1,53298,1
2,31191,33268,31725,31906,29342,-4291,1086,-1381,2187,-2446,-9179,6,550,-264,1,0,21,17,720,1,53298,1
2,31215,32999,31728,31907,29358,-4291,1292,-1272,-217,-2700,-9663,27,567,-257,1,0,21,17,760,1,53298,1
2,31245,33216,31732,31908,29374,-4258,1054,-1257,-2511,-2844,-9586,53,567,-245,1,0,21,17,800,1,53298,1
2,31268,33115,31737,31909,29391,-4369,843,-1386,-3517,-2738,-9131,86,584,-234,1,0,21,17,840,1,53298,1
2,31289,33570,31753,31910,29408,-4413,742,-1481,-3096,-2420,-8680,116,598,-240,1,0,21,17,880,1,53298,1
2,31299,33345,31745,31911,29425,-4294,425,-1406,-1741,-1971,-8313,141,595,-243,1,0,21,17,920,1,53298,1
2,31300,33070,31744,31912,29442,-4185,553,-1484,-217,-1322,-7658,175,595,-239,1,0,21,17,960,1,53298,1
1,31320,34025,31762,31913,0,-3885,919,-1438,1440,-668,-6437,189,597,-241,1,0,21,18,0,1,53298,1
2,31304,33452,31748,31914,28600,-3550,1782,-1594,2048,-10,-3968,202,594,-262,1,0,21,18,40,1,53298,1
2,31325,32201,31760,31915,28617,-2741,4392,-2156,2428,1167,1254,186,604,-260,1,0,21,18,80,1,53298,1
2,31108,29948,31765,31916,28634,-1921,6970,-2546,1338,3659,11240,143,599,-261,1,0,21,18,120,1,53298,1
2,31001,31900,31723,31917,28650,-3051,7495,-3214,-2833,8232,25024,63,579,-269,1,0,21,18,160,1,53298,1
2,30924,33476,31726,31918,28667,-7375,5567,-3067,-4280,12067,32767,-25,513,-281,1,0,21,18,200,1,53298,1
2,30882,33424,31705,31919,28684,-11266,3286,-2806,-5650,12439,32767,-65,419,-279,1,0,21,18,240,1,53298,1
2,30871,30778,31673,31920,28699,-7195,370,-2431,-8972,9167,32184,-72,352,-296,1,0,21,18,280,1,53298,1
2,30875,29978,31682,31921,28713,-3927,463,-1835,-9109,6252,20706,-52,308,-274,1,0,21,18,320,1,53298,1
2,30863,30024,31646,31922,28728,-3116,-256,-1123,-8819,6354,16480,-46,282,-268,1,0,21,18,360,1,53298,1
2,30854,30195,31599,31923,28743,-3169,-2194,-366,-2817,4590,15205,-45,279,-263,1,0,21,18,400,1,53298,1
2,30836,30076,31589,31924,28757,-2478,-2688,-63,4765,1442,9578,-41,265,-267,1,0,21,18,440,1,53298,1
2,30825,31335,31607,31925,28772,-2036,-1422,321,6199,-893,1150,-38,266,-284,1,0,21,18,480,1,53298,1
2,30843,30158,31634,31926,28786,-2161,-70,-308,909,-3109,-6318,-41,271,-275,1,0,21,18,520,1,53298,1
2,30862,29879,31648,31927,28800,-2223,851,-1096,-2719,-4536,-10971,-51,291,-275,1,0,21,18,560,1,53298,1
2,30873,29891,31660,31928,28814,-3315,1622,-1507,-1552,-5542,-15063,-72,302,-264,1,0,21,18,600,1,53298,1
2,30886,29881,31673,31929,28829,-3903,2889,-1912,976,-7508,-19877,-67,343,-259,1,0,21,18,640,1,53298,1
2,30902,29901,31686,31930,28843,-4063,3541,-2525,1080,-7625,-22044,-59,391,-267,1,0,21,18,680,1,53298,1
2,30907,30198,31687,31931,28858,-4071,3479,-2225,3632,-6557,-20970,-59,423,-261,1,0,21,18,720,1,53298,1
2,30943,29956,31695,31932,28873,-4155,3475,-2263,4691,-5877,-18508,-45,461,-245,1,0,21,18,760,1,53298,1
2,30965,30050,31715,31933,28887,-4091,3040,-2015,5483,-4984,-15520,-19,489,-241,1,0,21,18,800,1,53298,1
2,31004,29920,31746,31934,28902,-4175,2737,-1858,5652,-4344,-12301,-8,514,-232,1,0,21,18,840,1,53298,1
2,31015,29960,31748,31935,28917,-3855,2486,-2024,3359,-3467,-10190,13,539,-233,1,0,21,18,880,1,53298,1
2,31038,29948,31759,31936,28932,-3912,1799,-1677,3341,-1758,-7668,43,557,-233,1,0,21,18,920,1,53298,1
2,31045,29918,31761,31937,28948,-3911,2000,-1630,2273,-1051,-5982,52,562,-234,1,0,21,18,960,1,53298,1
1,31050,29913,31761,31938,0,-3664,1679,-1526,873,-212,-4367,57,567,-235,1,0,21,19,0,0,53298,1
2,31060,29904,31761,31939,28129,-3819,1090,-1352,450,241,-2512,63,575,-227,1,0,21,19,40,0,53298,1
2,31073,29918,31765,31940,28145,-3990,907,-1243,333,-6,-1361,69,575,-243,1,0,21,19,80,0,53298,1
2,31075,29910,31763,31941,28161,-4080,598,-1186,25,-103,-843,73,579,-239,1,0,21,19,120,0,53298,1
2,31078,29923,31758,31942,28176,-4334,80,-1159,-66,-199,-947,71,575,-243,1,0,21,19,160,0,53298,1
2,31084,29939,31762,31943,28192,-4511,-128,-959,415,-642,-1888,75,573,-237,1,0,21,19,200,0,53298,1
2,31093,29937,31764,31944,28208,-4558,-219,-900,68,-1357,-3306,95,583,-231,1,0,21,19,240,0,53298,1
2,31105,29950,31773,31945,28224,-4670,-475,-1016,-940,-1946,-4927,104,580,-238,1,0,21,19,280,0,53298,1
2,31119,29958,31778,31946,28240,-4630,-525,-1098,-956,-2430,-6632,119,589,-229,1,0,21,19,320,0,53298,1
2,31116,29946,31771,31947,28256,-4573,-460,-1149,-558,-2705,-8221,143,593,-205,1,0,21,19,360,0,53298,1
2,31124,29949,31781,31948,28272,-4502,-166,-1205,126,-2646,-9146,179,599,-217,1,0,21,19,400,0,53298,1
2,31114,30007,31798,31949,28288,-4296,491,-1353,1030,-2448,-8907,204,592,-222,1,0,21,19,440,0,53298,1
2,31082,32997,31765,31950,28305,-3913,1346,-1643,1468,-1804,-6962,232,604,-214,1,0,21,19,480,0,53298,1
2,31078,30065,31792,31951,28321,-3287,2243,-1782,1740,-420,-2910,246,588,-222,1,0,21,19,520,0,53298,1
2,31116,33256,31763,31952,28338,-3128,2085,-1807,1151,1453,2374,222,610,-226,1,0,21,19,560,0,53298,1
2,31138,29984,31792,31953,28355,-3246,1737,-1891,808,3861,7252,187,611,-221,1,0,21,19,600,0,53298,1
2,31157,32452,31778,31954,28372,-4331,1660,-1940,1709,6101,11710,146,620,-238,1,0,21,19,640,0,53298,1
2,31150,33948,31779,31955,28390,-6631,682,-1773,2989,6915,14277,98,624,-254,1,0,21,19,680,0,53298,1
2,31095,30235,31770,31956,28408,-4269,4677,-2266,-1347,6888,15147,50,602,-262,1,0,21,19,720,0,53298,1
2,30976,33662,31729,31957,28424,-2581,6656,-3534,-10434,8798,21539,-4,560,-274,1,0,21,19,760,0,53298,1
2,30927,33545,31717,31958,28441,-6219,4924,-3572,-11054,11962,32767,-62,472,-290,1,0,21,19,800,0,53298,1
2,30882,33522,31696,31959,28457,-9744,2085,-2632,-5971,12473,32767,-76,380,-286,1,0,21,19,840,0,53298,1
2,30843,32591,31650,31960,28472,-6368,36,-1844,-2956,9724,29382,-80,324,-286,1,0,21,19,880,0,53298,1
2,30844,30190,31646,31961,28486,-3657,735,-1108,-4968,6726,16203,-58,298,-284,1,0,21,19,920,0,53298,1
2,30855,30044,31634,31962,28500,-2663,254,-746,-6981,4995,13417,-51,277,-273,1,0,21,19,960,0,53298,1
1,30932,30148,31652,31963,0,-2948,-2245,-300,-3915,3067,12130,-30,258,-272,1,0,21,20,0,1,53298,1
2,30983,29996,31703,31964,27657,-2050,-1896,-798,-1848,1016,5298,-35,257,-265,1,0,21,20,40,1,53298,1
2,30996,30028,31737,31965,27671,-1877,-740,-608,3213,-672,-1037,-47,267,-271,1,0,21,20,80,1,53298,1
2,30993,30073,31745,31966,27685,-1562,616,-706,5548,-3308,-5725,-48,278,-284,1,0,21,20,120,1,53298,1
2,31004,30055,31752,31967,27700,-2042,1504,-1372,2800,-4345,-9283,-63,287,-275,1,0,21,20,160,1,53298,1
2,31023,30118,31784,31968,27714,-2570,2314,-1650,-650,-4913,-12832,-63,299,-281,1,0,21,20,200,1,53298,1
2,31024,30151,31778,31969,27727,-3141,2831,-1965,-3875,-5321,-16488,-59,333,-289,1,0,21,20,240,1,53298,1
2,31047,30070,31795,31970,27741,-3243,3423,-2324,-2436,-5389,-18387,-73,369,-267,1,0,21,20,280,1,53298,1
2,31054,30032,31794,31971,27755,-3172,3074,-2135,1793,-4871,-16748,-62,398,-268,1,0,21,20,320,1,53298,1
2,31047,32485,31779,31972,27769,-3802,2646,-1998,4477,-4021,-14536,-55,423,-269,1,0,21,20,360,1,53298,1
2,31059,31917,31803,31973,27784,-3822,2677,-1798,6055,-4289,-13438,-42,456,-274,1,0,21,20,400,1,53298,1
2,31079,31876,31810,31974,27799,-4164,2154,-1575,5131,-4190,-12179,-28,482,-270,1,0,21,20,440,1,53298,1
2,31107,32102,31823,31975,27814,-4178,2130,-1679,2852,-4012,-11414,-14,506,-274,1,0,21,20,480,1,53298,1
2,31149,30073,31860,31976,27830,-4280,1530,-1597,1844,-3587,-10787,2,532,-242,1,0,21,20,520,1,53298,1
2,31182,30066,31870,31977,27845,-4383,1485,-1460,2815,-3679,-10299,43,561,-247,1,0,21,20,560,1,53298,1
2,31201,30085,31881,31978,27861,-4225,1476,-1780,1113,-3530,-10296,48,562,-238,1,0,21,20,600,1,53298,1
2,31229,30234,31890,31979,27876,-4002,1097,-1510,1076,-2734,-9542,85,585,-235,1,0,21,20,640,1,53298,1
2,31240,30244,31900,31980,27892,-4133,975,-1413,1022,-2433,-8462,100,584,-232,1,0,21,20,680,1,53298,1
2,31256,30326,31903,31981,27908,-4111,842,-1291,328,-2366,-7671,139,585,-235,1,0,21,20,720,1,53298,1
2,31260,30359,31902,31982,27924,-4144,450,-1171,-127,-2277,-6466,148,596,-218,1,0,21,20,760,1,53298,1
2,31260,30327,31904,31983,27940,-4379,199,-1195,435,-2498,-5496,156,596,-226,1,0,21,20,800,1,53298,1
2,31257,30292,31906,31984,27956,-4397,205,-1106,928,-2702,-5110,174,594,-216,1,0,21,20,840,1,53298,1
2,31249,30230,31901,31985,27972,-4317,169,-1085,453,-2494,-4745,189,589,-209,1,0,21,20,880,1,53298,1
2,31244,30234,31904,31986,27988,-4328,112,-1068,71,-2184,-4143,201,599,-215,1,0,21,20,920,1,53298,1
2,31234,30200,31900,31987,28004,-4358,93,-1046,112,-1963,-3289,212,592,-208,1,0,21,20,960,1,53298,1
1,31234,30233,31904,31988,0,-4344,299,-1197,115,-1629,-2253,218,594,-204,1,0,21,21,0,0,53298,1
2,31238,30232,31907,31989,27188,-4378,198,-1265,274,-1016,-961,225,591,-207,1,0,21,21,40,0,53298,1
2,31237,30166,31910,31990,27205,-4421,-152,-1187,343,-241,134,217,599,-189,1,0,21,21,80,0,53298,1
2,31236,30176,31910,31991,27222,-4585,-423,-862,627,235,624,214,590,-214,1,0,21,21,120,0,53298,1
2,31231,30231,31894,31992,27238,-4677,-684,-837,-224,368,329,213,587,-203,1,0,21,21,160,0,53298,1
2,31243,30583,31901,31993,27254,-4634,-834,-953,-1044,278,-519,220,588,-200,1,0,21,21,200,0,53298,1
2,31228,30112,31907,31994,27270,-4462,-149,-1266,-702,240,-982,222,590,-212,1,0,21,21,240,0,53298,1
2,31213,31205,31909,31995,27287,-3631,1794,-1894,-39,1153,287,227,593,-219,1,0,21,21,280,0,53298,1
2,31170,31183,31862,31996,27303,-1809,5639,-3007,-804,3534,6034,198,594,-220,1,0,21,21,320,0,53298,1
2,31113,32301,31821,31997,27319,-1044,7741,-4058,-2661,9090,18505,128,594,-232,1,0,21,21,360,0,53298,1
2,31068,32292,31793,31998,27335,-5638,7007,-4091,-1492,15536,32767,12,562,-268,1,0,21,21,400,0,53298,1
2,30990,33689,31776,31999,27351,-11412,4771,-3402,-199,18555,32767,-65,479,-307,1,0,21,21,440,0,53298,1
2,30941,33817,31724,32000,27367,-11239,1242,-2732,-2971,16723,32767,-92,384,-316,1,0,21,21,480,0,53298,1
2,30920,32446,31693,32001,27382,-5288,-37,-1878,-7064,11598,25397,-59,325,-317,1,0,21,21,520,0,53298,1
2,30905,31013,31666,32002,27397,-3728,502,-1086,-9431,10440,17870,-49,293,-305,1,0,21,21,560,0,53298,1
2,30892,32618,31607,32003,27413,-3486,-1292,-285,-6479,7916,17645,-37,273,-289,1,0,21,21,600,0,53298,1
2,30887,30225,31603,32004,27428,-2973,-3018,100,2024,4249,14654,-42,268,-300,1,0,21,21,640,0,53298,1
2,30891,30046,31610,32005,27442,-2337,-1964,865,5828,1499,6266,-34,272,-302,1,0,21,21,680,0,53298,1
2,30885,31200,31626,32006,27457,-2083,-941,565,2204,-2770,-2397,-33,261,-295,1,0,21,21,720,0,53298,1
2,30893,30983,31635,32007,27472,-1744,417,-1051,-2812,-5371,-8432,-47,271,-287,1,0,21,21,760,0,53298,1
2,30910,30906,31652,32008,27487,-2297,1287,-1483,-2934,-5886,-11630,-48,280,-290,1,0,21,21,800,0,53298,1
2,30914,30692,31673,32009,27501,-3142,2391,-2095,-2221,-7099,-15560,-61,309,-301,1,0,21,21,840,0,53298,1
2,31004,29965,31704,32010,27516,-3618,3230,-2686,-1165,-8491,-19615,-70,346,-296,1,0,21,21,880,0,53298,1
2,30995,31621,31697,32011,27531,-3371,3882,-2958,-1444,-7850,-21069,-66,388,-286,1,0,21,21,920,0,53298,1
2,30998,32764,31701,32012,27545,-3469,3402,-2656,1464,-6534,-18669,-65,419,-277,1,0,21,21,960,0,53298,1
1,30985,32503,31718,32013,0,-3951,2824,-2515,5089,-5690,-15687,-49,463,-273,1,0,21,22,0,0,53298,1
2,30993,32940,31752,32014,26718,-4097,2764,-2108,8715,-5900,-13409,-32,488,-282,1,0,21,22,40,0,53298,1
2,31020,33496,31790,32015,26734,-4145,2362,-2007,7616,-5565,-11604,-16,512,-280,1,0,21,22,80,0,53298,1
2,31049,34354,31830,32016,26751,-4185,2085,-2202,5188,-4522,-9901,0,534,-272,1,0,21,22,120,0,53298,1
2,31041,34220,31832,32017,26770,-4315,1973,-1853,5435,-3581,-8067,20,566,-266,1,0,21,22,160,0,53298,1
2,31064,34366,31855,32018,26789,-4525,1602,-1606,4759,-3160,-6957,41,563,-271,1,0,21,22,200,0,53298,1
2,31127,34397,31913,32019,26809,-4701,991,-1656,2070,-2663,-6843,66,574,-280,1,0,21,22,240,0,53298,1
2,31163,34412,31921,32020,26829,-4880,440,-1235,938,-2279,-6921,84,578,-274,1,0,21,22,280,0,53298,1
2,31232,34524,31952,32021,26849,-4655,187,-1308,874,-2932,-7774,117,567,-269,1,0,21,22,320,0,53298,1
2,31355,34663,32050,32022,26869,-4130,85,-1590,791,-2593,-8588,154,562,-272,1,0,21,22,360,0,53298,1
2,31535,34844,32147,32023,26889,-4102,4,-1397,1298,-1552,-8712,175,563,-261,1,0,21,22,400,0,53298,1
2,31682,35052,32238,32024,26909,-4159,-141,-1707,363,-432,-8879,201,551,-267,1,0,21,22,440,0,53298,1
2,31875,35204,32377,32025,26930,-3898,458,-1577,1283,245,-8454,224,540,-272,1,0,21,22,480,0,53298,1
2,32063,35354,32499,32026,26951,-3637,767,-1589,-46,931,-6921,256,532,-270,1,0,21,22,520,0,53298,1
2,32232,35601,32667,32027,26972,-2827,1653,-1803,-1256,1350,-4247,261,519,-273,1,0,21,22,560,0,53298,1
2,32213,35545,32587,32028,26991,171,5591,-2735,-1504,1944,1771,246,522,-286,1,0,21,22,600,0,53298,1
2,32135,35405,32530,32029,27010,2011,8788,-3105,-1261,4698,15680,192,538,-298,1,0,21,22,640,0,53298,1
2,31911,35273,32541,32030,27028,-2665,7527,-1727,-2325,9924,32767,81,551,-305,1,0,21,22,680,0,53298,1
2,31979,32933,32539,32031,27047,-11807,4160,-1579,-9536,12200,32767,-54,464,-302,1,0,21,22,720,0,53298,1
2,32050,30899,32717,32032,27067,-17076,114,-3040,-19578,8961,32767,-83,391,-259,1,0,21,22,760,0,53298,1
2,32021,34612,32626,32033,27085,-7323,-1741,-2300,-27922,2824,15296,-76,354,-232,1,0,21,22,800,0,53298,1
2,31979,35063,32589,32034,27103,-2809,-387,-2760,-21379,-2291,-3936,-63,357,-211,1,0,21,22,840,0,53298,1
2,31958,35197,32555,32035,27119,-729,109,-2372,-3779,-2521,-2936,-47,367,-207,1,0,21,22,880,0,53298,1
2,31915,33671,32542,32036,27137,-1221,185,-1551,10202,-117,3262,-56,346,-230,1,0,21,22,920,0,53298,1
2,31931,34725,32570,32037,27155,-2466,439,-315,13754,2004,5238,-63,343,-255,1,0,21,22,960,0,53298,1
1,31934,33613,32573,32038,0,-3679,405,-159,5559,3330,1768,-65,349,-251,1,0,21,23,0,1,53298,1
2,31935,33902,32569,32039,26251,-4626,769,-418,1394,942,-4184,-68,362,-260,1,0,21,23,40,1,53298,1
2,31946,32839,32565,32040,26269,-4300,1826,-1228,2031,-2894,-10758,-67,393,-253,1,0,21,23,80,1,53298,1
2,31956,31524,32579,32041,26287,-3431,2955,-1712,4247,-4750,-14391,-63,411,-251,1,0,21,23,120,1,53298,1
2,31969,32038,32575,32042,26304,-3254,3109,-1774,4479,-4282,-13966,-46,448,-254,1,0,21,23,160,1,53298,1
2,31986,32405,32585,32043,26322,-3530,2854,-1749,4292,-3884,-11795,-50,468,-244,1,0,21,23,200,1,53298,1
2,31995,33202,32590,32044,26340,-3816,2685,-1710,4397,-3895,-9990,-23,495,-237,1,0,21,23,240,1,53298,1
2,32031,33947,32626,32045,26357,-3967,2356,-1860,3003,-3359,-8681,-1,501,-235,1,0,21,23,280,1,53298,1
2,31861,30645,32445,32046,26373,-3853,2289,-1747,1995,-2483,-8388,18,506,-242,1,0,21,23,320,1,53298,1
2,32011,30783,32634,32047,26388,-3604,1951,-1700,310,-1288,-7661,25,517,-245,1,0,21,23,360,1,53298,1
2,32044,33948,32561,32048,26404,-4116,1058,-1571,-330,144,-5327,39,515,-235,1,0,21,23,400,1,53298,1
2,31992,34257,32550,32049,26420,-4749,479,-998,853,193,-4409,57,533,-235,1,0,21,23,440,1,53298,1
2,32056,34892,32589,32050,26435,-4695,314,-1381,-111,-236,-5253,75,539,-249,1,0,21,23,480,1,53298,1
2,32067,34682,32596,32051,26450,-4534,-85,-1977,-1015,620,-6491,83,541,-247,1,0,21,23,520,1,53298,1
2,32156,35598,32758,32052,26467,-4771,180,-1539,5956,-40,-6361,115,553,-265,1,0,21,23,560,1,53298,1
2,32222,35666,32798,32053,26484,-4397,731,-425,9465,-1713,-6226,130,550,-258,1,0,21,23,600,1,53298,1
2,32306,35716,32856,32054,26503,-4176,267,-1097,1571,-1768,-6890,147,551,-275,1,0,21,23,640,1,53298,1
2,32310,35746,32815,32055,26521,-3835,94,-1151,-1003,-1503,-7318,168,554,-270,1,0,21,23,680,1,53298,1
2,32342,35812,32846,32056,26540,-3789,431,-918,-110,-1629,-6794,200,542,-264,1,0,21,23,720,1,53298,1
2,32314,35765,32778,32057,26559,-3262,817,-716,1120,-2271,-5564,205,539,-265,1,0,21,23,760,1,53298,1
2,32289,35689,32776,32058,26578,-1988,1979,-719,293,-2775,-3577,212,544,-254,1,0,21,23,800,1,53298,1
2,32198,35439,32765,32059,26597,-618,2875,-1395,-3186,-1803,405,203,555,-243,1,0,21,23,840,1,53298,1
2,32201,35320,32767,32060,26615,-2240,2690,-1241,-1173,168,7914,160,570,-238,1,0,21,23,880,1,53298,1
2,32102,32990,32736,32061,26633,-6036,1998,53,1948,-124,14785,113,575,-205,1,0,21,23,920,1,53298,1
2,32066,32637,32715,32062,26649,-8979,694,-562,-9884,-1847,12581,76,550,-176,1,0,21,23,960,1,53298,1
1,31869,30608,32464,32063,0,-8353,-2397,-3290,-21849,-2959,4794,91,531,-163,1,0,21,24,0,0,53298,1
2,31810,31576,32396,32064,25779,-5555,-851,-1998,-13740,-2858,-578,102,524,-158,1,0,21,24,40,0,53298,1
2,31790,31731,32380,32065,25795,-3623,15,-1506,1304,-2440,-2292,105,531,-163,1,0,21,24,80,0,53298,1
2,31733,33476,32345,32066,25810,-2996,622,-1364,6409,-896,-743,108,522,-164,1,0,21,24,120,0,53298,1
2,31794,33894,32383,32067,25825,-3306,587,-1124,7390,1043,1271,90,520,-180,1,0,21,24,160,0,53298,1
2,32065,32881,32625,32068,25840,-4042,381,-769,5552,2209,1890,90,522,-182,1,0,21,24,200,0,53298,1
2,32030,31810,32590,32069,25856,-4695,247,-627,2106,2600,1280,83,533,-193,1,0,21,24,240,0,53298,1
2,32053,34821,32626,32070,25871,-4755,280,-464,-329,2170,-423,85,533,-205,1,0,21,24,280,0,53298,1
2,32084,35162,32641,32071,25886,-4634,792,-1269,-2405,1673,-1818,98,538,-204,1,0,21,24,320,0,53298,1
2,32069,34802,32618,32072,25900,-4342,973,-1295,1351,950,-1964,97,541,-203,1,0,21,24,360,0,53298,1
2,32075,34650,32623,32073,25914,-4321,988,-1059,2977,1023,-1635,101,541,-209,1,0,21,24,400,0,53298,1
2,32061,34197,32613,32074,25928,-4089,1151,-1130,2599,1562,-808,102,550,-218,1,0,21,24,440,0,53298,1
2,32091,35175,32647,32075,25943,-4145,906,-993,1771,1692,296,102,548,-218,1,0,21,24,480,0,53298,1
2,32128,35465,32682,32076,25958,-4269,485,-1114,-10,1854,908,97,541,-231,1,0,21,24,520,0,53298,1
2,32137,35477,32686,32077,25972,-4378,455,-1280,20,1998,1360,109,545,-245,1,0,21,24,560,0,53298,1
2,32134,35465,32679,32078,25987,-4529,84,-1174,680,1967,1144,109,543,-257,1,0,21,24,600,0,53298,1
2,32129,35460,32659,32079,26002,-5095,-602,-1185,1250,1940,-308,114,538,-256,1,0,21,24,640,0,53298,1
2,32165,35517,32672,32080,26017,-4793,-606,-702,2215,1208,-2883,117,547,-257,1,0,21,24,680,0,53298,1
2,32160,35441,32654,32081,26033,-4517,-413,-653,1030,81,-5377,141,539,-269,1,0,21,24,720,0,53298,1
2,32268,35536,32764,32082,26048,-4128,58,-833,-91,-742,-6908,160,544,-276,1,0,21,24,760,0,53298,1
2,32243,35493,32687,32083,26065,-3949,252,-942,-729,-1410,-7287,186,540,-266,1,0,21,24,800,0,53298,1
2,32284,35684,32765,32084,26083,-3730,933,-1211,-232,-1617,-6139,193,543,-257,1,0,21,24,840,0,53298,1
2,32282,35666,32798,32085,26100,-3419,1377,-1257,342,-1815,-4547,206,536,-264,1,0,21,24,880,0,53298,1
2,32281,34882,32781,32086,26119,-2695,3116,-2180,-711,-902,-1438,208,542,-266,1,0,21,24,920,0,53298,1
2,32184,35535,32718,32087,26136,-306,6147,-2497,-477,1607,5961,182,542,-260,1,0,21,24,960,0,53298,1
1,32232,35503,32764,32088,0,294,6494,-2802,-1068,6029,17889,116,546,-276,1,0,21,25,0,1,53298,1
2,31809,32728,32277,32089,25310,-3340,7142,-1784,2651,10367,32767,10,520,-286,1,0,21,25,40,1,53298,1
2,31139,30816,31836,32090,25326,-14509,4747,-2201,1290,11749,32767,-47,433,-287,1,0,21,25,80,1,53298,1
2,31151,30262,31831,32091,25341,-13503,-1940,-2866,-13432,10726,31866,-75,375,-267,1,0,21,25,120,1,53298,1
2,31106,30130,31852,32092,25356,-4449,-1195,-3060,-25731,1867,11282,-66,352,-246,1,0,21,25,160,1,53298,1
2,31080,30523,31837,32093,25369,-1565,2919,-2151,-7657,2003,2933,-54,348,-242,1,0,21,25,200,1,53298,1
2,31074,30460,31780,32094,25383,-1344,1481,-1236,53,3603,8107,-50,330,-244,1,0,21,25,240,1,53298,1
2,31091,30139,31750,32095,25396,-2667,-458,-97,6027,3634,13793,-44,304,-262,1,0,21,25,280,1,53298,1
2,31145,33437,31735,32096,25410,-3003,-847,-445,5958,2890,11703,-47,293,-263,1,0,21,25,320,1,53298,1
2,31146,33995,31781,32097,25424,-2916,-452,-1373,889,2933,4979,-45,293,-275,1,0,21,25,360,1,53298,1
2,31117,33937,31806,32098,25438,-2900,1205,-677,3742,-188,-4415,-60,310,-280,1,0,21,25,400,1,53298,1
2,31115,33733,31815,32099,25452,-2085,2898,-269,2545,-3411,-9914,-60,324,-282,1,0,21,25,440,1,53298,1
2,31151,33399,31822,32100,25466,-2402,2118,-1189,-503,-4572,-10883,-59,341,-281,1,0,21,25,480,1,53298,1
2,31158,33194,31808,32101,25479,-2947,1868,-1728,201,-4178,-11814,-58,354,-272,1,0,21,25,520,1,53298,1
2,31140,32573,31776,32102,25493,-3699,1985,-1779,703,-3672,-13651,-61,385,-271,1,0,21,25,560,1,53298,1
2,31158,32718,31776,32103,25507,-4049,1873,-1683,233,-3928,-15115,-46,422,-272,1,0,21,25,600,1,53298,1
2,31205,30280,31823,32104,25521,-4161,2317,-1651,2119,-4182,-15474,-35,451,-257,1,0,21,25,640,1,53298,1
2,31204,30968,31865,32105,25535,-4425,1747,-1544,5805,-5110,-14922,-19,477,-261,1,0,21,25,680,1,53298,1
2,31224,30499,31850,32106,25550,-4265,2364,-1989,5396,-5661,-14370,5,511,-255,1,0,21,25,720,1,53298,1
2,31291,34300,31897,32107,25565,-4593,1362,-1614,5253,-4702,-13150,29,531,-251,1,0,21,25,760,1,53298,1
2,31295,33330,31877,32108,25580,-5117,1063,-1736,4213,-4163,-12935,60,556,-240,1,0,21,25,800,1,53298,1
2,31327,30139,31909,32109,25596,-4951,324,-1347,1871,-4139,-14271,93,569,-239,1,0,21,25,840,1,53298,1
2,31320,33373,31882,32110,25612,-4575,109,-1474,1311,-3999,-15351,151,575,-237,1,0,21,25,880,1,53298,1
2,31343,30441,31952,32111,25628,-4309,325,-1482,1623,-3952,-15631,190,580,-242,1,0,21,25,920,1,53298,1
2,31342,32468,31920,32112,25645,-3761,665,-1760,1022,-2711,-14629,235,587,-229,1,0,21,25,960,1,53298,1
1,31351,31453,31919,32113,0,-3990,901,-1816,2051,-1114,-12204,288,578,-244,1,0,21,26,0,1,53298,1
2,31307,31956,31906,32114,24842,-4022,1263,-1681,2686,438,-8818,309,569,-243,1,0,21,26,40,1,53298,1
2,31305,33691,31913,32115,24860,-4104,1788,-1688,2540,1529,-4473,325,567,-257,1,0,21,26,80,1,53298,1
2,31252,34253,31962,32116,24878,-3917,4308,-2260,1328,2539,1702,306,586,-274,1,0,21,26,120,1,53298,1
2,32034,35643,32564,32117,24896,-1747,8707,-3603,-1733,4850,13313,243,603,-283,1,0,21,26,160,1,53298,1
2,31413,33875,31972,32118,24914,-2159,9557,-4413,-5584,10531,31862,128,614,-306,1,0,21,26,200,1,53298,1
2,31267,33418,31955,32119,24932,-9113,5395,-4745,-5005,17271,32767,-25,523,-319,1,0,21,26,240,1,53298,1
2,31107,32876,31885,32120,24949,-16888,2635,-3008,1995,20464,32767,-78,412,-344,1,0,21,26,280,1,53298,1
2,31060,30252,31827,32121,24964,-9018,-1079,-1621,-9050,16477,32767,-73,335,-317,1,0,21,26,320,1,53298,1
2,30996,30405,31774,32122,24979,-4003,-435,-2090,-21964,9284,15598,-43,317,-301,1,0,21,26,360,1,53298,1
2,31013,30224,31729,32123,24994,-2451,384,-1601,-19434,6914,13555,-31,289,-279,1,0,21,26,400,1,53298,1
2,31174,30385,31769,32124,25008,-3002,-2531,-293,-2069,4280,18052,-23,281,-279,1,0,21,26,440,1,53298,1
2,31139,30135,31753,32125,25024,-2646,-3426,-479,6701,1740,13671,-18,260,-276,1,0,21,26,480,1,53298,1
2,31102,30451,31773,32126,25038,-1989,-1548,-529,10783,902,5303,-32,262,-294,1,0,21,26,520,1,53298,1
2,31086,32279,31791,32127,25052,-1710,647,205,12033,-2125,-2882,-31,267,-313,1,0,21,26,560,1,53298,1
2,31087,30211,31830,32128,25067,-1740,1878,-940,474,-4666,-8314,-31,271,-309,1,0,21,26,600,1,53298,1
2,31113,30278,31812,32129,25082,-1712,2440,-2000,-4899,-5441,-10891,-55,287,-311,1,0,21,26,640,1,53298,1
2,31117,30210,31800,32130,25097,-2126,2785,-2089,-6593,-5392,-13238,-52,306,-284,1,0,21,26,680,1,53298,1
2,31147,30148,31795,32131,25112,-2462,3616,-2171,-8143,-5180,-15523,-56,324,-290,1,0,21,26,720,1,53298,1
2,31225,30256,31849,32132,25127,-2795,2869,-2172,-7077,-5068,-16536,-75,361,-263,1,0,21,26,760,1,53298,1
2,31346,30452,31934,32133,25142,-2998,2667,-2187,-948,-4181,-15559,-56,382,-264,1,0,21,26,800,1,53298,1
2,31418,30380,32020,32134,25158,-3341,2923,-1814,8169,-3673,-13049,-55,415,-283,1,0,21,26,840,1,53298,1
2,31480,30417,32102,32135,25173,-3703,2264,-1537,8005,-3561,-11126,-52,436,-286,1,0,21,26,880,1,53298,1
2,31533,30469,32152,32136,25189,-4337,1674,-1649,3961,-3067,-10646,-36,460,-282,1,0,21,26,920,1,53298,1
2,31586,30466,32203,32137,25204,-4223,1172,-1526,3482,-3309,-11756,-24,494,-288,1,0,21,26,960,1,53298,1
1,31605,30423,32248,32138,0,-4655,1239,-1738,5138,-4009,-12535,3,519,-275,1,0,21,27,0,1,53298,1
2,31635,31649,32241,32139,24372,-4746,632,-1223,5432,-4852,-13662,32,558,-282,1,0,21,27,40,1,53298,1
2,31695,31148,32256,32140,24388,-4971,357,-1210,3829,-5529,-15236,61,579,-257,1,0,21,27,80,1,53298,1
2,31765,34624,32266,32141,24405,-5169,301,-1341,185,-5571,-17182,124,594,-260,1,0,21,27,120,1,53298,1
2,31742,32280,32271,32142,24421,-5022,569,-1387,-1215,-5751,-18210,172,608,-248,1,0,21,27,160,1,53298,1
2,31726,30493,32273,32143,24439,-4781,813,-1583,-1289,-5251,-17363,226,592,-244,1,0,21,27,200,1,53298,1
2,31705,31608,32274,32144,24457,-4504,1145,-1555,728,-4916,-15129,269,587,-235,1,0,21,27,240,1,53298,1
2,31635,32293,32213,32145,24476,-4202,1397,-1864,2092,-4021,-11393,305,571,-237,1,0,21,27,280,1,53298,1
2,31551,34642,32092,32146,24495,-3834,1629,-1862,3638,-2580,-6935,323,563,-225,1,0,21,27,320,1,53298,1
2,31411,33738,31977,32147,24515,-3645,2220,-1943,3181,-401,-1682,318,556,-224,1,0,21,27,360,1,53298,1
2,31354,34449,31997,32148,24535,-3348,4400,-2305,1809,2304,5352,303,571,-229,1,0,21,27,400,1,53298,1
2,31286,30363,31923,32149,24555,-930,9447,-3591,-352,5590,17502,223,591,-235,1,0,21,27,440,1,53298,1
2,31282,34188,31929,32150,24574,-3278,8944,-3623,-1461,11759,32767,100,594,-268,1,0,21,27,480,1,53298,1
2,31302,31240,32026,32151,24595,-10802,4730,-3000,-1504,17558,32767,-36,520,-292,1,0,21,27,520,1,53298,1
2,32126,32372,32650,32152,24616,-16955,984,-2293,-4064,18569,32767,-88,382,-304,1,0,21,27,560,1,53298,1
2,32178,30770,32715,32153,24637,-8161,-2313,-1605,-12482,11775,28951,-82,342,-284,1,0,21,27,600,1,53298,1
2,32165,30910,32706,32154,24658,-3633,-1507,-1674,-13024,5178,9621,-54,316,-276,1,0,21,27,640,1,53298,1
2,32150,31018,32717,32155,24679,-1368,-864,-1666,-3420,2911,6732,-55,313,-281,1,0,21,27,680,1,53298,1
2,32188,32825,32735,32156,24700,-1788,-550,-697,8842,3387,10180,-51,295,-287,1,0,21,27,720,1,53298,1
2,32143,31895,32682,32157,24721,-2817,-1033,739,9064,3942,8554,-51,289,-289,1,0,21,27,760,1,53298,1
2,32192,32791,32697,32158,24741,-3189,-1094,859,259,1385,1437,-42,290,-302,1,0,21,27,800,1,53298,1
2,32177,32186,32698,32159,24761,-3348,-163,-485,-4053,-3205,-7370,-61,309,-297,1,0,21,27,840,1,53298,1
2,32183,31215,32722,32160,24781,-2724,1864,-1822,-3370,-5867,-14324,-69,329,-291,1,0,21,27,880,1,53298,1
2,32189,31646,32711,32161,24800,-2871,3196,-2186,1097,-6464,-15796,-75,355,-293,1,0,21,27,920,1,53298,1
2,32220,31191,32734,32162,24818,-3343,3682,-2314,3877,-6811,-15028,-71,383,-293,1,0,21,27,960,1,53298,1
1,32190,32743,32711,32163,0,-3529,4121,-2467,2532,-6762,-14597,-66,432,-284,1,0,21,28,0,1,53298,1
2,32158,31437,32685,32164,23905,-2799,5031,-2875,-561,-5672,-13624,-56,444,-276,1,0,21,28,40,1,53298,1
2,32114,31422,32624,32165,23922,-1876,5256,-2625,-2907,-2692,-9816,-48,458,-250,1,0,21,28,80,1,53298,1
2,32064,32538,32583,32166,23939,-2595,3927,-2136,-3601,150,-3029,-40,450,-254,1,0,21,28,120,1,53298,1
2,32034,33219,32541,32167,23953,-3346,2976,-1893,-3870,1755,2142,-42,454,-260,1,0,21,28,160,1,53298,1
2,32005,34101,32518,32168,23968,-3610,2102,-1430,-2274,2052,4597,-47,435,-257,1,0,21,28,200,1,53298,1
2,31934,31328,32442,32169,23983,-3886,1014,-1277,-1491,1406,4247,-53,435,-247,1,0,21,28,240,1,53298,1
2,31820,32592,32297,32170,23998,-3602,561,-1279,-1465,823,1961,-43,427,-265,1,0,21,28,280,1,53298,1
2,31750,30742,32286,32171,24014,-3414,688,-1189,274,664,-181,-39,421,-261,1,0,21,28,320,1,53298,1
2,31559,33558,32145,32172,24030,-3364,1041,-1093,1987,-158,-2075,-38,438,-270,1,0,21,28,360,1,53298,1
2,31618,32689,32235,32173,24045,-2677,2732,-1346,2391,-104,-2717,-42,430,-272,1,0,21,28,400,1,53298,1
2,31620,32718,32212,32174,24061,-2693,2989,-1382,2000,-208,-955,-34,442,-276,1,0,21,28,440,1,53298,1
2,31605,32710,32182,32175,24076,-3079,2884,-1459,-1199,369,834,-39,435,-273,1,0,21,28,480,1,53298,1
2,31643,33117,32182,32176,24090,-3441,2488,-1256,-3139,295,1590,-40,432,-260,1,0,21,28,520,1,53298,1
2,31640,31541,32173,32177,24105,-3609,2534,-946,-5130,-663,1145,-47,427,-255,1,0,21,28,560,1,53298,1
2,31636,34661,32163,32178,24120,-3423,2620,-815,-7349,-1555,934,-37,425,-239,1,0,21,28,600,1,53298,1
2,31647,31466,32151,32179,24136,-3235,1992,-646,-7313,-2621,1312,-41,413,-231,1,0,21,28,640,1,53298,1
2,31640,31561,32154,32180,24153,-3369,967,-583,-7729,-2748,1234,-35,417,-213,1,0,21,28,680,1,53298,1
2,31470,30767,32031,32181,24169,-3720,309,-218,-5468,-3320,-269,-35,415,-205,1,0,21,28,720,1,53298,1
2,31224,30467,31858,32182,24186,-4188,214,400,-3609,-5361,-3456,-21,415,-201,1,0,21,28,760,1,53298,1
2,31227,30213,31830,32183,24203,-5730,-1160,224,-2887,-6442,-8780,8,432,-178,1,0,21,28,800,1,53298,1
2,31169,31748,31841,32184,24219,-8048,-2167,2020,-3514,-9424,-16976,35,449,-161,1,0,21,28,840,1,53298,1
2,31474,33335,32026,32185,24237,-8917,-2267,2185,-4571,-15615,-26490,90,466,-132,1,0,21,28,880,1,53298,1
2,31768,30852,32384,32186,24257,-8226,-1046,904,-7508,-19950,-32768,184,452,-110,1,0,21,28,920,1,53298,1
2,31750,30658,32367,32187,24278,-7083,1542,410,-2502,-22444,-32768,249,429,-77,1,0,21,28,960,1,53298,1
1,31630,30736,32249,32188,0,-6459,2995,-658,-1174,-20137,-32768,290,396,-60,1,0,21,29,0,0,53298,1
2,31646,30475,32264,32189,23439,-5459,4437,-770,-626,-13073,-32768,312,366,-62,1,0,21,29,40,0,53298,1
2,31667,32872,32252,32190,23459,-4475,5258,-1277,-1033,-5781,-22774,333,347,-81,1,0,21,29,80,0,53298,1
2,31722,30627,32298,32191,23479,-2915,4992,-1519,1338,-227,-5533,322,348,-82,1,0,21,29,120,0,53298,1
2,31751,30557,32314,32192,23499,-3746,1821,472,-931,5444,10254,312,358,-78,1,0,21,29,160,0,53298,1
2,31777,30597,32341,32193,23519,-4676,-1240,1141,-3140,7491,16178,297,383,-77,1,0,21,29,200,0,53298,1
2,31795,30524,32349,32194,23539,-4446,-1139,1284,-898,6672,16532,293,389,-77,1,0,21,29,240,0,53298,1
2,31796,30673,32342,32195,23558,-4339,-898,1204,-1299,6496,16805,283,405,-65,1,0,21,29,280,0,53298,1
2,31842,30924,32387,32196,23578,-4538,-1449,430,-3478,6916,17162,276,426,-82,1,0,21,29,320,0,53298,1
2,31841,30592,32399,32197,23597,-4653,-423,299,3483,6287,18060,243,445,-97,1,0,21,29,360,0,53298,1
2,31836,30781,32377,32198,23615,-5228,8,286,5785,6795,18234,214,452,-110,1,0,21,29,400,0,53298,1
2,31841,30611,32380,32199,23635,-5666,-3,-10,4327,8287,16894,177,459,-123,1,0,21,29,440,0,53298,1
2,31805,31479,32332,32200,23653,-5635,399,-9,6068,9200,15068,140,466,-128,1,0,21,29,480,0,53298,1
2,31791,31395,32326,32201,23672,-5388,1021,121,7596,9790,13209,110,466,-148,1,0,21,29,520,0,53298,1
2,31792,30684,32318,32202,23689,-4950,1543,208,6661,9969,11723,73,465,-159,1,0,21,29,560,0,53298,1
2,31778,30635,32306,32203,23707,-4508,1717,-153,4709,9547,11094,43,463,-163,1,0,21,29,600,0,53298,1
2,31761,30601,32281,32204,23725,-4160,1836,-243,4432,8924,11319,22,458,-188,1,0,21,29,640,0,53298,1
2,31744,30614,32266,32205,23742,-4195,1926,-302,2713,8691,11522,-13,449,-207,1,0,21,29,680,0,53298,1
2,31729,30660,32255,32206,23759,-4236,2342,-406,2126,7711,11697,-27,423,-223,1,0,21,29,720,0,53298,1
2,31706,30753,32239,32207,23776,-3968,2944,-483,2304,6292,11803,-37,417,-237,1,0,21,29,760,0,53298,1
2,31686,30845,32214,32208,23793,-3504,3150,-681,100,5712,12291,-44,390,-242,1,0,21,29,800,0,53298,1
2,31663,30769,32198,32209,23809,-3232,3562,-871,-1647,5088,13539,-63,363,-237,1,0,21,29,840,0,53298,1
2,31640,30940,32182,32210,23826,-3050,3251,-1004,-3463,4602,14835,-62,348,-232,1,0,21,29,880,0,53298,1
2,31616,31338,32156,32211,23843,-3286,2317,-1164,-4305,4203,14968,-53,313,-243,1,0,21,29,920,0,53298,1
2,31582,34129,32153,32212,23859,-2934,1620,-998,-3133,3315,12597,-57,301,-247,1,0,21,29,960,0,53298,1
1,31559,34711,32149,32213,0,-2495,937,-297,-1016,2132,8850,-52,286,-236,1,0,21,30,0,0,53298,1
2,31355,30684,31939,32214,22967,-2271,607,256,-545,163,4454,-43,281,-231,1,0,21,30,40,0,53298,1
2,31293,30619,31833,32215,22983,-2572,-331,725,-3764,-2043,-869,-56,292,-232,1,0,21,30,80,0,53298,1
2,31278,31066,31825,32216,23000,-3497,-924,794,-9508,-3836,-8544,-61,307,-197,1,0,21,30,120,0,53298,1
2,31291,30693,31840,32217,23017,-5447,-1123,1252,-12052,-6657,-18111,-37,323,-187,1,0,21,30,160,0,53298,1
2,31255,30719,31804,32218,23034,-7549,-804,1326,-11970,-10658,-28711,-19,367,-165,1,0,21,30,200,0,53298,1
2,31331,30733,31855,32219,23052,-8751,-616,744,-10465,-13790,-32768,47,419,-153,1,0,21,30,240,0,53298,1
2,31351,30525,31868,32220,23070,-8404,1120,487,-5593,-16242,-32768,129,455,-123,1,0,21,30,280,0,53298,1
2,31370,30720,31907,32221,23089,-7742,3739,-712,-1764,-16435,-32768,211,447,-87,1,0,21,30,320,0,53298,1
2,31357,30216,31901,32222,23108,-5417,6752,-922,4720,-11686,-32768,251,431,-69,1,0,21,30,360,0,53298,1
2,31360,30287,31905,32223,23127,-5574,6111,-33,5243,-5262,-25850,271,411,-57,1,0,21,30,400,0,53298,1
2,31368,30316,31902,32224,23145,-5577,3694,465,-3512,-1002,-15146,281,405,-59,1,0,21,30,440,0,53298,1
2,31362,30324,31895,32225,23164,-4711,1425,-14,-5762,371,-6582,286,408,-66,1,0,21,30,480,0,53298,1
2,31364,30365,31899,32226,23183,-3875,949,-89,2141,-748,431,287,403,-71,1,0,21,30,520,0,53298,1
2,31355,30326,31909,32227,23202,-3201,1356,542,5355,607,5548,277,405,-71,1,0,21,30,560,0,53298,1
2,31351,30299,31901,32228,23220,-3188,1131,352,1384,3118,9810,271,411,-69,1,0,21,30,600,0,53298,1
2,31353,30343,31900,32229,23239,-3574,949,298,172,5157,13853,251,437,-79,1,0,21,30,640,0,53298,1
2,31364,30330,31899,32230,23258,-4294,88,-309,-2387,7400,16892,232,440,-96,1,0,21,30,680,0,53298,1
2,31368,30337,31894,32231,23276,-5141,-294,-276,-1441,9221,17842,192,462,-112,1,0,21,30,720,0,53298,1
2,31364,30326,31871,32232,23295,-5721,-658,-211,823,10005,16607,166,466,-130,1,0,21,30,760,0,53298,1
2,31367,30328,31852,32233,23314,-5921,-643,-200,4436,10327,13936,114,478,-130,1,0,21,30,800,0,53298,1
2,31364,30360,31840,32234,23333,-5654,-155,28,7616,10439,9931,95,479,-149,1,0,21,30,840,0,53298,1
2,31360,30449,31829,32235,23352,-5139,719,46,6939,10684,6211,73,487,-171,1,0,21,30,880,0,53298,1
2,31355,30485,31811,32236,23370,-4346,1901,309,6861,9747,5051,58,498,-182,1,0,21,30,920,0,53298,1
2,31346,30456,31792,32237,23387,-3658,2520,331,4917,8404,6525,45,497,-203,1,0,21,30,960,0,53298,1
1,31333,30430,31787,32238,0,-3726,2630,104,1808,6886,8744,31,481,-209,1,0,21,31,0,0,53298,1
2,31311,30434,31772,32239,22501,-3699,2567,-375,426,5263,10994,-1,479,-209,1,0,21,31,40,0,53298,1
2,31293,30396,31760,32240,22518,-4008,2721,-674,-429,4418,12543,-28,450,-224,1,0,21,31,80,0,53298,1
2,31261,30385,31752,32241,22535,-4088,2522,-1131,-3381,4670,12953,-31,429,-241,1,0,21,31,120,0,53298,1
2,31247,30476,31746,32242,22553,-3890,2643,-1329,-2199,4597,12847,-48,402,-234,1,0,21,31,160,0,53298,1
2,31233,30370,31725,32243,22570,-3509,2506,-1241,-450,4387,12551,-52,380,-242,1,0,21,31,200,0,53298,1
2,31216,30496,31711,32244,22587,-3231,2587,-1146,-219,4737,12438,-56,360,-254,1,0,21,31,240,0,53298,1
2,31191,30477,31681,32245,22604,-2912,2562,-806,1861,3586,12581,-58,330,-250,1,0,21,31,280,0,53298,1
2,31153,30434,31662,32246,22621,-2820,2012,-543,1153,2955,11829,-52,318,-258,1,0,21,31,320,0,53298,1
2,31126,30368,31637,32247,22638,-2740,1260,-242,1336,1763,9480,-53,303,-269,1,0,21,31,360,0,53298,1
2,31113,30148,31611,32248,22655,-2633,665,80,-471,103,5210,-50,304,-258,1,0,21,31,400,0,53298,1
2,31110,30667,31634,32249,22672,-2831,1,54,-4709,-1581,-585,-49,311,-245,1,0,21,31,440,0,53298,1
2,31115,30021,31648,32250,22688,-3310,-74,754,-6583,-4311,-7256,-56,312,-224,1,0,21,31,480,0,53298,1
2,31111,30892,31638,32251,22703,-4721,538,1397,-9954,-8191,-14281,-44,326,-204,1,0,21,31,520,0,53298,1
2,31178,30397,31712,32252,22720,-6146,-192,1060,-20633,-10574,-22727,-31,369,-181,1,0,21,31,560,0,53298,1
2,31212,30691,31748,32253,22737,-7142,-197,922,-17053,-13185,-30751,16,402,-152,1,0,21,31,600,0,53298,1
2,31254,30692,31791,32254,22755,-8284,-476,373,-11153,-14573,-32768,87,443,-129,1,0,21,31,640,0,53298,1
2,31270,30651,31800,32255,22773,-8176,510,-119,-3087,-15075,-32768,176,450,-110,1,0,21,31,680,0,53298,1
2,31282,30668,31825,32256,22792,-7864,2300,171,5580,-14286,-32768,239,427,-73,1,0,21,31,720,0,53298,1
2,31257,30096,31806,32257,22811,-7563,3319,225,5974,-10808,-32768,281,403,-49,1,0,21,31,760,0,53298,1
2,31248,34142,31802,32258,22829,-6809,4096,169,3884,-7265,-32768,298,388,-52,1,0,21,31,800,0,53298,1
2,31255,34242,31806,32259,22847,-5248,4461,95,3102,-4208,-22771,311,373,-69,1,0,21,31,840,0,53298,1
2,31252,34226,31798,32260,22865,-3347,4040,-70,2881,-2108,-9719,316,368,-66,1,0,21,31,880,0,53298,1
2,31257,34231,31803,32261,22883,-2421,3135,-370,1026,287,3020,297,371,-71,1,0,21,31,920,0,53298,1
2,31262,34239,31808,32262,22901,-3613,1032,-151,-990,3483,13406,289,381,-61,1,0,21,31,960,0,53298,1
1,31275,34278,31815,32263,0,-4116,-300,427,349,5456,17964,280,396,-54,1,0,21,32,0,0,53298,1
2,31277,34290,31812,32264,22034,-5033,-1361,884,312,6560,18857,267,397,-63,1,0,21,32,40,0,53298,1
2,31278,34296,31800,32265,22053,-5032,-1467,1068,-1639,7623,16896,248,420,-70,1,0,21,32,80,0,53298,1
2,31269,34188,31785,32266,22071,-4521,-484,932,-745,7481,15322,226,442,-90,1,0,21,32,120,0,53298,1
2,31268,34172,31773,32267,22090,-4437,256,351,1239,7368,15601,197,451,-91,1,0,21,32,160,0,53298,1
2,31264,34200,31772,32268,22107,-4558,1078,-20,3997,8643,16560,173,443,-105,1,0,21,32,200,0,53298,1
2,31256,34186,31758,32269,22125,-5126,1494,-290,5958,10150,17940,126,460,-122,1,0,21,32,240,0,53298,1
2,31249,34160,31745,32270,22144,-5680,1779,-441,7988,11320,18644,73,453,-139,1,0,21,32,280,0,53298,1
2,31232,34119,31739,32271,22162,-5831,1961,-447,6938,12388,17237,26,448,-156,1,0,21,32,320,0,53298,1
2,31210,34071,31710,32272,22180,-5334,2264,-517,5951,12252,15420,-17,435,-189,1,0,21,32,360,0,53298,1
2,31169,31229,31686,32273,22198,-4455,2908,-90,5451,11414,14542,-29,425,-209,1,0,21,32,400,0,53298,1
2,31185,30498,31713,32274,22216,-4150,2634,-137,2918,10139,15010,-49,383,-221,1,0,21,32,440,0,53298,1
2,31169,30547,31700,32275,22233,-3986,2425,-155,992,8779,15460,-61,379,-237,1,0,21,32,480,0,53298,1
2,31151,30550,31691,32276,22249,-3844,2348,-98,-214,7178,14707,-69,351,-239,1,0,21,32,520,0,53298,1
2,31137,30588,31683,32277,22265,-3198,2226,-156,-3440,5655,12523,-56,330,-240,1,0,21,32,560,0,53298,1
2,31131,30590,31678,32278,22282,-2940,1858,-437,-5462,4208,10751,-55,303,-245,1,0,21,32,600,0,53298,1
2,31116,30597,31670,32279,22298,-2603,1247,-663,-5107,2640,8174,-58,304,-226,1,0,21,32,640,0,53298,1
2,31112,30605,31667,32280,22315,-2357,553,-419,-3116,1167,4779,-52,300,-228,1,0,21,32,680,0,53298,1
2,31113,30602,31668,32281,22331,-2485,371,-541,-1187,148,685,-54,298,-220,1,0,21,32,720,0,53298,1
2,31122,30605,31670,32282,22347,-2883,-228,-366,-201,-1355,-5004,-52,308,-228,1,0,21,32,760,0,53298,1
2,31129,30618,31680,32283,22363,-3249,14,-762,1168,-2567,-11172,-58,326,-240,1,0,21,32,800,0,53298,1
2,31148,30591,31684,32284,22379,-3638,508,-1042,5111,-3351,-15822,-58,358,-246,1,0,21,32,840,0,53298,1
2,31140,30617,31714,32285,22396,-3760,1970,-1430,8194,-3759,-18157,-51,393,-253,1,0,21,32,880,0,53298,1
2,31102,30653,31748,32286,22414,-4205,2663,-1772,7179,-2966,-18201,-46,446,-246,1,0,21,32,920,0,53298,1
2,31040,34163,31732,32287,22433,-4452,3364,-2005,7433,-2736,-17158,-30,474,-240,1,0,21,32,960,0,53298,1
1,31095,34452,31761,32288,0,-4788,3450,-1778,7725,-3278,-15799,7,503,-255,1,0,21,33,0,0,53298,1
2,31165,30141,31781,32289,21567,-4437,3353,-1857,4815,-3525,-14387,14,534,-242,1,0,21,33,40,0,53298,1
2,31180,30550,31791,32290,21588,-3737,3427,-2017,2010,-2807,-12366,41,555,-243,1,0,21,33,80,0,53298,1
2,31191,30353,31800,32291,21609,-2936,4086,-2215,655,-900,-8641,58,554,-240,1,0,21,33,120,0,53298,1
2,31178,30460,31802,32292,21628,-1459,5866,-2354,-64,1701,-2341,53,557,-253,1,0,21,33,160,0,53298,1
2,31133,30377,31793,32293,21647,-15,8274,-2961,-2159,5506,9410,26,538,-270,1,0,21,33,200,0,53298,1
2,31044,30462,31740,32294,21665,-1528,9437,-2838,-2779,10162,25556,-26,480,-288,1,0,21,33,240,0,53298,1
2,30956,30552,31689,32295,21680,-9021,7358,-2885,-4816,13046,32767,-75,389,-295,1,0,21,33,280,0,53298,1
2,30938,30260,31614,32296,21696,-12927,-1054,-2212,-12384,11417,32767,-73,311,-275,1,0,21,33,320,0,53298,1
2,30860,30876,31630,32297,21711,-2496,-519,-3282,-22277,7598,20858,-53,293,-239,1,0,21,33,360,0,53298,1
2,30852,29997,31579,32298,21726,-2042,2196,-1008,345,6304,15042,-42,282,-264,1,0,21,33,400,0,53298,1
2,30908,29989,31596,32299,21741,-3337,-795,414,7685,5235,15307,-32,256,-264,1,0,21,33,440,0,53298,1
2,31112,30486,31606,32300,21756,-2142,-2067,-97,5025,2132,12569,-20,256,-274,1,0,21,33,480,0,53298,1
2,31110,29990,31627,32301,21771,-1799,-1304,-75,6201,1502,5501,-37,253,-291,1,0,21,33,520,0,53298,1
2,31113,30320,31665,32302,21786,-1694,657,815,1835,-865,-3009,-29,261,-277,1,0,21,33,560,0,53298,1
2,31122,30475,31663,32303,21801,-1296,1945,-744,-6099,-3904,-7810,-36,260,-270,1,0,21,33,600,0,53298,1
2,31129,30053,31651,32304,21817,-1541,1629,-1237,-4642,-4812,-9489,-52,278,-266,1,0,21,33,640,0,53298,1
2,31126,30154,31645,32305,21832,-2304,2148,-1307,-3182,-5483,-13398,-51,291,-261,1,0,21,33,680,0,53298,1
2,31139,30055,31673,32306,21848,-2847,3214,-1885,-4930,-5908,-18662,-63,307,-247,1,0,21,33,720,0,53298,1
2,31151,30034,31670,32307,21863,-2280,3561,-1638,-2236,-5917,-19638,-65,341,-253,1,0,21,33,760,0,53298,1
2,31187,30032,31683,32308,21879,-2961,3295,-1776,1034,-4745,-17175,-63,365,-247,1,0,21,33,800,0,53298,1
2,31197,30029,31695,32309,21894,-3249,3878,-2205,4803,-2797,-14605,-64,404,-242,1,0,21,33,840,0,53298,1
2,31206,30032,31712,32310,21910,-3417,3417,-1768,8384,-2990,-12052,-54,420,-254,1,0,21,33,880,0,53298,1
2,31235,30186,31741,32311,21925,-3618,2326,-1707,6381,-1977,-10330,-47,447,-261,1,0,21,33,920,0,53298,1
2,31231,30138,31757,32312,21940,-3895,2068,-2290,4361,-340,-10010,-46,476,-268,1,0,21,33,960,0,53298,1
1,31263,30350,31793,32313,0,-4115,1559,-1648,9757,-903,-9764,-30,506,-282,1,0,21,34,0,1,53298,1
2,31277,32331,31832,32314,21097,-4469,1339,-1498,12158,-2515,-9524,-13,515,-295,1,0,21,34,40,1,53298,1
2,31296,30130,31842,32315,21114,-4269,1775,-1475,9800,-3384,-9963,19,539,-285,1,0,21,34,80,1,53298,1
2,31330,30090,31857,32316,21131,-4381,829,-1377,6689,-3819,-10004,41,565,-293,1,0,21,34,120,1,53298,1
2,31311,30339,31863,32317,21148,-4909,104,-1585,4353,-3966,-10566,74,578,-298,1,0,21,34,160,1,53298,1
2,31372,30183,31856,32318,21165,-5057,-9,-1253,3971,-4492,-12626,107,599,-281,1,0,21,34,200,1,53298,1
2,31411,31523,31853,32319,21184,-4824,-307,-1156,2288,-4902,-14472,160,592,-292,1,0,21,34,240,1,53298,1
2,31432,32184,31892,32320,21203,-5003,-473,-1701,546,-4690,-15887,220,592,-280,1,0,21,34,280,1,53298,1
2,31417,30413,31913,32321,21221,-4762,-188,-1402,1597,-4224,-16592,276,582,-280,1,0,21,34,320,1,53298,1
2,31398,32461,31932,32322,21239,-4803,-198,-1091,1331,-3684,-16220,319,553,-273,1,0,21,34,360,1,53298,1
2,31387,33031,31968,32323,21259,-4696,-297,-943,293,-3647,-15362,360,530,-254,1,0,21,34,400,1,53298,1
2,31452,30646,32023,32324,21278,-4569,-155,-1208,-55,-3867,-13535,397,485,-251,1,0,21,34,440,1,53298,1
2,31430,30322,32015,32325,21299,-3877,690,-1223,427,-3797,-10747,410,460,-244,1,0,21,34,480,1,53298,1
2,31731,30655,32296,32326,21321,-3803,412,-1539,-863,-2887,-6213,417,433,-251,1,0,21,34,520,1,53298,1
2,31786,35203,32389,32327,21343,-3504,704,-1619,-10,-1938,-1148,407,443,-249,1,0,21,34,560,1,53298,1
2,31951,35507,32568,32328,21365,-3193,1181,-1798,-756,-130,3665,409,459,-247,1,0,21,34,600,1,53298,1
2,31901,30794,32452,32329,21386,-3080,1643,-2475,-3789,2848,8665,386,502,-264,1,0,21,34,640,1,53298,1
2,31739,30794,32257,32330,21407,-3275,2626,-3083,-1761,5752,15490,338,548,-266,1,0,21,34,680,1,53298,1
2,31764,30593,32173,32331,21427,-3929,4566,-3261,2835,8645,24848,252,602,-278,1,0,21,34,720,1,53298,1
2,31843,30662,32129,32332,21447,-5458,5935,-3672,703,13476,32767,123,621,-319,1,0,21,34,760,1,53298,1
2,31545,30635,32099,32333,21466,-8340,6181,-3735,-6296,17968,32767,0,550,-338,1,0,21,34,800,1,53298,1
2,31426,30648,32038,32334,21486,-13860,4977,-3494,-15620,19074,32767,-75,435,-325,1,0,21,34,840,1,53298,1
2,31355,30291,31944,32335,21504,-10673,50,-3302,-25641,14592,32767,-79,347,-291,1,0,21,34,880,1,53298,1
2,31307,30536,31887,32336,21521,-5001,-324,-2603,-22168,7731,25134,-51,289,-263,1,0,21,34,920,1,53298,1
2,31310,30631,31835,32337,21538,-3230,-1139,-1848,-13204,5437,18990,-42,282,-256,1,0,21,34,960,1,53298,1
1,31290,30439,31822,32338,0,-2670,-2678,-1243,-1322,3875,16879,-33,271,-265,1,0,21,35,0,0,53298,1
2,31274,30459,31823,32339,20631,-2539,-2813,456,9491,2384,11538,-29,261,-259,1,0,21,35,40,0,53298,1
2,31282,30386,31833,32340,20647,-2167,-1949,936,7355,-38,2314,-33,269,-273,1,0,21,35,80,0,53298,1
2,31283,30385,31843,32341,20664,-2036,-190,-352,-850,-2296,-6229,-36,266,-272,1,0,21,35,120,0,53298,1
2,31287,30409,31855,32342,20681,-1811,1855,-1145,-1117,-3625,-10300,-51,279,-277,1,0,21,35,160,0,53298,1
2,31296,30434,31872,32343,20697,-2565,2926,-1565,1756,-4751,-11528,-62,294,-284,1,0,21,35,200,0,53298,1
2,31291,30465,31882,32344,20712,-2602,4411,-2097,2725,-5803,-14441,-67,319,-275,1,0,21,35,240,0,53298,1
2,31300,30458,31889,32345,20729,-2332,4638,-2305,-3,-5594,-15900,-67,341,-273,1,0,21,35,280,0,53298,1
2,31311,30448,31883,32346,20745,-2636,3791,-2456,-2099,-4178,-14897,-78,370,-268,1,0,21,35,320,0,53298,1
2,31306,30443,31883,32347,20761,-2566,3382,-2271,1708,-3229,-12800,-65,389,-275,1,0,21,35,360,0,53298,1
2,31318,30423,31895,32348,20777,-3247,2609,-1931,5545,-2418,-10408,-63,419,-291,1,0,21,35,400,0,53298,1
2,31345,30464,31913,32349,20793,-3628,2116,-1521,7727,-2488,-9677,-60,436,-282,1,0,21,35,440,0,53298,1
2,31357,30474,31921,32350,20810,-3495,1880,-1667,5968,-2406,-9992,-54,460,-282,1,0,21,35,480,0,53298,1
2,31389,30472,31946,32351,20826,-3587,1513,-1505,4738,-1553,-9875,-47,481,-293,1,0,21,35,520,0,53298,1
2,31411,30490,31964,32352,20841,-3968,1300,-1471,4560,-1730,-9629,-19,505,-301,1,0,21,35,560,0,53298,1
2,31441,30472,31970,32353,20858,-4073,1504,-1591,3982,-2562,-10328,0,536,-304,1,0,21,35,600,0,53298,1
2,31503,30481,31988,32354,20874,-4215,1103,-1522,3246,-2922,-10479,22,560,-304,1,0,21,35,640,0,53298,1
2,31554,30484,32005,32355,20890,-4429,1114,-1948,2548,-3375,-10966,41,579,-299,1,0,21,35,680,0,53298,1
2,31610,30469,32009,32356,20906,-4192,1195,-1942,2432,-2925,-11334,74,598,-296,1,0,21,35,720,0,53298,1
2,31678,30490,32013,32357,20923,-4366,519,-1606,3054,-2628,-10808,111,607,-301,1,0,21,35,760,0,53298,1
2,31738,30494,32036,32358,20940,-4283,187,-1543,2344,-2553,-10906,149,623,-309,1,0,21,35,800,0,53298,1
2,31771,30493,32049,32359,20958,-4387,-266,-1462,2322,-2143,-11153,184,624,-308,1,0,21,35,840,0,53298,1
2,31763,30504,32072,32360,20974,-4764,-468,-1369,3555,-2301,-11096,225,623,-295,1,0,21,35,880,0,53298,1
2,31722,30490,32106,32361,20992,-4840,-325,-1077,3913,-2794,-11254,265,609,-297,1,0,21,35,920,0,53298,1
2,31652,30391,32111,32362,21010,-4987,-298,-1053,2734,-3599,-11236,302,598,-290,1,0,21,35,960,0,53298,1
1,31614,30481,32116,32363,0,-4891,-419,-1146,908,-4113,-10867,363,567,-279,1,0,21,36,0,1,53298,1
2,31597,30483,32109,32364,20165,-5012,-845,-1249,-387,-4148,-10449,379,545,-267,1,0,21,36,40,1,53298,1
2,31580,30480,32111,32365,20184,-4714,-1055,-1238,-474,-3953,-10174,401,517,-261,1,0,21,36,80,1,53298,1
2,31575,30474,32115,32366,20204,-4713,-1645,-1457,-481,-3295,-9960,425,485,-251,1,0,21,36,120,1,53298,1
2,31561,30452,32103,32367,20223,-4058,-537,-1414,1152,-2591,-9549,428,450,-244,1,0,21,36,160,1,53298,1
2,31554,30311,32093,32368,20243,-3142,824,-1889,1991,-1395,-6553,431,451,-245,1,0,21,36,200,1,53298,1
2,31548,30515,32107,32369,20262,-2406,2532,-2004,2995,613,-22,421,443,-247,1,0,21,36,240,1,53298,1
2,31562,30523,32121,32370,20281,-2252,3818,-2617,-146,3646,8830,399,503,-259,1,0,21,36,280,1,53298,1
2,31588,32537,32108,32371,20299,-3116,4920,-3852,-2166,7673,20511,340,570,-282,1,0,21,36,320,1,53298,1
2,31855,30291,32057,32372,20318,-4402,7985,-4024,1266,11749,32767,212,616,-306,1,0,21,36,360,1,53298,1
2,31539,31011,32037,32373,20337,-9188,8067,-4416,-2931,17578,32767,39,609,-347,1,0,21,36,400,1,53298,1
2,31343,30476,31992,32374,20355,-15779,5630,-4315,-11043,20814,32767,-70,466,-350,1,0,21,36,440,1,53298,1
2,31285,30437,31921,32375,20371,-13693,-719,-3623,-22586,18585,32767,-82,352,-306,1,0,21,36,480,1,53298,1
2,31243,30564,31868,32376,20388,-6167,-1923,-2654,-27965,12979,27806,-62,304,-260,1,0,21,36,520,1,53298,1
2,31254,30371,31807,32377,20405,-3724,-2074,-1931,-18281,7546,17964,-36,276,-250,1,0,21,36,560,1,53298,1
2,31217,30249,31735,32378,20421,-2562,-2941,-1106,3710,3877,17699,-26,272,-276,1,0,21,36,600,1,53298,1
2,31196,30476,31769,32379,20438,-2529,-2280,638,22407,2363,15402,-22,260,-310,1,0,21,36,640,1,53298,1
2,31200,32647,31750,32380,20455,-2399,-1334,1778,15258,438,6446,-20,254,-306,1,0,21,36,680,1,53298,1
2,31187,31352,31759,32381,20472,-2069,-754,376,-3729,-2421,-4024,-27,261,-299,1,0,21,36,720,1,53298,1
2,31184,33186,31761,32382,20489,-1716,1031,-1264,-10105,-4127,-10315,-39,275,-285,1,0,21,36,760,1,53298,1
2,31208,33730,31783,32383,20505,-2113,1978,-1872,-3445,-5504,-11625,-59,281,-283,1,0,21,36,800,1,53298,1
2,31217,33838,31809,32384,20521,-2888,2898,-2668,3038,-6557,-13672,-71,309,-301,1,0,21,36,840,1,53298,1
2,31226,34080,31822,32385,20538,-2929,3910,-2513,6545,-7868,-16611,-69,339,-301,1,0,21,36,880,1,53298,1
2,31205,33272,31797,32386,20555,-3035,3610,-2849,111,-6823,-18282,-73,363,-301,1,0,21,36,920,1,53298,1
2,31242,30710,31812,32387,20571,-3046,3246,-2632,-526,-5153,-17802,-59,399,-287,1,0,21,36,960,1,53298,1
1,31269,30750,31830,32388,0,-3644,2478,-2384,2678,-4488,-15617,-50,430,-292,1,0,21,37,0,0,53298,1
2,31304,30134,31855,32389,19697,-3794,2065,-2333,5053,-3818,-14298,-43,461,-293,1,0,21,37,40,0,53298,1
2,31342,30105,31874,32390,19714,-4162,1297,-1808,8667,-4110,-13126,-26,508,-302,1,0,21,37,80,0,53298,1
2,31374,30484,31876,32391,19731,-4238,1769,-1821,7929,-4660,-12820,9,531,-311,1,0,21,37,120,0,53298,1
2,31467,30228,31911,32392,19748,-4307,1317,-1737,3828,-3970,-12873,29,569,-311,1,0,21,37,160,0,53298,1
2,31549,30165,31904,32393,19766,-4734,513,-1612,2712,-3503,-12681,63,587,-309,1,0,21,37,200,0,53298,1
2,31678,30232,31935,32394,19783,-5190,170,-1553,2374,-4032,-13785,111,615,-301,1,0,21,37,240,0,53298,1
2,31730,30175,31952,32395,19800,-5234,-96,-1486,2320,-4458,-15251,162,618,-286,1,0,21,37,280,0,53298,1
2,31689,30353,31935,32396,19818,-5309,-333,-1438,3308,-4940,-16276,222,620,-286,1,0,21,37,320,0,53298,1
2,31559,30269,31983,32397,19837,-5029,-366,-1312,3629,-5344,-17113,279,597,-281,1,0,21,37,360,0,53298,1
2,31542,30480,32009,32398,19856,-4765,-320,-1222,2103,-5154,-17500,340,576,-268,1,0,21,37,400,0,53298,1
2,31496,30428,31975,32399,19874,-4371,-209,-1299,-671,-4294,-17244,391,535,-261,1,0,21,37,440,0,53298,1
2,31451,31037,31971,32400,19892,-4054,206,-1488,-1723,-3282,-15422,426,488,-262,1,0,21,37,480,0,53298,1
2,31468,31919,31955,32401,19911,-3866,845,-1564,567,-2910,-11305,445,465,-251,1,0,21,37,520,0,53298,1
2,31451,30422,31984,32402,19929,-3603,1742,-1745,2102,-2400,-5265,451,457,-251,1,0,21,37,560,0,53298,1
2,31458,32181,31998,32403,19947,-3521,2763,-2305,868,-657,2752,437,483,-261,1,0,21,37,600,0,53298,1
2,31478,30836,32008,32404,19965,-3265,4420,-3277,-951,2431,13097,378,538,-268,1,0,21,37,640,0,53298,1
2,31557,32309,31978,32405,19983,-3539,5954,-3840,-1302,7103,25749,279,607,-277,1,0,21,37,680,0,53298,1
2,31683,30317,31968,32406,20002,-5751,6372,-2804,-1837,11947,32767,126,634,-302,1,0,21,37,720,0,53298,1
2,31447,32984,31943,32407,20020,-9407,5092,-2982,-7598,14892,32767,-28,544,-304,1,0,21,37,760,0,53298,1
2,31279,32952,31908,32408,20039,-14602,3709,-3231,-9596,15204,32767,-93,425,-291,1,0,21,37,800,0,53298,1
2,31227,32831,31840,32409,20056,-10462,282,-2525,-17891,13398,32767,-82,340,-274,1,0,21,37,840,0,53298,1
2,31214,31528,31802,32410,20072,-5320,-547,-2364,-25876,9598,24154,-64,300,-234,1,0,21,37,880,0,53298,1
2,31238,30119,31765,32411,20089,-4251,-828,-1686,-20100,6078,18327,-39,289,-229,1,0,21,37,920,0,53298,1
2,31228,30302,31751,32412,20105,-2758,-2415,-1687,-3093,2165,17511,-33,279,-237,1,0,21,37,960,0,53298,1
1,31227,30235,31740,32413,0,-2197,-2764,-754,12966,1206,14056,-32,266,-256,1,0,21,38,0,0,53298,1
2,31188,30202,31767,32414,19230,-2091,-1362,766,16729,590,6404,-32,258,-266,1,0,21,38,40,0,53298,1
2,31200,30044,31753,32415,19246,-2007,-653,582,6924,-1912,-2194,-46,258,-270,1,0,21,38,80,0,53298,1
2,31211,30060,31763,32416,19261,-1938,476,-836,-2773,-3828,-9386,-38,268,-274,1,0,21,38,120,0,53298,1
2,31222,30132,31787,32417,19276,-2587,1082,-1297,-3130,-4788,-13967,-60,302,-270,1,0,21,38,160,0,53298,1
2,31233,30162,31791,32418,19291,-3581,2222,-1714,991,-6097,-18421,-67,319,-265,1,0,21,38,200,0,53298,1
2,31236,30085,31793,32419,19306,-3577,3393,-2497,4142,-7873,-21763,-74,362,-274,1,0,21,38,240,0,53298,1
2,31250,30086,31807,32420,19321,-4042,3536,-2650,5184,-7265,-22044,-51,405,-271,1,0,21,38,280,0,53298,1
2,31277,30084,31825,32421,19336,-4360,3413,-2447,6410,-6991,-20434,-45,449,-269,1,0,21,38,320,0,53298,1
2,31271,30907,31809,32422,19351,-4173,3305,-2483,4577,-6281,-18881,-26,480,-266,1,0,21,38,360,0,53298,1
2,31324,30211,31845,32423,19366,-4223,2158,-2017,4888,-5218,-16107,-6,512,-262,1,0,21,38,400,0,53298,1
2,31339,31774,31840,32424,19382,-4568,2107,-2195,4790,-4429,-14034,25,543,-251,1,0,21,38,440,0,53298,1
2,31382,31253,31851,32425,19397,-4563,968,-2070,3967,-3763,-13393,55,567,-237,1,0,21,38,480,0,53298,1
2,31429,30868,31880,32426,19413,-4800,54,-2012,6160,-2063,-12869,79,589,-251,1,0,21,38,520,0,53298,1
2,31483,31717,31900,32427,19430,-5534,-909,-1716,8421,-1567,-14072,134,610,-264,1,0,21,38,560,0,53298,1
2,31505,31710,31900,32428,19448,-5676,-782,-965,9055,-2215,-16981,198,602,-286,1,0,21,38,600,0,53298,1
2,31498,32480,31893,32429,19466,-5379,-480,-533,5777,-3702,-19684,279,595,-271,1,0,21,38,640,0,53298,1
2,31446,31313,31883,32430,19484,-5198,-329,-442,842,-5066,-20624,353,563,-251,1,0,21,38,680,0,53298,1
2,31454,34057,31901,32431,19503,-4802,-168,-692,-2409,-6187,-20215,410,500,-258,1,0,21,38,720,0,53298,1
2,31408,32445,31866,32432,19520,-4432,296,-927,-2748,-6998,-18085,440,462,-230,1,0,21,38,760,0,53298,1
2,31405,32888,31881,32433,19539,-4049,493,-1420,-2368,-6959,-14170,451,419,-237,1,0,21,38,800,0,53298,1
2,31414,31031,31896,32434,19557,-3676,825,-1814,-1898,-5588,-8873,462,398,-230,1,0,21,38,840,0,53298,1
2,31420,33845,31884,32435,19575,-3468,881,-2353,-1866,-2897,-2591,452,404,-228,1,0,21,38,880,0,53298,1
2,31408,31325,31901,32436,19592,-3443,1474,-2736,-790,702,4488,445,437,-231,1,0,21,38,920,0,53298,1
2,31407,31430,31913,32437,19609,-3288,3555,-3238,-1303,4936,12933,412,484,-250,1,0,21,38,960,0,53298,1
1,31428,31929,31910,32438,0,-3501,7397,-4565,-2891,9698,25928,341,579,-283,1,0,21,39,0,0,53298,1
2,31628,30315,31915,32439,18765,-5732,8341,-4409,-2717,15732,32767,167,623,-315,1,0,21,39,40,0,53298,1
2,31434,30318,31914,32440,18783,-11095,4372,-4672,-4753,21765,32767,-4,560,-348,1,0,21,39,80,0,53298,1
2,31412,30378,31950,32441,18802,-18198,2662,-3341,2612,22053,32767,-68,422,-356,1,0,21,39,120,0,53298,1
2,31318,30323,31848,32442,18820,-11125,-1155,-1825,-4425,17996,32767,-69,321,-339,1,0,21,39,160,0,53298,1
2,31288,30611,31819,32443,18837,-4761,-686,-1146,-13543,11067,20700,-50,306,-310,1,0,21,39,200,0,53298,1
2,31241,31901,31737,32444,18852,-2643,-890,-1515,-21479,9128,14503,-34,278,-284,1,0,21,39,240,0,53298,1
2,31192,30070,31675,32445,18868,-3169,-3619,-1234,-7946,5359,16687,-35,271,-297,1,0,21,39,280,0,53298,1
2,31143,30232,31680,32446,18883,-2951,-3672,157,11628,1752,11870,-25,261,-309,1,0,21,39,320,0,53298,1
2,31160,30291,31697,32447,18899,-2520,-2170,1351,12314,-1830,1584,-35,267,-313,1,0,21,39,360,0,53298,1
2,31151,31086,31702,32448,18914,-2458,-860,-352,-855,-5007,-8658,-39,285,-307,1,0,21,39,400,0,53298,1
2,31151,32460,31706,32449,18930,-2323,343,-1880,-7467,-5544,-15030,-48,284,-310,1,0,21,39,440,0,53298,1
2,31158,32545,31719,32450,18946,-3639,941,-2102,-3808,-6120,-18394,-60,336,-306,1,0,21,39,480,0,53298,1
2,31191,30305,31761,32451,18962,-4948,2083,-2661,587,-7920,-23074,-74,372,-312,1,0,21,39,520,0,53298,1
2,31256,30134,31791,32452,18978,-5792,2466,-2799,1851,-8965,-28028,-54,442,-310,1,0,21,39,560,0,53298,1
2,31353,30105,31856,32453,18995,-6256,2891,-3154,2653,-8636,-29911,-25,513,-303,1,0,21,39,600,0,53298,1
2,31453,30432,31889,32454,19014,-5577,2818,-2632,6987,-9055,-28369,25,561,-295,1,0,21,39,640,0,53298,1
2,31495,31857,31870,32455,19033,-5636,2349,-2032,8880,-9540,-25141,81,613,-279,1,0,21,39,680,0,53298,1
2,31514,30524,31930,32456,19053,-5924,1528,-1846,6627,-9720,-22879,163,635,-263,1,0,21,39,720,0,53298,1
2,31469,30660,31929,32457,19072,-5732,709,-1684,2326,-8411,-21764,256,620,-246,1,0,21,39,760,0,53298,1
2,31419,30184,31914,32458,19091,-5619,-69,-1586,838,-6775,-20804,334,582,-246,1,0,21,39,800,0,53298,1
2,31407,30569,31917,32459,19110,-5224,-48,-1100,1988,-5694,-20096,387,533,-235,1,0,21,39,840,0,53298,1
2,31393,30727,31907,32460,19129,-4615,343,-920,1829,-5192,-18365,425,481,-231,1,0,21,39,880,0,53298,1
2,31375,30112,31882,32461,19148,-3918,551,-1244,28,-4590,-15228,441,435,-231,1,0,21,39,920,0,53298,1
2,31330,30167,31843,32462,19167,-3359,875,-1535,-679,-3503,-10548,453,417,-233,1,0,21,39,960,0,53298,1
1,31379,30627,31895,32463,0,-3026,1080,-1892,-1023,-1848,-4511,449,415,-227,1,0,21,40,0,0,53298,1
2,31384,30645,31902,32464,18300,-3179,1600,-2648,-685,633,2696,440,430,-230,1,0,21,40,40,0,53298,1
2,31390,30410,31922,32465,18318,-3266,3496,-3571,684,4397,11834,410,486,-232,1,0,21,40,80,0,53298,1
2,31420,30530,31920,32466,18338,-4063,5248,-4603,1654,9873,23936,347,567,-261,1,0,21,40,120,0,53298,1
2,31762,30600,31925,32467,18357,-5985,5503,-4742,2193,16782,32767,225,623,-309,1,0,21,40,160,0,53298,1
2,31530,30640,31896,32468,18375,-8177,4619,-4369,264,23307,32767,74,588,-374,1,0,21,40,200,0,53298,1
2,31241,30165,31825,32469,18394,-12251,3934,-3152,893,25630,32767,-25,479,-395,1,0,21,40,240,0,53298,1
2,31218,30679,31790,32470,18410,-14284,314,-2157,-6221,23202,32767,-55,357,-373,1,0,21,40,280,0,53298,1
2,31198,30508,31778,32471,18426,-6905,-717,-1285,-17287,15136,30151,-43,303,-335,1,0,21,40,320,0,53298,1
2,31174,30601,31742,32472,18442,-3915,757,-1281,-18451,9124,19398,-33,289,-303,1,0,21,40,360,0,53298,1
2,31142,32117,31668,32473,18458,-3326,-1586,-1185,-14524,6924,17729,-38,270,-288,1,0,21,40,400,0,53298,1
2,31170,30228,31683,32474,18472,-2928,-3622,-607,-3028,3676,14724,-22,262,-296,1,0,21,40,440,0,53298,1
2,31151,32773,31680,32475,18487,-1863,-2663,-161,8443,-340,7549,-26,256,-314,1,0,21,40,480,0,53298,1
2,31151,31603,31706,32476,18501,-1745,-1211,-10,8048,-3133,-218,-23,265,-299,1,0,21,40,520,0,53298,1
2,31189,30132,31756,32477,18515,-1888,-55,-950,1271,-5299,-6933,-30,272,-312,1,0,21,40,560,0,53298,1
2,31207,30112,31770,32478,18530,-2576,283,-1530,-2877,-6735,-12833,-45,289,-311,1,0,21,40,600,0,53298,1
2,31242,30134,31818,32479,18545,-3608,1152,-1802,-4481,-8174,-19215,-46,310,-310,1,0,21,40,640,0,53298,1
2,31286,30165,31851,32480,18559,-4504,2349,-2666,-5228,-8692,-24625,-68,356,-310,1,0,21,40,680,0,53298,1
2,31326,30282,31886,32481,18573,-5090,2229,-3136,-491,-8719,-27066,-50,420,-298,1,0,21,40,720,0,53298,1
2,31366,30209,31919,32482,18587,-5410,2007,-3208,5195,-7535,-27162,-29,481,-293,1,0,21,40,760,0,53298,1
2,31431,33021,31935,32483,18602,-6196,1633,-2402,12463,-8209,-26238,4,536,-292,1,0,21,40,800,0,53298,1
2,31546,32159,31979,32484,18618,-6484,1225,-1921,12104,-10527,-26864,90,610,-278,1,0,21,40,840,0,53298,1
2,31569,33322,31979,32485,18634,-6699,1049,-1646,5988,-10450,-27525,172,626,-254,1,0,21,40,880,0,53298,1
2,31514,31228,31977,32486,18651,-7297,158,-2128,-1203,-9105,-28203,285,617,-269,1,0,21,40,920,0,53298,1
2,31477,31184,31967,32487,18669,-6950,258,-2065,-3065,-7079,-28445,383,563,-253,1,0,21,40,960,0,53298,1
1,31492,30270,31978,32488,0,-5985,11,-1052,-688,-6628,-27995,432,484,-250,1,0,21,41,0,1,53298,1
2,31502,30284,31970,32489,17833,-4688,1068,-2098,-4272,-4388,-25192,454,410,-254,1,0,21,41,40,1,53298,1
2,31505,30487,31970,32490,17851,-3373,1945,-1731,-949,-2783,-19705,468,342,-262,1,0,21,41,80,1,53298,1
2,31516,30301,31973,32491,17869,-2227,3397,-1223,-1647,-1046,-11645,457,335,-261,1,0,21,41,120,1,53298,1
2,31502,30443,31955,32492,17887,-2517,2595,-2511,-6530,925,-108,460,350,-278,1,0,21,41,160,1,53298,1
2,31484,30828,31957,32493,17906,-3344,2713,-3138,-1307,2408,13133,450,404,-280,1,0,21,41,200,1,53298,1
2,31488,30822,31985,32494,17925,-3681,4831,-3362,9819,4373,26547,396,490,-264,1,0,21,41,240,1,53298,1
2,31621,32310,31973,32495,17945,-5060,5898,-2494,12049,10322,32767,305,603,-287,1,0,21,41,280,1,53298,1
2,31810,32694,31970,32496,17963,-7590,4609,-2680,2030,17388,32767,136,626,-342,1,0,21,41,320,1,53298,1
2,31446,30316,32000,32497,17981,-11271,4298,-3167,-4404,20337,32767,-39,515,-359,1,0,21,41,360,1,53298,1
2,31342,30438,31938,32498,17999,-15695,2350,-2050,-7611,18708,32767,-76,410,-342,1,0,21,41,400,1,53298,1
2,31290,30383,31895,32499,18015,-8926,-587,-2093,-18356,12636,32767,-72,350,-298,1,0,21,41,440,1,53298,1
2,31271,30300,31835,32500,18030,-4668,-955,-2645,-21486,6514,19629,-59,313,-281,1,0,21,41,480,1,53298,1
2,31230,30309,31757,32501,18046,-3639,-1554,-2077,-17261,5002,13882,-44,294,-258,1,0,21,41,520,1,53298,1
2,31206,30647,31735,32502,18061,-2551,-2156,-1282,-1056,2789,13867,-43,279,-271,1,0,21,41,560,1,53298,1
2,31213,30416,31743,32503,18075,-2135,-2250,-727,12730,504,11623,-38,270,-286,1,0,21,41,600,1,53298,1
2,31224,30124,31778,32504,18089,-2256,-1276,-132,15476,-688,5487,-51,267,-293,1,0,21,41,640,1,53298,1
2,31221,30187,31804,32505,18104,-2414,-70,8,8589,-2929,-2626,-44,268,-304,1,0,21,41,680,1,53298,1
2,31221,30197,31803,32506,18119,-2575,816,-1033,-4708,-4888,-10755,-58,302,-302,1,0,21,41,720,1,53298,1
2,31247,30193,31815,32507,18135,-3163,1161,-1839,-11015,-5467,-16432,-59,319,-287,1,0,21,41,760,1,53298,1
2,31262,30183,31826,32508,18150,-3884,1998,-2272,-5881,-6305,-20481,-64,360,-284,1,0,21,41,800,1,53298,1
2,31275,30178,31831,32509,18165,-4072,2895,-2636,1633,-6958,-22358,-67,393,-279,1,0,21,41,840,1,53298,1
2,31289,33846,31855,32510,18181,-4906,2017,-2669,8288,-8041,-22050,-50,452,-286,1,0,21,41,880,1,53298,1
2,31322,30445,31904,32511,18197,-5327,2184,-2285,10861,-9133,-22548,-11,515,-267,1,0,21,41,920,1,53298,1
2,31375,32396,31937,32512,18213,-5643,1828,-1970,8685,-9130,-22437,23,555,-257,1,0,21,41,960,1,53298,1
1,31454,32379,31959,32513,0,-5879,995,-1544,3687,-7796,-21513,84,598,-244,1,0,21,42,0,0,53298,1
2,31480,32546,31974,32514,17367,-5968,547,-1537,929,-7691,-22114,152,624,-234,1,0,21,42,40,0,53298,1
2,31454,32368,31979,32515,17385,-5780,-54,-1362,190,-7107,-22640,240,612,-230,1,0,21,42,80,0,53298,1
2,31424,32305,31984,32516,17403,-5870,-352,-1062,717,-6626,-23543,314,578,-232,1,0,21,42,120,0,53298,1
2,31401,32465,31982,32517,17421,-5514,-77,-987,-243,-5941,-24336,395,517,-227,1,0,21,42,160,0,53298,1
2,31393,32543,31959,32518,17439,-4806,709,-1099,-1113,-5198,-23180,434,460,-228,1,0,21,42,200,0,53298,1
2,31385,32660,31946,32519,17457,-3980,1377,-1568,-2236,-3826,-18939,453,419,-233,1,0,21,42,240,0,53298,1
2,31385,32393,31950,32520,17475,-3294,2581,-1801,-1858,-2255,-11536,467,381,-235,1,0,21,42,280,0,53298,1
2,31392,30822,31962,32521,17492,-2676,3338,-2705,-1608,101,-677,454,396,-240,1,0,21,42,320,0,53298,1
2,31401,30624,32000,32522,17510,-2484,4473,-3379,2676,3264,13110,435,459,-233,1,0,21,42,360,0,53298,1
2,31425,32090,31998,32523,17528,-3748,5493,-3789,7277,8151,27523,336,578,-240,1,0,21,42,400,0,53298,1
2,31615,31119,32005,32524,17546,-6184,6530,-3637,6426,14832,32767,173,639,-283,1,0,21,42,440,0,53298,1
2,31503,32065,31979,32525,17564,-9285,5886,-3647,-1699,21490,32767,4,582,-316,1,0,21,42,480,0,53298,1
2,31288,30927,31955,32526,17583,-15054,4519,-3471,-8839,23774,32767,-69,449,-331,1,0,21,42,520,0,53298,1
2,31240,30654,31883,32527,17600,-14033,276,-2808,-17597,19734,32767,-76,358,-314,1,0,21,42,560,0,53298,1
2,31256,30307,31875,32528,17617,-6258,-1614,-2556,-22917,12824,28542,-61,311,-277,1,0,21,42,600,0,53298,1
2,31227,31184,31837,32529,17632,-4222,-1409,-2080,-18560,8683,18010,-46,282,-262,1,0,21,42,640,0,53298,1
2,31227,30651,31762,32530,17648,-3089,-2043,-802,-3225,5662,17142,-29,275,-279,1,0,21,42,680,0,53298,1
2,31212,30363,31787,32531,17664,-2452,-2455,150,14154,2203,15461,-29,269,-295,1,0,21,42,720,0,53298,1
2,31179,30613,31759,32532,17680,-2275,-1841,1136,15025,301,8139,-34,256,-288,1,0,21,42,760,0,53298,1
2,31178,31908,31769,32533,17695,-2230,-1128,661,1362,-2018,-1791,-32,262,-296,1,0,21,42,800,0,53298,1
2,31188,31540,31774,32534,17711,-2133,-242,-936,-7951,-4401,-9756,-44,276,-292,1,0,21,42,840,0,53298,1
2,31198,31761,31789,32535,17726,-2855,151,-1657,-6081,-5907,-14945,-56,292,-288,1,0,21,42,880,0,53298,1
2,31249,30357,31858,32536,17741,-4575,644,-2035,689,-7931,-20611,-72,328,-290,1,0,21,42,920,0,53298,1
2,31239,30175,31848,32537,17756,-5407,2223,-2904,4455,-9966,-26811,-63,397,-287,1,0,21,42,960,0,53298,1
1,31291,30457,31896,32538,0,-5580,2751,-3175,6650,-9996,-29432,-46,466,-282,1,0,21,43,0,1,53298,1
2,31369,30399,31927,32539,16900,-6191,2527,-2536,9888,-9928,-28496,-15,521,-267,1,0,21,43,40,1,53298,1
2,31440,30765,31947,32540,16917,-6446,2466,-2084,8673,-11460,-27961,51,575,-263,1,0,21,43,80,1,53298,1
2,31459,30481,31973,32541,16935,-6102,2241,-1705,4299,-11582,-26730,131,615,-241,1,0,21,43,120,1,53298,1
2,31462,30290,31994,32542,16953,-6099,1766,-1588,421,-10831,-24627,203,623,-227,1,0,21,43,160,1,53298,1
2,31460,30201,32006,32543,16972,-5911,758,-1681,-1717,-9220,-22795,281,593,-215,1,0,21,43,200,1,53298,1
2,31416,32165,31988,32544,16991,-5589,506,-1320,81,-7586,-21184,357,561,-211,1,0,21,43,240,1,53298,1
2,31423,32546,31992,32545,17010,-5002,574,-1117,-535,-5613,-19301,386,508,-208,1,0,21,43,280,1,53298,1
2,31423,34341,31959,32546,17030,-4217,658,-1031,-2736,-3641,-16811,423,461,-217,1,0,21,43,320,1,53298,1
2,31409,33802,31950,32547,17049,-3557,430,-1452,-4411,-1862,-12767,432,424,-220,1,0,21,43,360,1,53298,1
2,31409,32637,31944,32548,17068,-3085,723,-1417,-2557,-625,-7539,436,418,-230,1,0,21,43,400,1,53298,1
2,31408,32454,31943,32549,17087,-2984,1109,-1846,-1623,970,-1417,438,416,-230,1,0,21,43,440,1,53298,1
2,31407,31122,31958,32550,17105,-2973,2125,-2453,604,3243,6265,427,459,-233,1,0,21,43,480,1,53298,1
2,31423,33574,31974,32551,17123,-3118,4678,-3423,5034,6000,17142,364,526,-240,1,0,21,43,520,1,53298,1
2,31487,34598,32019,32552,17141,-4340,6403,-3691,6808,11470,29936,259,605,-267,1,0,21,43,560,1,53298,1
2,31597,33060,31968,32553,17159,-7487,5596,-3622,-400,19168,32767,110,626,-290,1,0,21,43,600,1,53298,1
2,31388,32891,31938,32554,17177,-10293,4671,-3577,-6503,22372,32767,-20,532,-340,1,0,21,43,640,1,53298,1
2,31281,32142,31870,32555,17195,-14978,3243,-3122,-7301,20685,32767,-73,411,-345,1,0,21,43,680,1,53298,1
2,31238,32213,31831,32556,17211,-10302,-896,-2425,-13617,15627,32767,-63,337,-313,1,0,21,43,720,1,53298,1
2,31222,33064,31832,32557,17226,-5248,-827,-2000,-10685,9318,25874,-51,303,-303,1,0,21,43,760,1,53298,1
2,31223,31067,31778,32558,17242,-3810,-401,-647,-8795,8170,17048,-39,273,-291,1,0,21,43,800,1,53298,1
2,31218,30193,31751,32559,17257,-2924,-2144,25,-5107,5355,15557,-27,273,-287,1,0,21,43,840,1,53298,1
2,31184,31977,31763,32560,17272,-2328,-2940,-146,2237,1756,11828,-32,266,-286,1,0,21,43,880,1,53298,1
2,31198,30090,31769,32561,17288,-1917,-2128,426,6305,-913,4115,-26,266,-296,1,0,21,43,920,1,53298,1
2,31198,30090,31781,32562,17303,-1999,-798,-37,3373,-3785,-3648,-23,263,-295,1,0,21,43,960,1,53298,1
1,31195,30082,31792,32563,0,-2087,410,-1368,-1520,-5696,-9668,-44,284,-296,1,0,21,44,0,1,53298,1
2,31205,30079,31800,32564,16435,-2702,1237,-1908,-2926,-6625,-14089,-56,308,-288,1,0,21,44,40,1,53298,1
2,31214,30156,31827,32565,16451,-4061,1822,-2242,-1755,-7690,-19118,-66,340,-288,1,0,21,44,80,1,53298,1
2,31255,30279,31830,32566,16467,-5066,2521,-2172,156,-9466,-24859,-61,391,-293,1,0,21,44,120,1,53298,1
2,31310,30500,31829,32567,16483,-6039,1963,-1991,397,-10359,-28219,-47,445,-273,1,0,21,44,160,1,53298,1
2,31361,30159,31895,32568,16500,-6398,2258,-2609,-203,-10323,-29931,-5,503,-247,1,0,21,44,200,1,53298,1
2,31442,31520,31893,32569,16518,-6189,1783,-2072,4573,-9843,-29553,54,544,-230,1,0,21,44,240,1,53298,1
2,31446,32615,31942,32570,16537,-6203,1722,-1456,8407,-10343,-27612,124,572,-208,1,0,21,44,280,1,53298,1
2,31445,30666,31956,32571,16556,-6160,1327,-1743,4130,-10199,-26219,201,583,-201,1,0,21,44,320,1,53298,1
2,31462,30224,31963,32572,16576,-5351,1154,-1684,1881,-8067,-25073,287,579,-201,1,0,21,44,360,1,53298,1
2,31463,30384,31984,32573,16597,-5079,1075,-1400,164,-5565,-23208,351,537,-197,1,0,21,44,400,1,53298,1
2,31451,30295,31970,32574,16617,-4956,1044,-1158,-1620,-3015,-20402,389,483,-205,1,0,21,44,440,1,53298,1
2,31428,30210,31941,32575,16636,-4489,1095,-1216,-1151,-1655,-16099,426,452,-220,1,0,21,44,480,1,53298,1
2,31450,30482,31960,32576,16656,-3906,1422,-1447,604,-1220,-9943,433,439,-213,1,0,21,44,520,1,53298,1
2,31445,30426,31958,32577,16676,-3220,1842,-1976,1115,113,-2433,423,443,-219,1,0,21,44,560,1,53298,1
2,31431,30217,31954,32578,16695,-2838,2746,-2737,2141,2781,6633,400,474,-216,1,0,21,44,600,1,53298,1
2,31438,30345,31976,32579,16715,-2834,4520,-3378,4675,6773,17678,343,543,-219,1,0,21,44,640,1,53298,1
2,31513,30458,31979,32580,16734,-4291,5480,-3328,6794,12198,30074,245,597,-243,1,0,21,44,680,1,53298,1
2,31521,30190,31970,32581,16754,-7086,5454,-2629,5587,17355,32767,87,611,-283,1,0,21,44,720,1,53298,1
2,31401,30186,31960,32582,16774,-10227,4534,-2503,1247,19918,32767,-38,512,-308,1,0,21,44,760,1,53298,1
2,31306,30227,31932,32583,16793,-13790,2615,-2570,-5955,19537,32767,-70,400,-320,1,0,21,44,800,1,53298,1
2,31267,30213,31872,32584,16811,-9409,-364,-2451,-19411,16750,32767,-76,340,-298,1,0,21,44,840,1,53298,1
2,31255,30189,31854,32585,16829,-5149,-255,-1954,-25919,13199,21538,-62,298,-250,1,0,21,44,880,1,53298,1
2,31224,31340,31780,32586,16847,-3803,-801,-1350,-20417,7699,15947,-48,290,-248,1,0,21,44,920,1,53298,1
2,31211,30152,31770,32587,16865,-2526,-2330,-1663,-3723,3504,15742,-32,274,-248,1,0,21,44,960,1,53298,1
1,31184,32882,31791,32588,0,-2266,-1844,-391,13769,2424,13165,-38,272,-264,1,0,21,45,0,1,53298,1
2,31185,30134,31797,32589,15970,-2298,-987,1217,14853,870,5923,-39,259,-281,1,0,21,45,40,1,53298,1
2,31196,30149,31796,32590,15986,-2235,-788,12,2213,-2122,-2818,-43,267,-279,1,0,21,45,80,1,53298,1
2,31207,30145,31806,32591,16002,-2105,188,-1379,-4342,-3937,-10488,-49,279,-273,1,0,21,45,120,1,53298,1
2,31220,30212,31836,32592,16017,-3115,461,-1715,-1057,-5487,-15422,-63,309,-289,1,0,21,45,160,1,53298,1
2,31232,30191,31849,32593,16033,-4385,1428,-2205,4148,-7605,-20736,-59,347,-293,1,0,21,45,200,1,53298,1
2,31237,30177,31837,32594,16050,-4465,2249,-2626,5982,-8988,-24893,-59,387,-283,1,0,21,45,240,1,53298,1
2,31271,30380,31867,32595,16068,-4965,3022,-2386,7033,-8783,-25194,-45,449,-295,1,0,21,45,280,1,53298,1
2,31349,30160,31894,32596,16085,-5256,2564,-2239,4742,-8623,-24266,-21,511,-289,1,0,21,45,320,1,53298,1
2,31403,31190,31880,32597,16103,-5958,1644,-2242,3878,-8093,-23685,26,568,-264,1,0,21,45,360,1,53298,1
2,31457,30321,31918,32598,16121,-6026,1190,-1563,5570,-8636,-23692,88,600,-248,1,0,21,45,400,1,53298,1
2,31488,30299,31936,32599,16141,-6447,832,-1570,2086,-8225,-24047,157,621,-237,1,0,21,45,440,1,53298,1
2,31454,30217,31947,32600,16162,-5964,553,-1471,-317,-7346,-24540,234,614,-226,1,0,21,45,480,1,53298,1
2,31445,33425,31933,32601,16183,-5548,762,-1199,-957,-6660,-24336,321,583,-233,1,0,21,45,520,1,53298,1
2,31427,30522,31954,32602,16204,-5116,835,-1280,-2219,-5814,-22539,388,526,-228,1,0,21,45,560,1,53298,1
2,31442,30276,31930,32603,16225,-4352,982,-1289,-2286,-4693,-19284,430,466,-238,1,0,21,45,600,1,53298,1
2,31424,30189,31911,32604,16245,-3694,1270,-1345,-1291,-3607,-14006,448,432,-230,1,0,21,45,640,1,53298,1
2,31428,30191,31913,32605,16265,-3189,1502,-1663,-984,-2115,-7292,444,430,-232,1,0,21,45,680,1,53298,1
2,31428,30175,31924,32606,16285,-3071,1751,-2293,-990,148,389,440,450,-246,1,0,21,45,720,1,53298,1
2,31425,30233,31925,32607,16304,-3053,2717,-2983,1805,2957,9774,402,488,-230,1,0,21,45,760,1,53298,1
2,31442,30199,31943,32608,16324,-3345,4367,-3403,6588,6504,21006,348,568,-238,1,0,21,45,800,1,53298,1
2,31493,30659,31929,32609,16344,-4478,5358,-3183,8777,11521,32355,221,623,-249,1,0,21,45,840,1,53298,1
2,31520,30211,31950,32610,16364,-6720,5713,-3107,4288,17029,32767,55,621,-297,1,0,21,45,880,1,53298,1
2,31379,30203,31942,32611,16384,-10877,5036,-3394,-2160,20705,32767,-52,516,-328,1,0,21,45,920,1,53298,1
2,31294,30213,31899,32612,16403,-14988,2122,-2665,-8706,20545,32767,-95,405,-327,1,0,21,45,960,1,53298,1
1,31225,32485,31814,32613,0,-8237,-432,-2218,-18745,15818,32767,-72,336,-308,1,0,21,46,0,0,53298,1
2,31230,30127,31771,32614,15505,-4990,-920,-1883,-21503,10659,19243,-55,303,-277,1,0,21,46,40,0,53298,1
2,31187,30063,31725,32615,15522,-3544,-2139,-1276,-10586,5949,15454,-48,290,-266,1,0,21,46,80,0,53298,1
2,31177,30296,31725,32616,15539,-2346,-2226,-841,8224,2672,14889,-32,274,-290,1,0,21,46,120,0,53298,1
2,31180,30111,31734,32617,15555,-2560,-1442,744,16096,1449,10486,-34,262,-294,1,0,21,46,160,0,53298,1
2,31166,31023,31727,32618,15572,-2453,-1230,882,5476,-725,1971,-47,273,-295,1,0,21,46,200,0,53298,1
2,31163,33595,31725,32619,15588,-2332,-769,-816,-6478,-3219,-6957,-47,285,-289,1,0,21,46,240,0,53298,1
2,31178,33732,31743,32620,15604,-2517,215,-1753,-6286,-4789,-13207,-57,297,-289,1,0,21,46,280,0,53298,1
2,31189,33893,31768,32621,15620,-3797,849,-2307,-384,-6369,-17441,-77,335,-297,1,0,21,46,320,0,53298,1
2,31198,33729,31787,32622,15636,-4792,2160,-2985,5178,-7831,-22310,-67,379,-305,1,0,21,46,360,0,53298,1
2,31228,33573,31791,32623,15652,-4453,3008,-2924,7653,-8449,-24976,-56,444,-316,1,0,21,46,400,0,53298,1
2,31277,33708,31826,32624,15669,-5470,1660,-2558,6983,-8192,-24517,-34,502,-302,1,0,21,46,440,0,53298,1
2,31341,33656,31860,32625,15686,-6132,1711,-2143,7508,-9500,-25474,6,560,-288,1,0,21,46,480,0,53298,1
2,31458,34021,31892,32626,15704,-6136,1518,-1745,5851,-10712,-25836,69,607,-281,1,0,21,46,520,0,53298,1
2,31449,32645,31883,32627,15723,-6090,1131,-1454,1844,-10715,-25773,163,627,-261,1,0,21,46,560,0,53298,1
2,31400,30975,31880,32628,15742,-5800,597,-1565,-2518,-9581,-25706,249,617,-251,1,0,21,46,600,0,53298,1
2,31392,30140,31914,32629,15761,-5374,663,-1389,-2489,-8024,-24955,355,573,-239,1,0,21,46,640,0,53298,1
2,31385,30188,31920,32630,15781,-5187,950,-1237,-1327,-6204,-22826,402,524,-238,1,0,21,46,680,0,53298,1
2,31370,30137,31901,32631,15800,-4684,1291,-1206,-129,-4940,-18851,447,475,-235,1,0,21,46,720,0,53298,1
2,31372,30145,31902,32632,15819,-4047,1473,-1402,-106,-3966,-13117,448,436,-232,1,0,21,46,760,0,53298,1
2,31366,30185,31886,32633,15838,-3484,1491,-1800,157,-2821,-5788,445,437,-233,1,0,21,46,800,0,53298,1
2,31380,30164,31911,32634,15858,-3089,1609,-2144,1371,-916,2101,434,456,-230,1,0,21,46,840,0,53298,1
2,31379,30167,31928,32635,15876,-3244,1763,-2575,2124,2225,9948,402,492,-220,1,0,21,46,880,0,53298,1
2,31403,30157,31930,32636,15895,-3686,2226,-2832,3487,6279,17801,355,559,-229,1,0,21,46,920,0,53298,1
2,31458,30190,31937,32637,15914,-4565,3485,-2867,4836,10274,25351,266,614,-254,1,0,21,46,960,0,53298,1
1,31532,30214,31923,32638,0,-5534,5256,-3138,1374,14497,32767,127,641,-275,1,0,21,47,0,0,53298,1
2,31374,30179,31915,32639,15041,-7559,4788,-3517,-5773,18640,32767,8,572,-310,1,0,21,47,40,0,53298,1
2,31256,30121,31879,32640,15060,-11646,4110,-3096,-11229,19870,32767,-63,457,-319,1,0,21,47,80,0,53298,1
2,31196,30140,31771,32641,15077,-11468,1450,-3285,-19690,16389,32767,-78,372,-294,1,0,21,47,120,0,53298,1
2,31170,30116,31732,32642,15094,-6240,-472,-2784,-17254,10907,30742,-69,305,-281,1,0,21,47,160,0,53298,1
2,31191,30389,31728,32643,15111,-4495,-1188,-1795,-6977,7909,23923,-52,280,-284,1,0,21,47,200,0,53298,1
2,31224,30150,31742,32644,15127,-3636,-2021,-260,5517,6370,18882,-33,261,-293,1,0,21,47,240,0,53298,1
2,31275,30206,31771,32645,15143,-2445,-1901,417,9362,3367,12728,-27,259,-303,1,0,21,47,280,0,53298,1
2,31281,30191,31806,32646,15158,-1893,-1664,358,6500,503,5719,-26,256,-314,1,0,21,47,320,0,53298,1
2,31293,30285,31832,32647,15174,-1937,-1163,307,1877,-1870,-1674,-35,265,-309,1,0,21,47,360,0,53298,1
2,31286,30191,31831,32648,15189,-2152,83,-767,-2876,-4465,-8573,-42,272,-298,1,0,21,47,400,0,53298,1
2,31304,30196,31857,32649,15204,-2400,1033,-1651,-3983,-6045,-13289,-61,287,-301,1,0,21,47,440,0,53298,1
2,31325,30229,31896,32650,15220,-3890,-138,-2186,-2655,-7074,-18681,-66,332,-306,1,0,21,47,480,0,53298,1
2,31342,30273,31935,32651,15235,-5933,1633,-3225,54,-7107,-27419,-58,394,-308,1,0,21,47,520,0,53298,1
2,31415,30463,31980,32652,15251,-5006,3016,-2460,917,-7514,-32768,-54,456,-300,1,0,21,47,560,0,53298,1
2,31474,31226,32009,32653,15268,-4987,3203,-1971,-3154,-5151,-31008,-24,522,-292,1,0,21,47,600,0,53298,1
2,31561,30777,32034,32654,15285,-5882,2184,-2003,-1004,-4634,-27378,33,585,-287,1,0,21,47,640,0,53298,1
2,31624,30569,32032,32655,15303,-5877,2933,-1949,7545,-6685,-23852,90,626,-276,1,0,21,47,680,0,53298,1
2,31619,30497,32060,32656,15321,-5436,2831,-1920,9250,-7322,-20054,173,645,-267,1,0,21,47,720,0,53298,1
2,31568,31097,32052,32657,15340,-4858,1199,-1841,5734,-6036,-17188,231,639,-257,1,0,21,47,760,0,53298,1
2,31522,31064,32062,32658,15359,-4778,656,-1333,2829,-4490,-15900,283,619,-263,1,0,21,47,800,0,53298,1
2,31511,32595,32063,32659,15378,-5094,25,-1198,-551,-3078,-14638,337,589,-269,1,0,21,47,840,0,53298,1
2,31505,34133,32080,32660,15398,-5072,-532,-1042,8,-2914,-13625,372,560,-266,1,0,21,47,880,0,53298,1
2,31492,32072,32052,32661,15418,-4563,-377,-908,1092,-3332,-12902,395,517,-255,1,0,21,47,920,0,53298,1
2,31485,31372,32047,32662,15436,-3763,-25,-1056,575,-3187,-11306,414,490,-248,1,0,21,47,960,0,53298,1
1,31474,32752,32034,32663,0,-3181,296,-1320,330,-2368,-8355,421,479,-255,1,0,21,48,0,1,53298,1
2,31473,33464,32036,32664,14575,-3060,1032,-1794,1117,-1075,-3765,427,469,-235,1,0,21,48,40,1,53298,1
2,31470,32295,32060,32665,14595,-3078,2037,-2331,3692,517,3180,409,487,-233,1,0,21,48,80,1,53298,1
2,31485,33364,32075,32666,14614,-3482,3923,-2962,6706,2831,12789,374,552,-240,1,0,21,48,120,1,53298,1
2,31494,31616,32029,32667,14633,-4355,5682,-3362,5546,7295,23712,283,615,-259,1,0,21,48,160,1,53298,1
2,31626,33913,31973,32668,14652,-5525,6086,-3951,-1219,13310,32767,150,642,-288,1,0,21,48,200,1,53298,1
2,31448,30264,31966,32669,14671,-8384,5414,-3383,-3840,18026,32767,-27,559,-329,1,0,21,48,240,1,53298,1
2,31371,30282,31999,32670,14691,-12758,4008,-3027,-6082,19919,32767,-72,432,-326,1,0,21,48,280,1,53298,1
2,31283,30139,31887,32671,14710,-12062,80,-2784,-12202,17845,32767,-84,344,-312,1,0,21,48,320,1,53298,1
2,31251,30195,31843,32672,14728,-6166,-1156,-1674,-9248,11682,28997,-61,297,-313,1,0,21,48,360,1,53298,1
2,31233,30146,31794,32673,14745,-4307,-1272,-773,-7052,8304,18162,-50,288,-296,1,0,21,48,400,1,53298,1
2,31212,30147,31775,32674,14762,-2887,-2106,-397,-2161,5008,13892,-35,275,-287,1,0,21,48,440,1,53298,1
2,31175,31689,31741,32675,14778,-2231,-2294,319,4828,2333,10165,-30,258,-300,1,0,21,48,480,1,53298,1
2,31191,30220,31768,32676,14796,-2123,-1894,662,4404,-158,3970,-36,264,-304,1,0,21,48,520,1,53298,1
2,31198,30103,31781,32677,14812,-2191,-1159,-238,-597,-2866,-3271,-47,273,-307,1,0,21,48,560,1,53298,1
2,31201,30088,31797,32678,14828,-2415,65,-1418,-2901,-5025,-9702,-56,284,-302,1,0,21,48,600,1,53298,1
2,31209,30093,31807,32679,14845,-3429,1044,-1978,-751,-6884,-15069,-62,316,-304,1,0,21,48,640,1,53298,1
2,31229,30090,31824,32680,14860,-4279,2500,-2710,5,-8332,-21236,-68,354,-298,1,0,21,48,680,1,53298,1
2,31246,30087,31836,32681,14876,-3741,3254,-3003,1094,-8163,-24198,-67,403,-301,1,0,21,48,720,1,53298,1
2,31286,30108,31854,32682,14892,-5033,2217,-2716,5277,-7559,-23053,-47,455,-305,1,0,21,48,760,1,53298,1
2,31340,30126,31882,32683,14908,-5331,2503,-2258,8834,-8771,-23331,-18,524,-300,1,0,21,48,800,1,53298,1
2,31414,30158,31911,32684,14926,-5570,1629,-1943,6912,-9429,-23353,37,571,-279,1,0,21,48,840,1,53298,1
2,31495,30180,31931,32685,14944,-5901,886,-1690,3599,-9344,-23474,96,602,-266,1,0,21,48,880,1,53298,1
2,31488,30185,31935,32686,14963,-5989,513,-1487,1116,-9070,-23909,175,623,-245,1,0,21,48,920,1,53298,1
2,31441,30169,31939,32687,14983,-5843,390,-1189,530,-8721,-24066,259,611,-247,1,0,21,48,960,1,53298,1
1,31403,30156,31944,32688,0,-5607,396,-1123,-388,-7868,-23746,346,574,-222,1,0,21,49,0,1,53298,1
2,31388,30125,31941,32689,14110,-5240,755,-1105,-742,-6997,-22455,408,522,-224,1,0,21,49,40,1,53298,1
2,31379,30286,31919,32690,14130,-4606,1150,-1287,-802,-6015,-19314,432,472,-222,1,0,21,49,80,1,53298,1
2,31366,30338,31912,32691,14150,-3901,1607,-1449,-428,-4880,-14001,450,442,-226,1,0,21,49,120,1,53298,1
2,31374,30180,31920,32692,14169,-3259,2057,-1953,-387,-3141,-6643,437,425,-215,1,0,21,49,160,1,53298,1
2,31383,30226,31938,32693,14189,-2860,2415,-2614,407,-99,2383,429,453,-211,1,0,21,49,200,1,53298,1
2,31382,30162,31949,32694,14209,-3064,2945,-3141,3109,3911,12719,403,499,-215,1,0,21,49,240,1,53298,1
2,31410,30157,31942,32695,14227,-3895,3440,-2855,5976,8780,22787,303,597,-231,1,0,21,49,280,1,53298,1
